110,   110, MVIRI VIS channel from srf_MET7_2011123_2011124_1801-Release_S10EE_10.dat
Number of data points:
793
Wavenumber (cm-1)   Filter response
     8442.380800       0.000000
     8449.514200       0.000000
     8456.659600       0.000004
     8463.817200       0.000056
     8470.986900       0.000167
     8478.168700       0.000333
     8485.362700       0.000555
     8492.569000       0.000830
     8499.787500       0.001156
     8507.018300       0.001532
     8514.261400       0.001958
     8521.516800       0.002430
     8528.784600       0.002948
     8536.064900       0.003511
     8543.357500       0.004118
     8550.662700       0.004766
     8557.980300       0.005456
     8565.310500       0.006186
     8572.653200       0.006954
     8580.008600       0.007760
     8587.376600       0.008603
     8594.757200       0.009482
     8602.150500       0.010396
     8609.556600       0.011344
     8616.975400       0.012326
     8624.407100       0.013340
     8631.851500       0.014385
     8639.308900       0.015461
     8646.779100       0.016568
     8654.262200       0.017705
     8661.758300       0.018870
     8669.267400       0.020064
     8676.789600       0.021285
     8684.324800       0.022534
     8691.873100       0.023810
     8699.434500       0.025112
     8707.009100       0.026440
     8714.596900       0.027793
     8722.198000       0.029171
     8729.812300       0.030573
     8737.439900       0.032000
     8745.080900       0.033451
     8752.735200       0.034925
     8760.403000       0.036422
     8768.084200       0.037943
     8775.778900       0.039486
     8783.487000       0.041051
     8791.208800       0.042639
     8798.944100       0.044249
     8806.693100       0.045881
     8814.455700       0.047534
     8822.232000       0.049209
     8830.022100       0.050905
     8837.825900       0.052623
     8845.643500       0.054362
     8853.475000       0.056122
     8861.320300       0.057902
     8869.179600       0.059704
     8877.052800       0.061527
     8884.940000       0.063370
     8892.841300       0.065234
     8900.756600       0.067119
     8908.686000       0.069025
     8916.629500       0.070951
     8924.587200       0.072898
     8932.559200       0.074865
     8940.545400       0.076854
     8948.545900       0.078863
     8956.560700       0.080893
     8964.589900       0.082944
     8972.633500       0.085015
     8980.691500       0.087108
     8988.764000       0.089222
     8996.851100       0.091356
     9004.952700       0.093512
     9013.068900       0.095689
     9021.199800       0.097887
     9029.345400       0.100106
     9037.505600       0.102347
     9045.680700       0.104609
     9053.870500       0.106893
     9062.075200       0.109198
     9070.294800       0.111526
     9078.529300       0.113874
     9086.778700       0.116245
     9095.043200       0.118638
     9103.322700       0.121053
     9111.617300       0.123490
     9119.927000       0.125949
     9128.251900       0.128431
     9136.592100       0.130935
     9144.947400       0.133462
     9153.318100       0.136011
     9161.704100       0.138582
     9170.105500       0.141177
     9178.522300       0.143795
     9186.954500       0.146435
     9195.402300       0.149098
     9203.865600       0.151785
     9212.344500       0.154494
     9220.839100       0.157227
     9229.349300       0.159983
     9237.875300       0.162762
     9246.417000       0.165565
     9254.974500       0.168391
     9263.547900       0.171241
     9272.137200       0.174114
     9280.742500       0.177011
     9289.363700       0.179931
     9298.000900       0.182876
     9306.654300       0.185843
     9315.323700       0.188835
     9324.009300       0.191850
     9332.711200       0.194889
     9341.429200       0.197952
     9350.163600       0.201038
     9358.914400       0.204148
     9367.681500       0.207282
     9376.465100       0.210440
     9385.265100       0.213621
     9394.081700       0.216826
     9402.914900       0.220054
     9411.764700       0.223307
     9420.631200       0.226583
     9429.514400       0.229882
     9438.414300       0.233205
     9447.331100       0.236551
     9456.264800       0.239920
     9465.215300       0.243313
     9474.182900       0.246729
     9483.167400       0.250168
     9492.169000       0.253630
     9501.187600       0.257115
     9510.223500       0.260623
     9519.276500       0.264154
     9528.346800       0.267707
     9537.434400       0.271282
     9546.539400       0.274880
     9555.661700       0.278500
     9564.801500       0.282142
     9573.958800       0.285806
     9583.133700       0.289492
     9592.326100       0.293199
     9601.536200       0.296928
     9610.764100       0.300678
     9620.009600       0.304449
     9629.273000       0.308241
     9638.554200       0.312054
     9647.853400       0.315887
     9657.170400       0.319740
     9666.505600       0.323613
     9675.858700       0.327507
     9685.230000       0.331419
     9694.619500       0.335351
     9704.027200       0.339302
     9713.453100       0.343273
     9722.897400       0.347262
     9732.360100       0.351268
     9741.841200       0.355294
     9751.340800       0.359337
     9760.859000       0.363397
     9770.395700       0.367475
     9779.951100       0.371570
     9789.525200       0.375682
     9799.118100       0.379810
     9808.729800       0.383954
     9818.360300       0.388114
     9828.009800       0.392289
     9837.678300       0.396479
     9847.365800       0.400685
     9857.072400       0.404904
     9866.798200       0.409138
     9876.543200       0.413386
     9886.307500       0.417647
     9896.091000       0.421922
     9905.894000       0.426209
     9915.716400       0.430508
     9925.558300       0.434819
     9935.419800       0.439143
     9945.300800       0.443477
     9955.201600       0.447822
     9965.122100       0.452178
     9975.062300       0.456544
     9985.022500       0.460920
     9995.002500       0.465305
    10005.002500       0.469699
    10015.022500       0.474102
    10025.062700       0.478512
    10035.122900       0.482930
    10045.203400       0.487356
    10055.304200       0.491789
    10065.425300       0.496227
    10075.566800       0.500672
    10085.728700       0.505123
    10095.911200       0.509579
    10106.114200       0.514039
    10116.337900       0.518504
    10126.582300       0.522972
    10136.847400       0.527444
    10147.133400       0.531920
    10157.440300       0.536397
    10167.768200       0.540876
    10178.117000       0.545357
    10188.487000       0.549840
    10198.878100       0.554323
    10209.290500       0.558806
    10219.724100       0.563289
    10230.179000       0.567771
    10240.655400       0.572252
    10251.153300       0.576732
    10261.672700       0.581209
    10272.213700       0.585684
    10282.776300       0.590156
    10293.360800       0.594624
    10303.967000       0.599089
    10314.595200       0.603549
    10325.245200       0.608003
    10335.917300       0.612453
    10346.611500       0.616897
    10357.327800       0.621334
    10368.066400       0.625765
    10378.827200       0.630188
    10389.610400       0.634604
    10400.416000       0.639011
    10411.244100       0.643410
    10422.094800       0.647799
    10432.968200       0.652179
    10443.864200       0.656548
    10454.783100       0.660907
    10465.724800       0.665255
    10476.689400       0.669592
    10487.677000       0.673916
    10498.687700       0.678228
    10509.721500       0.682527
    10520.778500       0.686812
    10531.858900       0.691084
    10542.962600       0.695341
    10554.089700       0.699584
    10565.240400       0.703811
    10576.414600       0.708022
    10587.612500       0.712217
    10598.834100       0.716396
    10610.079600       0.720557
    10621.348900       0.724701
    10632.642200       0.728827
    10643.959600       0.732935
    10655.301000       0.737023
    10666.666700       0.741092
    10678.056600       0.745142
    10689.470900       0.749171
    10700.909600       0.753180
    10712.372800       0.757167
    10723.860600       0.761133
    10735.373100       0.765078
    10746.910300       0.769000
    10758.472300       0.772899
    10770.059200       0.776775
    10781.671200       0.780627
    10793.308100       0.784455
    10804.970300       0.788259
    10816.657700       0.792039
    10828.370300       0.795793
    10840.108400       0.799521
    10851.871900       0.803224
    10863.661100       0.806900
    10875.475800       0.810549
    10887.316300       0.814172
    10899.182600       0.817767
    10911.074700       0.821334
    10922.992900       0.824873
    10934.937100       0.828383
    10946.907500       0.831865
    10958.904100       0.835317
    10970.927000       0.838740
    10982.976400       0.842133
    10995.052200       0.845496
    11007.154700       0.848828
    11019.283700       0.852129
    11031.439600       0.855399
    11043.622300       0.858638
    11055.832000       0.861844
    11068.068600       0.865019
    11080.332400       0.868161
    11092.623400       0.871270
    11104.941700       0.874347
    11117.287400       0.877390
    11129.660500       0.880400
    11142.061300       0.883376
    11154.489700       0.886317
    11166.945800       0.889225
    11179.429800       0.892098
    11191.941800       0.894936
    11204.481800       0.897739
    11217.049900       0.900507
    11229.646300       0.903239
    11242.270900       0.905936
    11254.924000       0.908597
    11267.605600       0.911221
    11280.315800       0.913809
    11293.054800       0.916361
    11305.822500       0.918876
    11318.619100       0.921354
    11331.444800       0.923795
    11344.299500       0.926198
    11357.183400       0.928565
    11370.096600       0.930894
    11383.039300       0.933185
    11396.011400       0.935438
    11409.013100       0.937653
    11422.044500       0.939830
    11435.105800       0.941969
    11448.196900       0.944069
    11461.318100       0.946131
    11474.469300       0.948155
    11487.650800       0.950140
    11500.862600       0.952086
    11514.104800       0.953993
    11527.377500       0.955861
    11540.680900       0.957691
    11554.015000       0.959481
    11567.380000       0.961232
    11580.775900       0.962944
    11594.202900       0.964617
    11607.661100       0.966251
    11621.150500       0.967845
    11634.671300       0.969400
    11648.223600       0.970916
    11661.807600       0.972393
    11675.423200       0.973830
    11689.070700       0.975228
    11702.750100       0.976586
    11716.461600       0.977906
    11730.205300       0.979186
    11743.981200       0.980427
    11757.789500       0.981629
    11771.630400       0.982792
    11785.503800       0.983915
    11799.410000       0.985000
    11813.349100       0.986046
    11827.321100       0.987053
    11841.326200       0.988021
    11855.364600       0.988950
    11869.436200       0.989841
    11883.541300       0.990694
    11897.680000       0.991508
    11911.852300       0.992283
    11926.058400       0.993021
    11940.298500       0.993720
    11954.572600       0.994382
    11968.880900       0.995006
    11983.223500       0.995592
    11997.600500       0.996141
    12012.012000       0.996652
    12026.458200       0.997127
    12040.939200       0.997564
    12055.455100       0.997965
    12070.006000       0.998329
    12084.592100       0.998656
    12099.213600       0.998948
    12113.870400       0.999203
    12128.562800       0.999422
    12143.290800       0.999606
    12158.054700       0.999755
    12172.854500       0.999868
    12187.690400       0.999947
    12202.562500       0.999991
    12217.471000       1.000000
    12232.415900       0.999975
    12247.397400       0.999916
    12262.415700       0.999824
    12277.470800       0.999698
    12292.563000       0.999539
    12307.692300       0.999347
    12322.858900       0.999123
    12338.062900       0.998866
    12353.304500       0.998577
    12368.583800       0.998257
    12383.900900       0.997905
    12399.256000       0.997522
    12414.649300       0.997108
    12430.080800       0.996664
    12445.550700       0.996189
    12461.059200       0.995685
    12476.606400       0.995151
    12492.192400       0.994588
    12507.817400       0.993997
    12523.481500       0.993376
    12539.185000       0.992728
    12554.927800       0.992052
    12570.710200       0.991348
    12586.532400       0.990618
    12602.394500       0.989860
    12618.296500       0.989077
    12634.238800       0.988267
    12650.221400       0.987432
    12666.244500       0.986572
    12682.308200       0.985687
    12698.412700       0.984777
    12714.558200       0.983843
    12730.744700       0.982886
    12746.972600       0.981906
    12763.241900       0.980902
    12779.552700       0.979877
    12795.905300       0.978829
    12812.299800       0.977759
    12828.736400       0.976669
    12845.215200       0.975557
    12861.736300       0.974425
    12878.300100       0.973274
    12894.906500       0.972102
    12911.555800       0.970912
    12928.248200       0.969703
    12944.983800       0.968476
    12961.762800       0.967231
    12978.585300       0.965968
    12995.451600       0.964689
    13012.361700       0.963393
    13029.316000       0.962081
    13046.314400       0.960753
    13063.357300       0.959410
    13080.444700       0.958053
    13097.576900       0.956681
    13114.754100       0.955295
    13131.976400       0.953896
    13149.243900       0.952484
    13166.556900       0.951060
    13183.915600       0.949623
    13201.320100       0.948175
    13218.770700       0.946716
    13236.267400       0.945246
    13253.810500       0.943765
    13271.400100       0.942275
    13289.036500       0.940776
    13306.719900       0.939268
    13324.450400       0.937751
    13342.228200       0.936226
    13360.053400       0.934694
    13377.926400       0.933154
    13395.847300       0.931608
    13413.816200       0.930056
    13431.833400       0.928498
    13449.899100       0.926935
    13468.013500       0.925367
    13486.176700       0.923795
    13504.388900       0.922219
    13522.650400       0.920639
    13540.961400       0.919056
    13559.322000       0.917470
    13577.732500       0.915883
    13596.193100       0.914293
    13614.703900       0.912703
    13633.265200       0.911111
    13651.877100       0.909519
    13670.540000       0.907927
    13689.253900       0.906336
    13708.019200       0.904745
    13726.836000       0.903156
    13745.704500       0.901568
    13764.624900       0.899982
    13783.597500       0.898399
    13802.622500       0.896819
    13821.700100       0.895242
    13840.830400       0.893669
    13860.013900       0.892101
    13879.250500       0.890536
    13898.540700       0.888977
    13917.884500       0.887423
    13937.282200       0.885875
    13956.734100       0.884333
    13976.240400       0.882797
    13995.801300       0.881269
    14015.417000       0.879748
    14035.087700       0.878234
    14054.813800       0.876728
    14074.595400       0.875231
    14094.432700       0.873742
    14114.326000       0.872263
    14134.275600       0.870793
    14154.281700       0.869332
    14174.344400       0.867882
    14194.464200       0.866442
    14214.641100       0.865013
    14234.875400       0.863595
    14255.167500       0.862189
    14275.517500       0.860794
    14295.925700       0.859411
    14316.392300       0.858041
    14336.917600       0.856683
    14357.501800       0.855338
    14378.145200       0.854007
    14398.848100       0.852688
    14419.610700       0.851384
    14440.433200       0.850094
    14461.316000       0.848817
    14482.259200       0.847556
    14503.263200       0.846309
    14524.328200       0.845077
    14545.454500       0.843861
    14566.642400       0.842660
    14587.892000       0.841475
    14609.203800       0.840305
    14630.577900       0.839152
    14652.014700       0.838015
    14673.514300       0.836895
    14695.077100       0.835791
    14716.703500       0.834705
    14738.393500       0.833635
    14760.147600       0.832583
    14781.966000       0.831548
    14803.849000       0.830530
    14825.796900       0.829530
    14847.809900       0.828549
    14869.888500       0.827585
    14892.032800       0.826639
    14914.243100       0.825711
    14936.519800       0.824802
    14958.863100       0.823911
    14981.273400       0.823038
    15003.750900       0.822184
    15026.296000       0.821349
    15048.909000       0.820532
    15071.590100       0.819734
    15094.339600       0.818955
    15117.158000       0.818195
    15140.045400       0.817454
    15163.002300       0.816732
    15186.028900       0.816028
    15209.125500       0.815343
    15232.292500       0.814678
    15255.530100       0.814031
    15278.838800       0.813403
    15302.218800       0.812794
    15325.670500       0.812204
    15349.194200       0.811632
    15372.790200       0.811080
    15396.458800       0.810546
    15420.200500       0.810030
    15444.015400       0.809533
    15467.904100       0.809055
    15491.866800       0.808595
    15515.903800       0.808152
    15540.015500       0.807729
    15564.202300       0.807323
    15588.464500       0.806934
    15612.802500       0.806564
    15637.216600       0.806211
    15661.707100       0.805875
    15686.274500       0.805557
    15710.919100       0.805255
    15735.641200       0.804971
    15760.441300       0.804703
    15785.319700       0.804451
    15810.276700       0.804216
    15835.312700       0.803996
    15860.428200       0.803793
    15885.623500       0.803604
    15910.899000       0.803431
    15936.255000       0.803273
    15961.691900       0.803130
    15987.210200       0.803001
    16012.810200       0.802886
    16038.492400       0.802785
    16064.257000       0.802698
    16090.104600       0.802624
    16116.035500       0.802562
    16142.050000       0.802513
    16168.148700       0.802476
    16194.332000       0.802451
    16220.600200       0.802438
    16246.953700       0.802436
    16273.393000       0.802444
    16299.918500       0.802463
    16326.530600       0.802491
    16353.229800       0.802529
    16380.016400       0.802576
    16406.890900       0.802632
    16433.853700       0.802696
    16460.905300       0.802768
    16488.046200       0.802847
    16515.276600       0.802933
    16542.597200       0.803026
    16570.008300       0.803124
    16597.510400       0.803228
    16625.103900       0.803337
    16652.789300       0.803450
    16680.567100       0.803568
    16708.437800       0.803689
    16736.401700       0.803812
    16764.459300       0.803938
    16792.611300       0.804066
    16820.857900       0.804195
    16849.199700       0.804325
    16877.637100       0.804455
    16906.170800       0.804585
    16934.801000       0.804714
    16963.528400       0.804841
    16992.353400       0.804966
    17021.276600       0.805088
    17050.298400       0.805207
    17079.419300       0.805323
    17108.639900       0.805433
    17137.960600       0.805538
    17167.382000       0.805638
    17196.904600       0.805731
    17226.528900       0.805817
    17256.255400       0.805895
    17286.084700       0.805965
    17316.017300       0.806025
    17346.053800       0.806076
    17376.194600       0.806117
    17406.440400       0.806146
    17436.791600       0.806164
    17467.248900       0.806169
    17497.812800       0.806162
    17528.483800       0.806140
    17559.262500       0.806104
    17590.149500       0.806052
    17621.145400       0.805985
    17652.250700       0.805901
    17683.466000       0.805799
    17714.791900       0.805680
    17746.228900       0.805541
    17777.777800       0.805383
    17809.439000       0.805205
    17841.213200       0.805006
    17873.101000       0.804785
    17905.103000       0.804541
    17937.219700       0.804274
    17969.451900       0.803983
    18001.800200       0.803668
    18034.265100       0.803327
    18066.847300       0.802960
    18099.547500       0.802566
    18132.366300       0.802144
    18165.304300       0.801693
    18198.362100       0.801214
    18231.540600       0.800704
    18264.840200       0.800164
    18298.261700       0.799592
    18331.805700       0.798987
    18365.472900       0.798350
    18399.264000       0.797679
    18433.179700       0.796974
    18467.220700       0.796233
    18501.387600       0.795457
    18535.681200       0.794643
    18570.102100       0.793792
    18604.651200       0.792903
    18639.329000       0.791974
    18674.136300       0.791006
    18709.073900       0.789998
    18744.142500       0.788948
    18779.342700       0.787857
    18814.675400       0.786722
    18850.141400       0.785545
    18885.741300       0.784323
    18921.475900       0.783056
    18957.346000       0.781744
    18993.352300       0.780386
    19029.495700       0.778980
    19065.776900       0.777527
    19102.196800       0.776026
    19138.756000       0.774476
    19175.455400       0.772876
    19212.295900       0.771226
    19249.278200       0.769525
    19286.403100       0.767772
    19323.671500       0.765967
    19361.084200       0.764109
    19398.642100       0.762198
    19436.346000       0.760232
    19474.196700       0.758211
    19512.195100       0.756136
    19550.342100       0.754004
    19588.638600       0.751816
    19627.085400       0.749570
    19665.683400       0.747267
    19704.433500       0.744906
    19743.336600       0.742487
    19782.393700       0.740007
    19821.605600       0.737468
    19860.973200       0.734869
    19900.497500       0.732210
    19940.179500       0.729489
    19980.020000       0.726706
    20020.020000       0.723861
    20060.180500       0.720954
    20100.502500       0.717984
    20140.986900       0.714950
    20181.634700       0.711853
    20222.446900       0.708692
    20263.424500       0.705466
    20304.568500       0.702176
    20345.880000       0.698821
    20387.359800       0.695400
    20429.009200       0.691913
    20470.829100       0.688361
    20512.820500       0.684743
    20554.984600       0.681058
    20597.322300       0.677307
    20639.834900       0.673489
    20682.523300       0.669605
    20725.388600       0.665653
    20768.432000       0.661634
    20811.654500       0.657548
    20855.057400       0.653395
    20898.641600       0.649174
    20942.408400       0.644886
    20986.358900       0.640531
    21030.494200       0.636109
    21074.815600       0.631619
    21119.324200       0.627062
    21164.021200       0.622438
    21208.907700       0.617747
    21253.985100       0.612989
    21299.254500       0.608165
    21344.717200       0.603274
    21390.374300       0.598317
    21436.227200       0.593295
    21482.277100       0.588206
    21528.525300       0.583053
    21574.973000       0.577834
    21621.621600       0.572551
    21668.472400       0.567204
    21715.526600       0.561793
    21762.785600       0.556320
    21810.250800       0.550783
    21857.923500       0.545184
    21905.805000       0.539524
    21953.896800       0.533803
    22002.200200       0.528022
    22050.716600       0.522181
    22099.447500       0.516281
    22148.394200       0.510323
    22197.558300       0.504308
    22246.941000       0.498236
    22296.544000       0.492109
    22346.368700       0.485927
    22396.416600       0.479691
    22446.689100       0.473403
    22497.187900       0.467063
    22547.914300       0.460672
    22598.870100       0.454231
    22650.056600       0.447743
    22701.475600       0.441206
    22753.128600       0.434624
    22805.017100       0.427997
    22857.142900       0.421327
    22909.507400       0.414615
    22962.112500       0.407862
    23014.959700       0.401070
    23068.050700       0.394240
    23121.387300       0.387375
    23174.971000       0.380474
    23228.803700       0.373541
    23282.887100       0.366577
    23337.222900       0.359583
    23391.812900       0.352561
    23446.658900       0.345514
    23501.762600       0.338442
    23557.126000       0.331349
    23612.750900       0.324236
    23668.639100       0.317104
    23724.792400       0.309957
    23781.212800       0.302796
    23837.902300       0.295624
    23894.862600       0.288442
    23952.095800       0.281253
    24009.603800       0.274060
    24067.388700       0.266865
    24125.452400       0.259670
    24183.796900       0.252478
    24242.424200       0.245291
    24301.336600       0.238112
    24360.535900       0.230945
    24420.024400       0.223791
    24479.804200       0.216653
    24539.877300       0.209535
    24600.246000       0.202439
    24660.912500       0.195368
    24721.878900       0.188326
    24783.147500       0.181316
    24844.720500       0.174340
    24906.600200       0.167403
    24968.789000       0.160507
    25031.289100       0.153655
    25094.102900       0.146852
    25157.232700       0.140101
    25220.681000       0.133406
    25284.450100       0.126769
    25348.542500       0.120196
    25412.960600       0.113689
    25477.707000       0.107253
