6,    channel 6 : SRF extracted from ECA_EXAA_AUX_CC35_M_00000000T000000Z_99999999T999999Z_0001.nc (January 2022)
Number of data points:
320
Wavenumber (cm-1)   Filter response
      795.545000       0.000016
      796.178300       0.000018
      796.812700       0.000019
      797.448200       0.000021
      798.084600       0.000022
      798.722000       0.000023
      799.360500       0.000024
      800.000000       0.000025
      800.640500       0.000026
      801.282100       0.000026
      801.924600       0.000026
      802.568200       0.000025
      803.212900       0.000024
      803.858500       0.000022
      804.505200       0.000020
      805.153000       0.000017
      805.801800       0.000015
      806.451700       0.000013
      807.102500       0.000012
      807.754500       0.000011
      808.407500       0.000010
      809.061500       0.000010
      809.716600       0.000010
      810.372700       0.000011
      811.030000       0.000011
      811.688400       0.000012
      812.347700       0.000013
      813.008100       0.000013
      813.669700       0.000014
      814.332300       0.000014
      814.995900       0.000015
      815.660600       0.000015
      816.326500       0.000016
      816.993500       0.000017
      817.661500       0.000018
      818.330600       0.000019
      819.000800       0.000021
      819.672100       0.000022
      820.344500       0.000024
      821.018100       0.000027
      821.692700       0.000029
      822.368400       0.000031
      823.045300       0.000033
      823.723200       0.000034
      824.402300       0.000035
      825.082500       0.000036
      825.763900       0.000039
      826.446200       0.000042
      827.129800       0.000046
      827.814600       0.000050
      828.500400       0.000052
      829.187400       0.000052
      829.875500       0.000049
      830.564800       0.000045
      831.255200       0.000041
      831.946700       0.000038
      832.639500       0.000037
      833.333300       0.000038
      834.028400       0.000039
      834.724500       0.000041
      835.421900       0.000042
      836.120400       0.000044
      836.820100       0.000047
      837.521000       0.000049
      838.223000       0.000051
      838.926100       0.000051
      839.630600       0.000049
      840.336200       0.000044
      841.042800       0.000036
      841.750900       0.000027
      842.460000       0.000017
      843.170300       0.000007
      843.881800       0.000001
      844.594600       0.000007
      845.308500       0.000010
      846.023700       0.000011
      846.740000       0.000011
      847.457600       0.000012
      848.176500       0.000014
      848.896500       0.000020
      849.617600       0.000030
      850.340100       0.000045
      851.063800       0.000065
      851.788800       0.000090
      852.515000       0.000121
      853.242300       0.000157
      853.970900       0.000199
      854.700900       0.000249
      855.432000       0.000307
      856.164400       0.000376
      856.898000       0.000455
      857.632900       0.000547
      858.369100       0.000651
      859.106500       0.000771
      859.845200       0.000910
      860.585200       0.001062
      861.326500       0.001241
      862.068900       0.001446
      862.812700       0.001681
      863.557900       0.001966
      864.304300       0.002298
      865.051900       0.002695
      865.800800       0.003187
      866.551100       0.003778
      867.302700       0.004531
      868.055500       0.005494
      868.809700       0.006708
      869.565200       0.008299
      870.322000       0.010326
      871.080200       0.012912
      871.839500       0.016252
      872.600300       0.020508
      873.362500       0.025944
      874.125900       0.032812
      874.890600       0.041369
      875.656700       0.052018
      876.424200       0.065080
      877.193000       0.080943
      877.963100       0.100050
      878.734600       0.122830
      879.507500       0.149730
      880.281700       0.181160
      881.057300       0.217420
      881.834200       0.258580
      882.612500       0.304430
      883.392300       0.354670
      884.173300       0.408530
      884.955700       0.464680
      885.739600       0.522420
      886.524800       0.579950
      887.311400       0.635950
      888.099400       0.688700
      888.888900       0.737700
      889.679700       0.781980
      890.472000       0.820770
      891.265600       0.854220
      892.060700       0.882800
      892.857200       0.906280
      893.655100       0.925850
      894.454300       0.941660
      895.255100       0.954260
      896.057400       0.964280
      896.861000       0.971790
      897.666000       0.977740
      898.472600       0.981940
      899.280600       0.984670
      900.090000       0.986500
      900.900900       0.988270
      901.713300       0.989370
      902.527100       0.990420
      903.342400       0.991280
      904.159100       0.991840
      904.977400       0.992300
      905.797100       0.992770
      906.618300       0.993070
      907.441000       0.993100
      908.265200       0.992740
      909.090900       0.991850
      909.918200       0.990770
      910.746800       0.989420
      911.577000       0.988000
      912.408800       0.986460
      913.242000       0.984790
      914.076800       0.983100
      914.913100       0.981300
      915.750900       0.979410
      916.590300       0.977130
      917.431200       0.974880
      918.273600       0.972860
      919.117600       0.971200
      919.963200       0.970560
      920.810400       0.970480
      921.658900       0.970580
      922.509200       0.970470
      923.361000       0.970450
      924.214400       0.970850
      925.069300       0.971430
      925.925900       0.972360
      926.784100       0.973660
      927.643800       0.975610
      928.505100       0.977500
      929.368000       0.979140
      930.232500       0.980750
      931.098700       0.982660
      931.966500       0.984410
      932.835800       0.986720
      933.706800       0.988900
      934.579500       0.991150
      935.453700       0.993400
      936.329600       0.995440
      937.207100       0.997060
      938.086300       0.998160
      938.967200       0.999370
      939.849600       0.999900
      940.733800       1.000000
      941.619600       0.999700
      942.507100       0.999470
      943.396200       0.999380
      944.287000       0.999260
      945.179600       0.998930
      946.073800       0.998530
      946.969700       0.997670
      947.867300       0.996490
      948.766600       0.994970
      949.667700       0.993830
      950.570300       0.993160
      951.474800       0.992490
      952.381000       0.991520
      953.288900       0.990070
      954.198500       0.988310
      955.109800       0.986550
      956.022900       0.984190
      956.937800       0.980830
      957.854400       0.977660
      958.772800       0.974160
      959.692900       0.970630
      960.614800       0.966360
      961.538500       0.960800
      962.463900       0.954070
      963.391100       0.945910
      964.320200       0.935840
      965.251000       0.923610
      966.183500       0.908290
      967.118000       0.889220
      968.054200       0.865840
      968.992200       0.836650
      969.932100       0.802060
      970.873800       0.762200
      971.817300       0.717570
      972.762700       0.668470
      973.709800       0.615650
      974.658900       0.560550
      975.609700       0.504620
      976.562500       0.449440
      977.517200       0.396460
      978.473600       0.346880
      979.431900       0.301400
      980.392200       0.260420
      981.354300       0.224090
      982.318200       0.192380
      983.284200       0.164920
      984.252000       0.141420
      985.221700       0.121280
      986.193200       0.104090
      987.166800       0.089428
      988.142300       0.076938
      989.119700       0.066338
      990.099000       0.057338
      991.080300       0.049724
      992.063500       0.043245
      993.048700       0.037715
      994.035800       0.032952
      995.024800       0.028775
      996.015900       0.025118
      997.009000       0.021926
      998.004000       0.019130
      999.001000       0.016699
     1000.000000       0.014604
     1001.001000       0.012780
     1002.004000       0.011175
     1003.009000       0.009761
     1004.016100       0.008541
     1005.025100       0.007479
     1006.036300       0.006563
     1007.049300       0.005749
     1008.064500       0.005009
     1009.081700       0.004312
     1010.101100       0.003666
     1011.122300       0.003094
     1012.145800       0.002617
     1013.171300       0.002231
     1014.198800       0.001908
     1015.228400       0.001615
     1016.260100       0.001339
     1017.294000       0.001089
     1018.330000       0.000875
     1019.367900       0.000699
     1020.408100       0.000557
     1021.450400       0.000447
     1022.494900       0.000368
     1023.541400       0.000315
     1024.590100       0.000274
     1025.641000       0.000231
     1026.694100       0.000183
     1027.749300       0.000142
     1028.806500       0.000117
     1029.866100       0.000102
     1030.927900       0.000073
     1031.991800       0.000012
     1033.057900       0.000078
     1034.126100       0.000173
     1035.196700       0.000244
     1036.269500       0.000280
     1037.344400       0.000289
     1038.421600       0.000287
     1039.501100       0.000274
     1040.582800       0.000251
     1041.666600       0.000223
     1042.752800       0.000197
     1043.841300       0.000176
     1044.932100       0.000146
     1046.025000       0.000104
     1047.120400       0.000060
     1048.218000       0.000033
     1049.318000       0.000033
     1050.420200       0.000052
     1051.524700       0.000075
     1052.631600       0.000091
     1053.740800       0.000096
     1054.852400       0.000091
     1055.966200       0.000076
     1057.082400       0.000054
     1058.201000       0.000032
     1059.322000       0.000014
     1060.445300       0.000004
     1061.571200       0.000002
     1062.699200       0.000006
     1063.829800       0.000011
     1064.962600       0.000015
     1066.098000       0.000017
