          13  , Jan 12th 2012 http://fy3.satellite.cma.gov.cn/ArssEn/Download/FY3A_calibration_info_params.rar
Number of data points:
860
Wavenumber (cm-1)   Filter response
     1315.443000       0.000037
     1315.790000       0.000216
     1316.136000       0.000359
     1316.482000       0.000472
     1316.829000       0.000608
     1317.176000       0.000827
     1317.523000       0.001123
     1317.870000       0.001433
     1318.218000       0.001665
     1318.565000       0.001729
     1318.913000       0.001654
     1319.261000       0.001522
     1319.609000       0.001428
     1319.958000       0.001374
     1320.306000       0.001371
     1320.655000       0.001400
     1321.004000       0.001461
     1321.353000       0.001538
     1321.702000       0.001584
     1322.052000       0.001542
     1322.401000       0.001366
     1322.751000       0.001070
     1323.101000       0.000743
     1323.452000       0.000468
     1323.802000       0.000338
     1324.153000       0.000384
     1324.503000       0.000578
     1324.854000       0.000884
     1325.205000       0.001260
     1325.557000       0.001668
     1325.908000       0.002080
     1326.260000       0.002484
     1326.612000       0.002869
     1326.964000       0.003147
     1327.316000       0.003309
     1327.669000       0.003331
     1328.021000       0.003217
     1328.374000       0.002985
     1328.727000       0.002674
     1329.080000       0.002317
     1329.434000       0.001949
     1329.787000       0.001591
     1330.141000       0.001309
     1330.495000       0.001127
     1330.849000       0.001061
     1331.203000       0.001095
     1331.558000       0.001156
     1331.913000       0.001180
     1332.267000       0.001176
     1332.623000       0.001174
     1332.978000       0.001202
     1333.333000       0.001261
     1333.689000       0.001317
     1334.045000       0.001335
     1334.401000       0.001348
     1334.757000       0.001405
     1335.114000       0.001508
     1335.470000       0.001591
     1335.827000       0.001590
     1336.184000       0.001433
     1336.541000       0.001169
     1336.898000       0.000887
     1337.256000       0.000699
     1337.614000       0.000653
     1337.972000       0.000732
     1338.330000       0.000849
     1338.688000       0.000911
     1339.047000       0.000869
     1339.405000       0.000772
     1339.764000       0.000724
     1340.123000       0.000842
     1340.483000       0.001134
     1340.842000       0.001596
     1341.202000       0.002092
     1341.562000       0.002500
     1341.922000       0.002745
     1342.282000       0.002788
     1342.642000       0.002666
     1343.003000       0.002458
     1343.364000       0.002251
     1343.725000       0.002082
     1344.086000       0.001916
     1344.447000       0.001758
     1344.809000       0.001654
     1345.171000       0.001711
     1345.533000       0.001937
     1345.895000       0.002209
     1346.257000       0.002349
     1346.620000       0.002208
     1346.983000       0.001788
     1347.346000       0.001241
     1347.709000       0.000752
     1348.072000       0.000424
     1348.436000       0.000285
     1348.800000       0.000263
     1349.163000       0.000289
     1349.528000       0.000351
     1349.892000       0.000455
     1350.256000       0.000652
     1350.621000       0.000925
     1350.986000       0.001240
     1351.351000       0.001506
     1351.717000       0.001675
     1352.082000       0.001740
     1352.448000       0.001761
     1352.814000       0.001785
     1353.180000       0.001842
     1353.546000       0.001896
     1353.913000       0.001886
     1354.280000       0.001800
     1354.646000       0.001649
     1355.014000       0.001481
     1355.381000       0.001301
     1355.748000       0.001086
     1356.116000       0.000827
     1356.484000       0.000561
     1356.852000       0.000394
     1357.220000       0.000412
     1357.589000       0.000645
     1357.958000       0.001013
     1358.327000       0.001434
     1358.696000       0.001783
     1359.065000       0.001984
     1359.434000       0.001987
     1359.804000       0.001803
     1360.174000       0.001492
     1360.544000       0.001177
     1360.915000       0.000948
     1361.285000       0.000854
     1361.656000       0.000869
     1362.027000       0.000935
     1362.398000       0.001009
     1362.769000       0.001111
     1363.141000       0.001267
     1363.512000       0.001475
     1363.884000       0.001673
     1364.256000       0.001797
     1364.629000       0.001808
     1365.001000       0.001736
     1365.374000       0.001679
     1365.747000       0.001747
     1366.120000       0.001986
     1366.494000       0.002330
     1366.867000       0.002663
     1367.241000       0.002852
     1367.615000       0.002818
     1367.989000       0.002561
     1368.363000       0.002182
     1368.738000       0.001811
     1369.113000       0.001564
     1369.488000       0.001455
     1369.863000       0.001442
     1370.238000       0.001372
     1370.614000       0.001401
     1370.990000       0.001487
     1371.366000       0.001713
     1371.742000       0.002026
     1372.119000       0.002323
     1372.495000       0.002498
     1372.872000       0.002563
     1373.249000       0.002605
     1373.626000       0.002723
     1374.004000       0.002944
     1374.381000       0.003104
     1374.759000       0.003169
     1375.138000       0.003164
     1375.516000       0.003148
     1375.894000       0.003154
     1376.273000       0.003202
     1376.652000       0.003277
     1377.031000       0.003380
     1377.410000       0.003493
     1377.790000       0.003609
     1378.170000       0.003620
     1378.550000       0.003522
     1378.930000       0.003332
     1379.310000       0.003119
     1379.691000       0.002942
     1380.072000       0.002875
     1380.453000       0.002954
     1380.834000       0.003183
     1381.215000       0.003503
     1381.597000       0.003801
     1381.979000       0.003906
     1382.361000       0.003805
     1382.743000       0.003556
     1383.126000       0.003300
     1383.509000       0.003144
     1383.891000       0.003143
     1384.275000       0.003260
     1384.658000       0.003418
     1385.042000       0.003544
     1385.425000       0.003628
     1385.809000       0.003595
     1386.193000       0.003486
     1386.578000       0.003320
     1386.963000       0.003126
     1387.347000       0.002940
     1387.732000       0.002783
     1388.118000       0.002678
     1388.503000       0.002636
     1388.889000       0.002657
     1389.275000       0.002771
     1389.661000       0.002903
     1390.047000       0.003069
     1390.434000       0.003227
     1390.821000       0.003330
     1391.208000       0.003340
     1391.595000       0.003262
     1391.982000       0.003148
     1392.370000       0.003053
     1392.758000       0.002981
     1393.146000       0.002935
     1393.534000       0.002798
     1393.922000       0.002616
     1394.311000       0.002508
     1394.700000       0.002665
     1395.089000       0.003235
     1395.479000       0.004101
     1395.868000       0.004968
     1396.258000       0.005540
     1396.648000       0.005685
     1397.038000       0.005515
     1397.429000       0.005139
     1397.819000       0.004773
     1398.210000       0.004493
     1398.601000       0.004287
     1398.993000       0.004185
     1399.384000       0.004198
     1399.776000       0.004265
     1400.168000       0.004298
     1400.560000       0.004252
     1400.953000       0.004221
     1401.345000       0.004278
     1401.738000       0.004508
     1402.131000       0.004862
     1402.525000       0.005206
     1402.918000       0.005441
     1403.312000       0.005545
     1403.706000       0.005532
     1404.100000       0.005470
     1404.494000       0.005450
     1404.889000       0.005570
     1405.284000       0.005721
     1405.679000       0.005829
     1406.074000       0.005820
     1406.470000       0.005688
     1406.866000       0.005552
     1407.261000       0.005490
     1407.658000       0.005526
     1408.054000       0.005602
     1408.451000       0.005665
     1408.848000       0.005617
     1409.245000       0.005801
     1409.642000       0.006082
     1410.039000       0.006412
     1410.437000       0.006674
     1410.835000       0.006755
     1411.233000       0.006557
     1411.632000       0.006092
     1412.031000       0.005497
     1412.429000       0.005034
     1412.828000       0.004911
     1413.228000       0.005118
     1413.627000       0.005546
     1414.027000       0.005985
     1414.427000       0.006281
     1414.827000       0.006447
     1415.228000       0.006585
     1415.629000       0.006779
     1416.030000       0.006994
     1416.431000       0.007040
     1416.832000       0.006873
     1417.234000       0.006449
     1417.635000       0.006124
     1418.037000       0.006146
     1418.440000       0.006546
     1418.842000       0.007187
     1419.245000       0.007815
     1419.648000       0.008181
     1420.051000       0.008211
     1420.455000       0.008102
     1420.858000       0.008063
     1421.262000       0.007975
     1421.666000       0.007928
     1422.071000       0.007885
     1422.475000       0.007822
     1422.880000       0.007722
     1423.285000       0.007611
     1423.690000       0.007519
     1424.096000       0.007494
     1424.501000       0.007549
     1424.907000       0.007662
     1425.314000       0.007692
     1425.720000       0.007658
     1426.127000       0.007601
     1426.533000       0.007588
     1426.941000       0.007712
     1427.348000       0.007971
     1427.755000       0.008266
     1428.163000       0.008469
     1428.571000       0.008560
     1428.980000       0.008695
     1429.388000       0.008942
     1429.797000       0.009263
     1430.206000       0.009435
     1430.615000       0.009256
     1431.025000       0.008852
     1431.434000       0.008506
     1431.844000       0.008350
     1432.254000       0.008431
     1432.665000       0.008655
     1433.075000       0.008944
     1433.486000       0.009119
     1433.897000       0.009177
     1434.309000       0.009205
     1434.720000       0.009348
     1435.132000       0.009664
     1435.544000       0.010096
     1435.956000       0.010432
     1436.369000       0.010461
     1436.782000       0.010148
     1437.195000       0.009919
     1437.608000       0.009798
     1438.021000       0.009825
     1438.435000       0.009905
     1438.849000       0.010046
     1439.263000       0.010276
     1439.677000       0.010680
     1440.092000       0.011235
     1440.507000       0.011805
     1440.922000       0.012224
     1441.338000       0.012543
     1441.753000       0.012494
     1442.169000       0.012313
     1442.585000       0.012125
     1443.001000       0.012052
     1443.418000       0.012082
     1443.835000       0.012194
     1444.252000       0.012351
     1444.669000       0.012549
     1445.087000       0.012819
     1445.504000       0.013286
     1445.922000       0.013704
     1446.341000       0.014099
     1446.759000       0.014384
     1447.178000       0.014538
     1447.597000       0.014630
     1448.016000       0.014834
     1448.436000       0.015284
     1448.855000       0.015905
     1449.275000       0.016485
     1449.696000       0.016206
     1450.116000       0.016320
     1450.537000       0.016211
     1450.958000       0.016089
     1451.379000       0.016165
     1451.800000       0.016417
     1452.222000       0.016642
     1452.644000       0.016756
     1453.066000       0.016981
     1453.488000       0.017565
     1453.911000       0.018559
     1454.334000       0.019526
     1454.757000       0.020310
     1455.180000       0.020674
     1455.604000       0.020699
     1456.028000       0.020556
     1456.452000       0.020523
     1456.876000       0.021027
     1457.301000       0.022253
     1457.726000       0.023771
     1458.151000       0.025463
     1458.576000       0.025823
     1459.002000       0.025576
     1459.428000       0.025102
     1459.854000       0.024840
     1460.280000       0.025048
     1460.707000       0.025597
     1461.134000       0.026172
     1461.561000       0.026519
     1461.988000       0.026624
     1462.416000       0.026824
     1462.844000       0.027337
     1463.272000       0.028217
     1463.700000       0.029212
     1464.129000       0.030018
     1464.558000       0.030464
     1464.987000       0.030564
     1465.416000       0.030523
     1465.846000       0.030516
     1466.276000       0.030817
     1466.706000       0.031511
     1467.136000       0.032271
     1467.567000       0.033129
     1467.998000       0.033923
     1468.429000       0.034617
     1468.860000       0.035349
     1469.292000       0.036182
     1469.724000       0.037041
     1470.156000       0.038011
     1470.588000       0.039008
     1471.021000       0.040651
     1471.454000       0.042160
     1471.887000       0.043956
     1472.320000       0.045756
     1472.754000       0.047407
     1473.188000       0.048848
     1473.622000       0.049980
     1474.057000       0.050521
     1474.491000       0.050946
     1474.926000       0.051446
     1475.361000       0.052533
     1475.797000       0.053931
     1476.233000       0.056011
     1476.669000       0.058338
     1477.105000       0.060280
     1477.541000       0.061609
     1477.978000       0.062384
     1478.415000       0.063215
     1478.852000       0.064304
     1479.290000       0.065714
     1479.728000       0.067698
     1480.166000       0.069517
     1480.604000       0.071408
     1481.043000       0.073360
     1481.481000       0.075448
     1481.921000       0.077714
     1482.360000       0.079798
     1482.800000       0.081785
     1483.239000       0.083868
     1483.680000       0.086129
     1484.120000       0.089441
     1484.561000       0.091967
     1485.001000       0.094497
     1485.443000       0.097165
     1485.884000       0.099895
     1486.326000       0.102789
     1486.768000       0.106454
     1487.210000       0.111333
     1487.652000       0.116898
     1488.095000       0.122099
     1488.538000       0.128495
     1488.982000       0.132617
     1489.425000       0.136600
     1489.869000       0.141296
     1490.313000       0.146521
     1490.757000       0.151879
     1491.202000       0.157113
     1491.647000       0.162043
     1492.092000       0.166614
     1492.537000       0.171235
     1492.983000       0.147368
     1493.429000       0.156671
     1493.875000       0.166636
     1494.322000       0.176554
     1494.768000       0.186327
     1495.215000       0.196576
     1495.663000       0.208503
     1496.110000       0.222866
     1496.558000       0.238643
     1497.006000       0.253158
     1497.454000       0.265986
     1497.903000       0.271442
     1498.352000       0.278302
     1498.801000       0.287621
     1499.250000       0.298061
     1499.700000       0.307511
     1500.150000       0.316058
     1500.600000       0.324839
     1501.051000       0.335523
     1501.502000       0.347066
     1501.953000       0.368618
     1502.404000       0.380470
     1502.855000       0.392026
     1503.307000       0.403182
     1503.759000       0.413647
     1504.212000       0.423376
     1504.664000       0.434300
     1505.117000       0.448286
     1505.571000       0.464308
     1506.024000       0.482345
     1506.478000       0.511912
     1506.932000       0.532841
     1507.386000       0.551221
     1507.841000       0.566020
     1508.296000       0.578898
     1508.751000       0.584492
     1509.206000       0.590193
     1509.662000       0.596516
     1510.118000       0.602350
     1510.574000       0.607007
     1511.031000       0.628700
     1511.487000       0.631641
     1511.944000       0.635479
     1512.402000       0.639747
     1512.859000       0.642843
     1513.317000       0.644081
     1513.775000       0.643959
     1514.234000       0.643348
     1514.693000       0.642946
     1515.151000       0.642847
     1515.611000       0.660473
     1516.070000       0.660562
     1516.530000       0.668761
     1516.990000       0.676551
     1517.451000       0.682971
     1517.911000       0.687735
     1518.372000       0.691853
     1518.833000       0.696370
     1519.295000       0.701859
     1519.757000       0.708393
     1520.219000       0.733655
     1520.681000       0.740688
     1521.144000       0.746272
     1521.607000       0.749466
     1522.070000       0.750884
     1522.534000       0.751920
     1522.997000       0.753533
     1523.461000       0.755973
     1523.926000       0.756153
     1524.390000       0.751714
     1524.855000       0.770102
     1525.320000       0.766389
     1525.786000       0.762298
     1526.251000       0.757778
     1526.718000       0.753563
     1527.184000       0.750018
     1527.651000       0.746966
     1528.117000       0.743643
     1528.585000       0.739940
     1529.052000       0.736001
     1529.520000       0.752292
     1529.988000       0.748509
     1530.456000       0.745726
     1530.925000       0.744456
     1531.394000       0.744212
     1531.863000       0.746509
     1532.332000       0.749242
     1532.802000       0.752680
     1533.272000       0.756841
     1533.742000       0.760008
     1534.213000       0.783167
     1534.684000       0.781937
     1535.155000       0.780872
     1535.626000       0.786675
     1536.098000       0.796822
     1536.570000       0.807185
     1537.043000       0.817451
     1537.515000       0.827852
     1537.988000       0.839092
     1538.462000       0.852120
     1538.935000       0.995316
     1539.409000       1.000000
     1539.883000       0.997921
     1540.357000       0.989137
     1540.832000       0.978117
     1541.307000       0.968128
     1541.782000       0.958167
     1542.258000       0.946738
     1542.734000       0.933668
     1543.210000       0.914126
     1543.686000       0.889302
     1544.163000       0.875320
     1544.640000       0.859703
     1545.117000       0.842564
     1545.595000       0.823540
     1546.073000       0.803045
     1546.551000       0.782660
     1547.030000       0.764262
     1547.509000       0.749242
     1547.988000       0.733135
     1548.467000       0.702210
     1548.947000       0.687865
     1549.427000       0.672551
     1549.907000       0.653138
     1550.388000       0.630700
     1550.869000       0.610956
     1551.350000       0.599328
     1551.831000       0.588215
     1552.313000       0.577531
     1552.795000       0.568006
     1553.277000       0.546660
     1553.760000       0.535950
     1554.243000       0.520377
     1554.726000       0.503557
     1555.210000       0.493341
     1555.694000       0.486972
     1556.178000       0.482571
     1556.663000       0.479218
     1557.147000       0.475975
     1557.632000       0.470262
     1558.118000       0.449189
     1558.604000       0.434377
     1559.089000       0.414627
     1559.576000       0.392625
     1560.063000       0.366815
     1560.550000       0.344317
     1561.036000       0.328717
     1561.524000       0.316740
     1562.012000       0.305000
     1562.500000       0.292881
     1562.989000       0.276826
     1563.477000       0.265132
     1563.966000       0.253746
     1564.456000       0.242226
     1564.945000       0.230444
     1565.435000       0.218921
     1565.925000       0.208434
     1566.416000       0.199756
     1566.907000       0.192450
     1567.398000       0.185459
     1567.890000       0.175353
     1568.382000       0.170125
     1568.874000       0.165000
     1569.366000       0.159153
     1569.859000       0.152235
     1570.352000       0.145659
     1570.845000       0.140408
     1571.339000       0.136071
     1571.833000       0.131906
     1572.327000       0.127737
     1572.822000       0.120364
     1573.317000       0.116722
     1573.812000       0.112944
     1574.307000       0.109239
     1574.803000       0.106292
     1575.299000       0.104184
     1575.796000       0.101650
     1576.293000       0.097082
     1576.790000       0.092057
     1577.287000       0.088577
     1577.785000       0.084333
     1578.283000       0.081686
     1578.781000       0.079057
     1579.280000       0.076360
     1579.779000       0.073340
     1580.278000       0.070111
     1580.778000       0.067312
     1581.278000       0.065224
     1581.778000       0.063326
     1582.278000       0.061160
     1582.779000       0.057693
     1583.281000       0.055484
     1583.782000       0.053256
     1584.284000       0.051131
     1584.786000       0.049287
     1585.288000       0.047603
     1585.791000       0.045942
     1586.294000       0.044269
     1586.798000       0.042627
     1587.302000       0.040963
     1587.806000       0.040700
     1588.310000       0.038695
     1588.815000       0.037041
     1589.320000       0.035680
     1589.825000       0.034458
     1590.331000       0.033177
     1590.837000       0.031842
     1591.343000       0.030489
     1591.850000       0.029214
     1592.357000       0.028131
     1592.864000       0.027343
     1593.372000       0.026595
     1593.880000       0.025750
     1594.388000       0.024871
     1594.896000       0.023988
     1595.405000       0.023112
     1595.915000       0.022281
     1596.424000       0.021514
     1596.934000       0.020805
     1597.444000       0.020093
     1597.955000       0.019303
     1598.465000       0.018630
     1598.977000       0.017943
     1599.488000       0.017194
     1600.000000       0.016399
     1600.512000       0.015745
     1601.025000       0.015400
     1601.537000       0.015253
     1602.051000       0.014935
     1602.564000       0.014320
     1603.078000       0.013618
     1603.592000       0.012980
     1604.106000       0.012530
     1604.621000       0.012269
     1605.136000       0.012031
     1605.652000       0.011522
     1606.168000       0.010750
     1606.684000       0.010190
     1607.200000       0.010128
     1607.717000       0.010302
     1608.234000       0.010276
     1608.752000       0.010000
     1609.269000       0.009544
     1609.787000       0.008971
     1610.306000       0.008407
     1610.825000       0.007957
     1611.344000       0.007587
     1611.863000       0.007293
     1612.383000       0.007212
     1612.903000       0.007382
     1613.424000       0.007490
     1613.944000       0.007342
     1614.466000       0.007080
     1614.987000       0.006869
     1615.509000       0.006697
     1616.031000       0.006577
     1616.554000       0.006625
     1617.076000       0.006586
     1617.599000       0.006179
     1618.123000       0.005686
     1618.647000       0.005412
     1619.171000       0.005379
     1619.696000       0.005484
     1620.220000       0.005582
     1620.745000       0.005574
     1621.271000       0.005411
     1621.797000       0.005127
     1622.323000       0.004798
     1622.850000       0.004546
     1623.377000       0.004483
     1623.904000       0.004639
     1624.431000       0.004819
     1624.959000       0.005004
     1625.488000       0.005099
     1626.016000       0.004953
     1626.545000       0.004558
     1627.075000       0.004210
     1627.604000       0.004153
     1628.135000       0.004330
     1628.665000       0.004353
     1629.195000       0.004081
     1629.726000       0.003620
     1630.258000       0.003239
     1630.789000       0.003135
     1631.321000       0.003229
     1631.854000       0.003273
     1632.387000       0.003260
     1632.920000       0.003340
     1633.453000       0.003516
     1633.987000       0.003599
     1634.521000       0.003486
     1635.056000       0.003275
     1635.590000       0.003141
     1636.126000       0.003090
     1636.661000       0.003033
     1637.197000       0.002960
     1637.733000       0.002890
     1638.270000       0.002890
     1638.807000       0.002945
     1639.344000       0.002938
     1639.882000       0.002805
     1640.420000       0.002792
     1640.959000       0.002877
     1641.497000       0.002883
     1642.036000       0.002676
     1642.576000       0.002351
     1643.115000       0.002135
     1643.656000       0.002158
     1644.196000       0.002401
     1644.737000       0.002698
     1645.278000       0.002780
     1645.820000       0.002374
     1646.362000       0.001769
     1646.904000       0.001511
     1647.446000       0.001612
     1647.990000       0.001834
     1648.533000       0.002022
     1649.077000       0.002174
     1649.621000       0.002352
     1650.165000       0.002566
     1650.710000       0.002760
     1651.255000       0.002954
     1651.801000       0.003151
     1652.346000       0.003503
     1652.892000       0.003975
     1653.439000       0.003838
     1653.986000       0.003059
     1654.533000       0.002351
     1655.081000       0.001995
     1655.629000       0.001913
     1656.177000       0.001973
     1656.726000       0.001985
     1657.276000       0.001962
     1657.825000       0.001928
     1658.375000       0.001879
     1658.925000       0.001779
     1659.476000       0.001634
     1660.026000       0.001532
     1660.578000       0.001604
     1661.130000       0.001809
     1661.682000       0.001962
     1662.234000       0.001814
     1662.787000       0.001382
     1663.340000       0.000898
     1663.893000       0.000617
     1664.447000       0.000627
     1665.002000       0.000913
     1665.556000       0.001318
     1666.111000       0.001605
     1666.667000       0.001686
     1667.222000       0.001655
     1667.779000       0.001572
     1668.335000       0.001577
     1668.892000       0.001647
     1669.449000       0.001629
     1670.007000       0.001486
     1670.565000       0.001365
     1671.123000       0.001296
     1671.682000       0.001302
     1672.241000       0.001416
     1672.800000       0.001526
     1673.360000       0.001502
     1673.920000       0.001415
     1674.481000       0.001461
     1675.042000       0.001625
     1675.603000       0.001583
     1676.165000       0.001329
     1676.727000       0.001200
     1677.290000       0.001222
     1677.852000       0.001306
     1678.416000       0.001334
     1678.979000       0.001234
     1679.543000       0.001084
     1680.108000       0.001003
     1680.672000       0.000992
     1681.237000       0.000905
     1681.803000       0.000695
     1682.369000       0.000490
     1682.935000       0.000501
     1683.502000       0.000741
     1684.069000       0.000935
     1684.636000       0.000990
     1685.204000       0.001200
     1685.772000       0.001367
     1686.341000       0.001275
     1686.910000       0.001035
     1687.479000       0.000785
     1688.049000       0.000670
     1688.619000       0.000764
     1689.189000       0.000891
     1689.760000       0.000782
     1690.331000       0.000518
     1690.903000       0.000417
     1691.475000       0.000541
     1692.047000       0.000693
     1692.620000       0.000736
     1693.193000       0.000700
     1693.767000       0.000719
     1694.341000       0.000883
     1694.915000       0.001209
     1695.490000       0.001441
     1696.065000       0.001232
     1696.641000       0.000754
     1697.217000       0.000492
     1697.793000       0.000424
     1698.370000       0.000430
     1698.947000       0.000399
     1699.524000       0.000171
