1,    channel 1 SRF extracted from FY-3G_MERSI-RM.zip(FY3G_MERSI-RM_SRF_CH01.txt) (received Nov 2023)
Number of data points:
724
Wavenumber (cm-1)   Filter response
    13570.371500       0.001590
    13574.046400       0.001590
    13577.723300       0.001590
    13581.437200       0.001560
    13585.119900       0.001560
    13588.802800       0.001530
    13592.489600       0.001500
    13596.176400       0.001440
    13599.906000       0.001440
    13603.598800       0.001440
    13607.293500       0.001440
    13610.990300       0.001410
    13614.689100       0.001440
    13618.428800       0.001410
    13622.131600       0.001410
    13625.838300       0.001380
    13629.548900       0.001440
    13633.257700       0.001500
    13636.970500       0.001590
    13640.685300       0.001620
    13644.441100       0.001710
    13648.160000       0.001740
    13651.882700       0.001710
    13655.607500       0.001740
    13659.334300       0.001800
    13663.063100       0.001830
    13666.794000       0.001830
    13670.530600       0.001890
    13674.263700       0.001860
    13678.004500       0.001830
    13681.741600       0.001770
    13685.523900       0.001740
    13689.270800       0.001650
    13693.016000       0.001590
    13696.765100       0.001560
    13700.518200       0.001560
    13704.273300       0.001560
    13708.030500       0.001590
    13711.789700       0.001590
    13715.551000       0.001530
    13719.314400       0.001500
    13723.079800       0.001470
    13726.847300       0.001440
    13730.618700       0.001440
    13734.392200       0.001500
    13738.167800       0.001500
    13741.907700       0.001500
    13745.687500       0.001560
    13749.469300       0.001650
    13753.255100       0.001680
    13757.041000       0.001770
    13760.829100       0.001890
    13764.623000       0.001920
    13768.417200       0.001920
    13772.213400       0.001950
    13776.011700       0.001950
    13779.812100       0.001890
    13783.616500       0.001860
    13787.383100       0.001800
    13791.191700       0.001770
    13795.002400       0.001740
    13798.815200       0.001770
    13802.630100       0.001800
    13806.447100       0.001890
    13810.230000       0.001950
    13814.051300       0.002040
    13817.878400       0.002100
    13821.702000       0.002160
    13825.533400       0.002190
    13829.366900       0.002220
    13833.160500       0.002190
    13836.996300       0.002130
    13840.834300       0.002100
    13844.678200       0.002070
    13848.482100       0.002070
    13852.328400       0.002100
    13856.176800       0.002190
    13860.027300       0.002220
    13863.841500       0.002250
    13867.698300       0.002250
    13871.555200       0.002250
    13875.416200       0.002220
    13879.240900       0.002220
    13883.106200       0.002220
    13886.973600       0.002190
    13890.806600       0.002190
    13894.676400       0.002160
    13898.552200       0.002100
    13902.389700       0.002040
    13906.271700       0.002040
    13910.152100       0.002010
    13913.997900       0.002070
    13917.886400       0.002190
    13921.775200       0.002340
    13925.627400       0.002460
    13929.522500       0.002560
    13933.380900       0.002590
    13937.278300       0.002620
    13941.179900       0.002590
    13945.046800       0.002560
    13948.950700       0.002560
    13952.821900       0.002490
    13956.732200       0.002400
    13960.646600       0.002370
    13964.524200       0.002340
    13968.443100       0.002340
    13972.325000       0.002460
    13976.248200       0.002650
    13980.134500       0.002830
    13984.064000       0.003040
    13987.954700       0.003220
    13991.888600       0.003340
    13995.783600       0.003340
    13999.722000       0.003310
    14003.623300       0.003190
    14007.568000       0.003130
    14011.471800       0.003070
    14015.420900       0.003070
    14019.332900       0.003070
    14023.284500       0.003190
    14027.201000       0.003250
    14031.159000       0.003340
    14035.079800       0.003490
    14039.044300       0.003670
    14042.967500       0.003790
    14046.898900       0.003880
    14050.868100       0.003970
    14054.799900       0.004000
    14058.777500       0.004000
    14062.713800       0.004030
    14066.695800       0.004120
    14070.638500       0.004210
    14074.583500       0.004330
    14078.572200       0.004480
    14082.521600       0.004630
    14086.475200       0.004780
    14090.470700       0.004900
    14094.428700       0.004990
    14098.391000       0.005050
    14102.391300       0.005080
    14106.358000       0.005080
    14110.325000       0.005080
    14114.334000       0.005140
    14118.309500       0.005230
    14122.283200       0.005350
    14126.301000       0.005500
    14130.281200       0.005680
    14134.267600       0.005800
    14138.292300       0.005920
    14142.281200       0.006010
    14146.272500       0.006100
    14150.261900       0.006220
    14154.299700       0.006340
    14158.297700       0.006490
    14162.298000       0.006670
    14166.302500       0.006850
    14170.347400       0.007000
    14174.354500       0.007180
    14178.365800       0.007300
    14182.379400       0.007450
    14186.393300       0.007600
    14190.455800       0.007760
    14194.474200       0.007940
    14198.497000       0.008150
    14202.524000       0.008330
    14206.551300       0.008540
    14210.582900       0.008750
    14214.659300       0.008930
    14218.695500       0.009140
    14222.734000       0.009380
    14226.774800       0.009620
    14230.817900       0.009860
    14234.865300       0.010100
    14238.913000       0.010300
    14243.007600       0.010500
    14247.060000       0.010600
    14251.118700       0.010800
    14255.175600       0.010900
    14259.239000       0.011100
    14263.302600       0.011300
    14267.370500       0.011600
    14271.440800       0.011900
    14275.513400       0.012100
    14279.586300       0.012400
    14283.663600       0.012700
    14287.743100       0.013000
    14291.827100       0.013300
    14295.911400       0.013600
    14299.997900       0.014000
    14304.088900       0.014400
    14308.182200       0.014800
    14312.277900       0.015200
    14316.373800       0.015700
    14320.476200       0.016000
    14324.578900       0.016200
    14328.684000       0.016400
    14332.793400       0.016700
    14336.903200       0.017000
    14341.019400       0.017300
    14345.133900       0.017700
    14349.252800       0.018200
    14353.374000       0.018600
    14357.499700       0.019100
    14361.627800       0.019500
    14365.758200       0.020000
    14369.889000       0.020600
    14374.024200       0.021100
    14378.159700       0.021700
    14382.301700       0.022300
    14386.402700       0.023000
    14390.547400       0.023600
    14394.694500       0.024300
    14398.846000       0.024900
    14403.000000       0.025500
    14407.156300       0.026200
    14411.315100       0.026800
    14415.432600       0.027400
    14419.598200       0.028000
    14423.762100       0.028700
    14427.934600       0.029400
    14432.105300       0.030100
    14436.280600       0.030900
    14440.414400       0.031700
    14444.594500       0.032600
    14448.779100       0.033600
    14452.966100       0.034600
    14457.151300       0.035700
    14461.301300       0.036800
    14465.493500       0.038000
    14469.690200       0.039100
    14473.887200       0.040300
    14478.046900       0.041500
    14482.250800       0.042700
    14486.459400       0.044000
    14490.668200       0.045400
    14494.837500       0.046700
    14499.053400       0.048200
    14503.271600       0.049700
    14507.490300       0.051300
    14511.671400       0.052800
    14515.899100       0.054500
    14520.125100       0.056300
    14524.315600       0.058100
    14528.548600       0.059900
    14532.784100       0.061700
    14536.984000       0.063600
    14541.224400       0.065600
    14545.469400       0.067900
    14549.674500       0.070300
    14553.924400       0.073000
    14558.176800       0.075800
    14562.391400       0.078700
    14566.648800       0.081500
    14570.868300       0.084300
    14575.132700       0.087200
    14622.003700       0.128000
    14626.302400       0.133000
    14630.556500       0.137000
    14634.862400       0.142000
    14639.164400       0.148000
    14643.430300       0.153000
    14647.741600       0.158000
    14652.012500       0.164000
    14656.328900       0.170000
    14660.606900       0.176000
    14664.928400       0.182000
    14669.209300       0.189000
    14673.492800       0.196000
    14677.824000       0.202000
    14682.114600       0.210000
    14686.450900       0.217000
    14690.744400       0.225000
    14695.087900       0.232000
    14699.388700       0.240000
    14703.737300       0.249000
    14708.045300       0.257000
    14712.353600       0.266000
    14716.710000       0.275000
    14721.025500       0.284000
    14725.387000       0.293000
    14729.707700       0.303000
    14734.028700       0.313000
    14738.402200       0.323000
    14742.728300       0.333000
    14747.107000       0.343000
    14751.442600       0.353000
    14755.778600       0.363000
    14760.162900       0.374000
    14764.508300       0.385000
    14768.852000       0.397000
    14773.244000       0.408000
    14777.595000       0.420000
    14781.952900       0.432000
    14786.354900       0.443000
    14790.713600       0.455000
    14795.074900       0.467000
    14799.486900       0.479000
    14803.855600       0.490000
    14808.229000       0.502000
    14812.602800       0.513000
    14817.023100       0.525000
    14821.404300       0.536000
    14825.785900       0.547000
    14830.172300       0.559000
    14834.605300       0.570000
    14838.996900       0.582000
    14843.393300       0.593000
    14847.790100       0.604000
    14852.235800       0.615000
    14856.637900       0.625000
    14861.042600       0.636000
    14865.452100       0.648000
    14869.910600       0.659000
    14874.325300       0.671000
    14878.740500       0.683000
    14883.164900       0.695000
    14887.585300       0.706000
    14892.012800       0.718000
    14896.489500       0.729000
    14900.917800       0.739000
    14905.355500       0.750000
    14909.791300       0.761000
    14914.232000       0.771000
    14918.675300       0.781000
    14923.168100       0.791000
    14927.619000       0.801000
    14932.070300       0.809000
    14936.526500       0.818000
    14940.985300       0.826000
    14945.444600       0.834000
    14949.911100       0.842000
    14954.377900       0.850000
    14958.847500       0.857000
    14963.321900       0.865000
    14967.839400       0.872000
    14972.323700       0.879000
    14976.801700       0.886000
    14981.286900       0.894000
    14985.777000       0.901000
    14990.267600       0.908000
    14994.760800       0.914000
    14999.259000       0.919000
    15003.757700       0.925000
    15008.256800       0.930000
    15012.763100       0.934000
    15017.274400       0.939000
    15021.786100       0.943000
    15026.298300       0.947000
    15030.817700       0.951000
    15035.337600       0.955000
    15039.860100       0.959000
    15044.387700       0.962000
    15048.918000       0.964000
    15053.448800       0.967000
    15057.984500       0.969000
    15062.523000       0.972000
    15067.064300       0.974000
    15071.610500       0.977000
    15076.154900       0.978000
    15080.661200       0.978000
    15085.213400       0.978000
    15089.770600       0.978000
    15094.330500       0.977000
    15098.893200       0.977000
    15103.458700       0.979000
    15108.029200       0.982000
    15112.600200       0.983000
    15117.174000       0.985000
    15121.750500       0.987000
    15126.286300       0.988000
    15130.868400       0.988000
    15135.455500       0.988000
    15140.045400       0.989000
    15144.638100       0.989000
    15149.233600       0.990000
    15153.785900       0.991000
    15158.391500       0.993000
    15162.997700       0.994000
    15167.602000       0.996000
    15172.216000       0.997000
    15176.828300       0.998000
    15181.399500       0.999000
    15186.019600       0.999000
    15190.642600       1.000000
    15195.270600       1.000000
    15199.901500       1.000000
    15204.484300       0.999000
    15209.120800       0.999000
    15213.760200       0.998000
    15218.402300       0.997000
    15222.998700       0.995000
    15227.648800       0.994000
    15232.301700       0.992000
    15236.955200       0.992000
    15241.565100       0.991000
    15246.224200       0.991000
    15250.888600       0.992000
    15255.509200       0.994000
    15260.176900       0.994000
    15264.852100       0.996000
    15269.527800       0.997000
    15274.162000       0.998000
    15278.841100       0.997000
    15283.530100       0.998000
    15288.170500       0.997000
    15292.860600       0.996000
    15297.555800       0.996000
    15302.207100       0.996000
    15306.910400       0.996000
    15311.612000       0.997000
    15316.274200       0.998000
    15320.986200       0.998000
    15325.654100       0.999000
    15330.369500       0.998000
    15335.087800       0.998000
    15339.764300       0.997000
    15344.490700       0.996000
    15349.170600       0.995000
    15353.902900       0.996000
    15358.640400       0.997000
    15363.331300       0.998000
    15368.077000       0.998000
    15372.773600       0.999000
    15377.522800       0.998000
    15382.225200       0.997000
    15386.982600       0.996000
    15391.740600       0.996000
    15396.454100       0.997000
    15401.217900       0.997000
    15405.937200       0.998000
    15410.709300       0.998000
    15415.436800       0.997000
    15420.212400       0.997000
    15424.945700       0.996000
    15429.729500       0.996000
    15434.468700       0.996000
    15439.258500       0.998000
    15444.003500       0.998000
    15448.801600       0.999000
    15453.554900       1.000000
    15458.358900       0.999000
    15463.115700       0.999000
    15467.925600       0.998000
    15472.690700       0.997000
    15477.456300       0.996000
    15482.280000       0.995000
    15487.051500       0.995000
    15491.878800       0.993000
    15496.658600       0.992000
    15501.491900       0.991000
    15506.280000       0.989000
    15511.068800       0.987000
    15515.911000       0.986000
    15520.708100       0.985000
    15525.558800       0.983000
    15530.361900       0.982000
    15535.170300       0.982000
    15540.027600       0.981000
    15544.842100       0.981000
    15549.657100       0.980000
    15554.528300       0.980000
    15559.349300       0.978000
    15564.226600       0.976000
    15569.056000       0.975000
    15573.886000       0.973000
    15578.774900       0.972000
    15583.610900       0.971000
    15588.454800       0.970000
    15593.350400       0.969000
    15598.202800       0.966000
    15603.053300       0.964000
    15607.909300       0.961000
    15612.817100       0.959000
    15617.681700       0.956000
    15622.546800       0.954000
    15627.463800       0.951000
    15632.337400       0.950000
    15637.214100       0.948000
    15642.091400       0.945000
    15647.025600       0.943000
    15651.911500       0.942000
    15656.800400       0.939000
    15661.690000       0.937000
    15666.639000       0.935000
    15671.537100       0.934000
    15676.438300       0.932000
    15681.345000       0.930000
    15686.257300       0.929000
    15691.214500       0.927000
    15696.135400       0.925000
    15701.052000       0.922000
    15705.974100       0.919000
    15710.901800       0.917000
    15715.879500       0.915000
    15720.811000       0.914000
    15725.748000       0.914000
    15730.688100       0.914000
    15735.633800       0.913000
    15740.577700       0.912000
    15745.524600       0.911000
    15750.531700       0.909000
    15755.487400       0.907000
    15760.446300       0.906000
    15765.410700       0.904000
    15770.375800       0.902000
    15775.346400       0.900000
    15780.320300       0.899000
    15785.297200       0.897000
    15790.329700       0.897000
    15795.313000       0.896000
    15800.299400       0.896000
    15805.289000       0.895000
    15810.281700       0.895000
    15815.280100       0.894000
    15820.281600       0.893000
    15825.286300       0.892000
    15830.291700       0.890000
    15835.307700       0.888000
    15840.319400       0.885000
    15845.336800       0.883000
    15850.357400       0.880000
    15855.383700       0.877000
    15860.413100       0.874000
    15865.443300       0.871000
    15870.481600       0.869000
    15875.518200       0.866000
    15880.560400       0.863000
    15885.605800       0.859000
    15890.654500       0.855000
    15895.708900       0.851000
    15900.766500       0.847000
    15905.822300       0.842000
    15910.886300       0.837000
    15915.953600       0.831000
    15921.024100       0.826000
    15926.097800       0.819000
    15931.177300       0.812000
    15936.257500       0.806000
    15941.343500       0.799000
    15946.427700       0.792000
    15951.520100       0.784000
    15956.615900       0.777000
    15961.712300       0.769000
    15966.814600       0.761000
    15971.869100       0.752000
    15976.975300       0.743000
    15982.089800       0.734000
    15987.207700       0.725000
    15992.326200       0.716000
    15997.448100       0.706000
    16002.575800       0.695000
    16007.704200       0.685000
    16012.787200       0.674000
    16017.924700       0.664000
    16023.065500       0.653000
    16028.209600       0.642000
    16033.359600       0.630000
    16038.510400       0.619000
    16043.664400       0.607000
    16048.770300       0.596000
    16053.933500       0.584000
    16059.100100       0.572000
    16064.269900       0.560000
    16069.443100       0.549000
    16074.568000       0.537000
    16079.747800       0.526000
    16084.931000       0.514000
    16090.117500       0.502000
    16095.310000       0.489000
    16100.451400       0.477000
    16105.650500       0.464000
    16110.853000       0.452000
    16116.058800       0.440000
    16121.216100       0.428000
    16126.428600       0.416000
    16131.644500       0.404000
    16136.866400       0.391000
    16142.037000       0.379000
    16147.265600       0.367000
    16152.495100       0.355000
    16157.678300       0.343000
    16162.914400       0.331000
    16168.159200       0.320000
    16173.404800       0.308000
    16178.598800       0.297000
    16183.853800       0.286000
    16189.112100       0.275000
    16194.318900       0.265000
    16199.584100       0.254000
    16204.850000       0.244000
    16210.069500       0.234000
    16215.342300       0.225000
    16220.621200       0.216000
    16225.850900       0.207000
    16231.139200       0.198000
    16236.373000       0.190000
    16241.668200       0.181000
    16246.966900       0.173000
    16252.213600       0.166000
    16257.519100       0.158000
    16262.828100       0.151000
    16268.085000       0.144000
    16273.403600       0.138000
    16278.670000       0.131000
    16283.992800       0.126000
    16289.321800       0.120000
    16294.595900       0.114000
    16299.931800       0.109000
    16305.218000       0.104000
    16310.560900       0.098600
    16315.851400       0.093900
    16321.201200       0.089500
    16326.557300       0.085300
    16331.858100       0.081400
    16337.221200       0.077700
    16342.531600       0.074200
    16347.901700       0.070700
    16353.219100       0.067500
    16358.596100       0.064400
    16363.920500       0.061400
    16369.304600       0.058500
    16374.638600       0.055800
    16380.032500       0.053300
    16385.373500       0.050900
    16390.771700       0.048800
    16396.117100       0.046800
    16401.527800       0.044800
    16406.882800       0.043000
    16412.297900       0.041200
    16417.660000       0.039400
    16423.084900       0.037700
    16428.454100       0.036000
    16433.829400       0.034500
    16439.265100       0.033200
    16444.644800       0.032000
    16450.087600       0.030900
    16455.477100       0.029900
    16460.929700       0.028900
    16466.326400       0.027800
    16471.726500       0.026800
    16477.187300       0.025700
    16482.600000       0.024600
    16488.067900       0.023700
    16493.485100       0.022800
    16498.905800       0.022000
    16504.387300       0.021300
    16509.815200       0.020600
    16515.303900       0.019900
    16520.739000       0.019200
    16526.177600       0.018500
    16531.680000       0.017900
    16537.128600       0.017200
    16542.583500       0.016600
    16548.091300       0.016000
    16553.550700       0.015500
    16559.016500       0.015100
    16564.538000       0.014700
    16570.011000       0.014200
    16575.484900       0.013800
    16581.022900       0.013300
    16586.504100       0.012800
    16591.991600       0.012400
    16597.482800       0.012000
    16603.032800       0.011700
    16608.531300       0.011400
    16614.036200       0.011100
    16619.600000       0.010700
    16625.109400       0.010300
    16630.622600       0.009830
    16636.139400       0.009410
    16641.723500       0.009020
    16647.247700       0.008720
    16652.781000       0.008450
    16658.315300       0.008210
    16663.908800       0.008000
    16669.450500       0.007760
    16674.995800       0.007510
    16680.547700       0.007300
    16686.161700       0.007030
    16691.718200       0.006760
    16697.281100       0.006580
    16702.847800       0.006400
    16708.418200       0.006220
    16714.048200       0.006130
    16719.628900       0.006010
    16725.210500       0.005830
    16730.795800       0.005650
    16736.384900       0.005470
    16741.983300       0.005230
    16747.635900       0.005020
    16753.241800       0.004870
    16758.845900       0.004690
    16764.456500       0.004510
    16770.070900       0.004360
    16775.689100       0.004210
    16781.313800       0.004030
    16786.995900       0.003910
    16792.631000       0.003760
    16798.264300       0.003640
    16803.901300       0.003520
    16809.545000       0.003430
    16815.192500       0.003310
    16820.843700       0.003220
    16826.498800       0.003100
    16832.160500       0.002980
    16837.823100       0.002800
    16843.549200       0.002620
    16849.219500       0.002490
    16854.896500       0.002370
    16860.577400       0.002310
    16866.259200       0.002280
    16871.947700       0.002310
    16877.640000       0.002280
    16883.336100       0.002280
    16889.036200       0.002190
    16894.742900       0.002130
    16900.453500       0.001980
    16906.165000       0.001860
    16911.883300       0.001710
    16917.602600       0.001620
    16923.325800       0.001530
    16929.055700       0.001500
    16934.795300       0.001440
    16940.533000       0.001410
