1, FY2H VISSR Visible channel (A1)) original file name: FY2H_SRF_VIS_0p55-0p75.txt
Number of data points:
401
Wavenumber (cm-1)   Filter response
    11764.705900       0.003200
    11778.563000       0.003100
    11792.452800       0.002500
    11806.375400       0.002700
    11820.331000       0.002800
    11834.319500       0.003200
    11848.341200       0.002800
    11862.396200       0.002700
    11876.484600       0.003300
    11890.606400       0.002600
    11904.761900       0.002900
    11918.951100       0.003300
    11933.174200       0.002800
    11947.431300       0.003200
    11961.722500       0.003000
    11976.047900       0.003000
    11990.407700       0.003100
    12004.801900       0.002800
    12019.230800       0.002300
    12033.694300       0.002700
    12048.192800       0.003200
    12062.726200       0.003400
    12077.294700       0.002400
    12091.898400       0.003000
    12106.537500       0.002800
    12121.212100       0.003400
    12135.922300       0.003700
    12150.668300       0.003900
    12165.450100       0.003300
    12180.268000       0.003400
    12195.122000       0.003000
    12210.012200       0.003500
    12224.938900       0.003700
    12239.902100       0.003000
    12254.902000       0.003500
    12269.938700       0.003700
    12285.012300       0.004000
    12300.123000       0.004000
    12315.270900       0.004200
    12330.456200       0.004400
    12345.679000       0.004400
    12360.939400       0.004300
    12376.237600       0.004800
    12391.573700       0.003900
    12406.947900       0.004200
    12422.360200       0.004300
    12437.810900       0.004600
    12453.300100       0.004700
    12468.827900       0.004800
    12484.394500       0.005600
    12500.000000       0.006000
    12515.644600       0.005800
    12531.328300       0.006000
    12547.051400       0.006000
    12562.814100       0.006900
    12578.616400       0.007300
    12594.458400       0.007900
    12610.340500       0.007700
    12626.262600       0.009100
    12642.225000       0.009200
    12658.227800       0.009800
    12674.271200       0.010800
    12690.355300       0.011300
    12706.480300       0.012200
    12722.646300       0.014300
    12738.853500       0.015800
    12755.102000       0.017200
    12771.392100       0.018500
    12787.723800       0.020300
    12804.097300       0.022500
    12820.512800       0.025100
    12836.970500       0.028000
    12853.470400       0.031100
    12870.012900       0.033900
    12886.597900       0.037200
    12903.225800       0.041500
    12919.896600       0.046600
    12936.610600       0.051800
    12953.367900       0.057900
    12970.168600       0.063800
    12987.013000       0.070700
    13003.901200       0.079100
    13020.833300       0.089100
    13037.809600       0.099400
    13054.830300       0.110500
    13071.895400       0.122600
    13089.005200       0.136100
    13106.159900       0.150600
    13123.359600       0.167000
    13140.604500       0.184400
    13157.894700       0.204600
    13175.230600       0.225500
    13192.612100       0.246900
    13210.039600       0.270300
    13227.513200       0.294500
    13245.033100       0.319800
    13262.599500       0.347500
    13280.212500       0.372800
    13297.872300       0.401800
    13315.579200       0.432700
    13333.333300       0.462000
    13351.134800       0.493300
    13368.984000       0.526600
    13386.880900       0.556400
    13404.825700       0.589600
    13422.818800       0.622500
    13440.860200       0.652700
    13458.950200       0.684700
    13477.088900       0.713700
    13495.276700       0.743100
    13513.513500       0.770600
    13531.799700       0.796300
    13550.135500       0.820100
    13568.521000       0.841900
    13586.956500       0.862000
    13605.442200       0.883300
    13623.978200       0.900800
    13642.564800       0.916300
    13661.202200       0.931000
    13679.890600       0.943900
    13698.630100       0.956200
    13717.421100       0.965000
    13736.263700       0.972600
    13755.158200       0.979100
    13774.104700       0.985500
    13793.103400       0.991500
    13812.154700       0.993200
    13831.258600       0.996300
    13850.415500       1.000000
    13869.625500       0.998900
    13888.888900       0.998300
    13908.205800       0.996300
    13927.576600       0.995400
    13947.001400       0.997100
    13966.480400       0.995900
    13986.014000       0.994800
    14005.602200       0.995400
    14025.245400       0.993100
    14044.943800       0.992300
    14064.697600       0.991000
    14084.507000       0.991300
    14104.372400       0.991500
    14124.293800       0.990200
    14144.271600       0.989400
    14164.305900       0.989600
    14184.397200       0.988400
    14204.545500       0.988700
    14224.751100       0.989400
    14245.014200       0.989800
    14265.335200       0.986600
    14285.714300       0.984300
    14306.151600       0.985200
    14326.647600       0.987000
    14347.202300       0.983900
    14367.816100       0.986400
    14388.489200       0.984900
    14409.221900       0.983800
    14430.014400       0.984000
    14450.867100       0.983000
    14471.780000       0.983800
    14492.753600       0.982800
    14513.788100       0.981200
    14534.883700       0.981400
    14556.040800       0.979900
    14577.259500       0.979400
    14598.540100       0.977100
    14619.883000       0.976300
    14641.288400       0.975500
    14662.756600       0.975000
    14684.287800       0.974600
    14705.882400       0.971800
    14727.540500       0.970700
    14749.262500       0.971500
    14771.048700       0.970100
    14792.899400       0.969400
    14814.814800       0.969000
    14836.795300       0.967800
    14858.841000       0.966900
    14880.952400       0.965300
    14903.129700       0.964700
    14925.373100       0.963600
    14947.683100       0.963500
    14970.059900       0.963400
    14992.503700       0.960400
    15015.015000       0.959800
    15037.594000       0.958200
    15060.241000       0.958000
    15082.956300       0.955400
    15105.740200       0.954500
    15128.593000       0.954400
    15151.515200       0.953000
    15174.506800       0.953900
    15197.568400       0.952300
    15220.700200       0.952200
    15243.902400       0.955200
    15267.175600       0.951500
    15290.519900       0.952700
    15313.935700       0.950900
    15337.423300       0.949600
    15360.983100       0.949600
    15384.615400       0.950800
    15408.320500       0.949000
    15432.098800       0.951500
    15455.950500       0.951800
    15479.876200       0.951600
    15503.876000       0.948900
    15527.950300       0.946100
    15552.099500       0.944300
    15576.324000       0.944900
    15600.624000       0.940700
    15625.000000       0.940100
    15649.452300       0.938000
    15673.981200       0.935800
    15698.587100       0.937500
    15723.270400       0.933000
    15748.031500       0.933500
    15772.870700       0.930100
    15797.788300       0.926900
    15822.784800       0.928100
    15847.860500       0.925800
    15873.015900       0.924700
    15898.251200       0.924000
    15923.566900       0.922000
    15948.963300       0.921500
    15974.440900       0.922200
    16000.000000       0.920900
    16025.641000       0.920600
    16051.364400       0.918800
    16077.170400       0.919600
    16103.059600       0.918200
    16129.032300       0.918900
    16155.088900       0.917300
    16181.229800       0.912900
    16207.455400       0.914900
    16233.766200       0.916200
    16260.162600       0.913000
    16286.645000       0.913100
    16313.213700       0.912100
    16339.869300       0.911100
    16366.612100       0.910400
    16393.442600       0.907700
    16420.361200       0.908200
    16447.368400       0.909400
    16474.464600       0.907200
    16501.650200       0.905200
    16528.925600       0.904500
    16556.291400       0.901800
    16583.747900       0.898600
    16611.295700       0.896800
    16638.935100       0.895200
    16666.666700       0.893500
    16694.490800       0.892900
    16722.408000       0.889200
    16750.418800       0.890200
    16778.523500       0.889100
    16806.722700       0.888200
    16835.016800       0.886500
    16863.406400       0.884000
    16891.891900       0.880200
    16920.473800       0.880400
    16949.152500       0.879100
    16977.928700       0.874800
    17006.802700       0.874800
    17035.775100       0.871800
    17064.846400       0.868900
    17094.017100       0.866200
    17123.287700       0.865100
    17152.658700       0.860700
    17182.130600       0.857700
    17211.704000       0.855000
    17241.379300       0.854500
    17271.157200       0.850800
    17301.038100       0.849300
    17331.022500       0.844800
    17361.111100       0.844100
    17391.304300       0.839700
    17421.602800       0.835600
    17452.007000       0.833800
    17482.517500       0.831100
    17513.134900       0.829000
    17543.859600       0.830100
    17574.692400       0.825000
    17605.633800       0.822000
    17636.684300       0.816600
    17667.844500       0.812800
    17699.115000       0.806500
    17730.496500       0.798600
    17761.989300       0.789100
    17793.594300       0.776800
    17825.311900       0.763300
    17857.142900       0.747300
    17889.087700       0.731100
    17921.147000       0.711200
    17953.321400       0.689400
    17985.611500       0.662700
    18018.018000       0.637000
    18050.541500       0.611900
    18083.182600       0.582900
    18115.942000       0.554000
    18148.820300       0.520800
    18181.818200       0.487900
    18214.936200       0.454800
    18248.175200       0.423900
    18281.535600       0.389500
    18315.018300       0.357000
    18348.623900       0.324900
    18382.352900       0.294400
    18416.206300       0.264400
    18450.184500       0.238000
    18484.288400       0.210800
    18518.518500       0.186700
    18552.875700       0.162200
    18587.360600       0.141100
    18621.973900       0.123400
    18656.716400       0.106800
    18691.588800       0.092800
    18726.591800       0.080100
    18761.726100       0.069200
    18796.992500       0.060200
    18832.391700       0.052300
    18867.924500       0.044600
    18903.591700       0.038500
    18939.393900       0.032400
    18975.332100       0.028000
    19011.406800       0.024500
    19047.619000       0.022000
    19083.969500       0.018900
    19120.458900       0.016400
    19157.088100       0.013700
    19193.858000       0.012000
    19230.769200       0.010400
    19267.822700       0.010200
    19305.019300       0.009300
    19342.359800       0.008000
    19379.845000       0.006400
    19417.475700       0.006000
    19455.252900       0.006200
    19493.177400       0.006600
    19531.250000       0.005800
    19569.471600       0.005100
    19607.843100       0.005300
    19646.365400       0.004400
    19685.039400       0.005200
    19723.865900       0.005100
    19762.845800       0.005100
    19801.980200       0.005200
    19841.269800       0.005300
    19880.715700       0.005300
    19920.318700       0.005300
    19960.079800       0.005100
    20000.000000       0.005100
    20040.080200       0.005000
    20080.321300       0.005300
    20120.724300       0.005100
    20161.290300       0.005100
    20202.020200       0.005800
    20242.915000       0.005400
    20283.975700       0.005800
    20325.203300       0.005400
    20366.598800       0.005700
    20408.163300       0.006200
    20449.897800       0.005700
    20491.803300       0.005500
    20533.880900       0.004900
    20576.131700       0.005500
    20618.556700       0.005400
    20661.157000       0.005600
    20703.933700       0.005100
    20746.888000       0.005100
    20790.020800       0.005500
    20833.333300       0.005800
    20876.826700       0.005200
    20920.502100       0.006200
    20964.360600       0.005200
    21008.403400       0.004800
    21052.631600       0.005400
    21097.046400       0.006800
    21141.649000       0.006400
    21186.440700       0.006100
    21231.422500       0.005900
    21276.595700       0.005500
    21321.961600       0.006600
    21367.521400       0.007500
    21413.276200       0.006800
    21459.227500       0.006700
    21505.376300       0.005500
    21551.724100       0.006000
    21598.272100       0.006800
    21645.021600       0.006500
    21691.974000       0.006900
    21739.130400       0.005500
    21786.492400       0.006400
    21834.061100       0.007300
    21881.838100       0.006900
    21929.824600       0.007200
    21978.022000       0.005600
    22026.431700       0.008300
    22075.055200       0.008300
    22123.893800       0.007600
    22172.949000       0.007600
    22222.222200       0.007200
