111,   111, MVIRI VIS channel from srf_MET7_2011168_2011169_1801-Release_S10EE_10.dat
Number of data points:
793
Wavenumber (cm-1)   Filter response
     8442.380800       0.000000
     8449.514200       0.000000
     8456.659600       0.000004
     8463.817200       0.000056
     8470.986900       0.000167
     8478.168700       0.000334
     8485.362700       0.000555
     8492.569000       0.000830
     8499.787500       0.001156
     8507.018300       0.001533
     8514.261400       0.001958
     8521.516800       0.002431
     8528.784600       0.002950
     8536.064900       0.003513
     8543.357500       0.004119
     8550.662700       0.004768
     8557.980300       0.005458
     8565.310500       0.006188
     8572.653200       0.006957
     8580.008600       0.007763
     8587.376600       0.008607
     8594.757200       0.009486
     8602.150500       0.010401
     8609.556600       0.011349
     8616.975400       0.012331
     8624.407100       0.013345
     8631.851500       0.014391
     8639.308900       0.015468
     8646.779100       0.016575
     8654.262200       0.017712
     8661.758300       0.018878
     8669.267400       0.020072
     8676.789600       0.021294
     8684.324800       0.022543
     8691.873100       0.023819
     8699.434500       0.025122
     8707.009100       0.026450
     8714.596900       0.027803
     8722.198000       0.029182
     8729.812300       0.030585
     8737.439900       0.032012
     8745.080900       0.033464
     8752.735200       0.034938
     8760.403000       0.036436
     8768.084200       0.037957
     8775.778900       0.039501
     8783.487000       0.041067
     8791.208800       0.042656
     8798.944100       0.044266
     8806.693100       0.045899
     8814.455700       0.047552
     8822.232000       0.049228
     8830.022100       0.050925
     8837.825900       0.052643
     8845.643500       0.054383
     8853.475000       0.056143
     8861.320300       0.057924
     8869.179600       0.059727
     8877.052800       0.061550
     8884.940000       0.063394
     8892.841300       0.065258
     8900.756600       0.067144
     8908.686000       0.069050
     8916.629500       0.070977
     8924.587200       0.072925
     8932.559200       0.074893
     8940.545400       0.076882
     8948.545900       0.078892
     8956.560700       0.080923
     8964.589900       0.082974
     8972.633500       0.085046
     8980.691500       0.087140
     8988.764000       0.089254
     8996.851100       0.091389
     9004.952700       0.093546
     9013.068900       0.095723
     9021.199800       0.097922
     9029.345400       0.100142
     9037.505600       0.102384
     9045.680700       0.104647
     9053.870500       0.106931
     9062.075200       0.109237
     9070.294800       0.111565
     9078.529300       0.113915
     9086.778700       0.116287
     9095.043200       0.118680
     9103.322700       0.121096
     9111.617300       0.123534
     9119.927000       0.125993
     9128.251900       0.128476
     9136.592100       0.130981
     9144.947400       0.133508
     9153.318100       0.136058
     9161.704100       0.138630
     9170.105500       0.141226
     9178.522300       0.143844
     9186.954500       0.146485
     9195.402300       0.149149
     9203.865600       0.151836
     9212.344500       0.154547
     9220.839100       0.157280
     9229.349300       0.160037
     9237.875300       0.162817
     9246.417000       0.165621
     9254.974500       0.168448
     9263.547900       0.171299
     9272.137200       0.174172
     9280.742500       0.177070
     9289.363700       0.179991
     9298.000900       0.182936
     9306.654300       0.185905
     9315.323700       0.188897
     9324.009300       0.191913
     9332.711200       0.194953
     9341.429200       0.198016
     9350.163600       0.201103
     9358.914400       0.204214
     9367.681500       0.207349
     9376.465100       0.210508
     9385.265100       0.213689
     9394.081700       0.216895
     9402.914900       0.220125
     9411.764700       0.223378
     9420.631200       0.226655
     9429.514400       0.229954
     9438.414300       0.233278
     9447.331100       0.236625
     9456.264800       0.239996
     9465.215300       0.243389
     9474.182900       0.246806
     9483.167400       0.250246
     9492.169000       0.253709
     9501.187600       0.257195
     9510.223500       0.260703
     9519.276500       0.264235
     9528.346800       0.267789
     9537.434400       0.271365
     9546.539400       0.274964
     9555.661700       0.278585
     9564.801500       0.282227
     9573.958800       0.285892
     9583.133700       0.289579
     9592.326100       0.293287
     9601.536200       0.297017
     9610.764100       0.300767
     9620.009600       0.304539
     9629.273000       0.308332
     9638.554200       0.312145
     9647.853400       0.315979
     9657.170400       0.319833
     9666.505600       0.323707
     9675.858700       0.327601
     9685.230000       0.331515
     9694.619500       0.335448
     9704.027200       0.339400
     9713.453100       0.343371
     9722.897400       0.347360
     9732.360100       0.351368
     9741.841200       0.355394
     9751.340800       0.359438
     9760.859000       0.363499
     9770.395700       0.367578
     9779.951100       0.371673
     9789.525200       0.375786
     9799.118100       0.379915
     9808.729800       0.384059
     9818.360300       0.388220
     9828.009800       0.392396
     9837.678300       0.396587
     9847.365800       0.400793
     9857.072400       0.405013
     9866.798200       0.409248
     9876.543200       0.413496
     9886.307500       0.417758
     9896.091000       0.422034
     9905.894000       0.426321
     9915.716400       0.430621
     9925.558300       0.434933
     9935.419800       0.439257
     9945.300800       0.443592
     9955.201600       0.447938
     9965.122100       0.452295
     9975.062300       0.456661
     9985.022500       0.461037
     9995.002500       0.465423
    10005.002500       0.469818
    10015.022500       0.474221
    10025.062700       0.478632
    10035.122900       0.483051
    10045.203400       0.487477
    10055.304200       0.491910
    10065.425300       0.496350
    10075.566800       0.500795
    10085.728700       0.505246
    10095.911200       0.509702
    10106.114200       0.514163
    10116.337900       0.518629
    10126.582300       0.523098
    10136.847400       0.527570
    10147.133400       0.532046
    10157.440300       0.536523
    10167.768200       0.541003
    10178.117000       0.545485
    10188.487000       0.549967
    10198.878100       0.554451
    10209.290500       0.558934
    10219.724100       0.563418
    10230.179000       0.567900
    10240.655400       0.572382
    10251.153300       0.576862
    10261.672700       0.581339
    10272.213700       0.585815
    10282.776300       0.590287
    10293.360800       0.594755
    10303.967000       0.599220
    10314.595200       0.603680
    10325.245200       0.608135
    10335.917300       0.612585
    10346.611500       0.617029
    10357.327800       0.621467
    10368.066400       0.625897
    10378.827200       0.630321
    10389.610400       0.634737
    10400.416000       0.639144
    10411.244100       0.643543
    10422.094800       0.647932
    10432.968200       0.652312
    10443.864200       0.656682
    10454.783100       0.661041
    10465.724800       0.665389
    10476.689400       0.669725
    10487.677000       0.674050
    10498.687700       0.678362
    10509.721500       0.682660
    10520.778500       0.686946
    10531.858900       0.691217
    10542.962600       0.695475
    10554.089700       0.699717
    10565.240400       0.703944
    10576.414600       0.708155
    10587.612500       0.712350
    10598.834100       0.716529
    10610.079600       0.720690
    10621.348900       0.724834
    10632.642200       0.728960
    10643.959600       0.733067
    10655.301000       0.737155
    10666.666700       0.741224
    10678.056600       0.745273
    10689.470900       0.749302
    10700.909600       0.753311
    10712.372800       0.757298
    10723.860600       0.761264
    10735.373100       0.765208
    10746.910300       0.769129
    10758.472300       0.773028
    10770.059200       0.776904
    10781.671200       0.780756
    10793.308100       0.784584
    10804.970300       0.788387
    10816.657700       0.792166
    10828.370300       0.795920
    10840.108400       0.799648
    10851.871900       0.803350
    10863.661100       0.807025
    10875.475800       0.810674
    10887.316300       0.814296
    10899.182600       0.817891
    10911.074700       0.821457
    10922.992900       0.824996
    10934.937100       0.828506
    10946.907500       0.831986
    10958.904100       0.835438
    10970.927000       0.838860
    10982.976400       0.842253
    10995.052200       0.845614
    11007.154700       0.848946
    11019.283700       0.852246
    11031.439600       0.855516
    11043.622300       0.858753
    11055.832000       0.861959
    11068.068600       0.865133
    11080.332400       0.868274
    11092.623400       0.871383
    11104.941700       0.874459
    11117.287400       0.877501
    11129.660500       0.880510
    11142.061300       0.883485
    11154.489700       0.886426
    11166.945800       0.889332
    11179.429800       0.892204
    11191.941800       0.895042
    11204.481800       0.897844
    11217.049900       0.900610
    11229.646300       0.903342
    11242.270900       0.906037
    11254.924000       0.908697
    11267.605600       0.911321
    11280.315800       0.913908
    11293.054800       0.916458
    11305.822500       0.918972
    11318.619100       0.921449
    11331.444800       0.923889
    11344.299500       0.926291
    11357.183400       0.928657
    11370.096600       0.930984
    11383.039300       0.933274
    11396.011400       0.935526
    11409.013100       0.937740
    11422.044500       0.939916
    11435.105800       0.942054
    11448.196900       0.944153
    11461.318100       0.946214
    11474.469300       0.948236
    11487.650800       0.950219
    11500.862600       0.952164
    11514.104800       0.954070
    11527.377500       0.955937
    11540.680900       0.957765
    11554.015000       0.959554
    11567.380000       0.961304
    11580.775900       0.963015
    11594.202900       0.964686
    11607.661100       0.966318
    11621.150500       0.967911
    11634.671300       0.969465
    11648.223600       0.970980
    11661.807600       0.972455
    11675.423200       0.973890
    11689.070700       0.975287
    11702.750100       0.976644
    11716.461600       0.977962
    11730.205300       0.979241
    11743.981200       0.980481
    11757.789500       0.981681
    11771.630400       0.982842
    11785.503800       0.983964
    11799.410000       0.985047
    11813.349100       0.986092
    11827.321100       0.987097
    11841.326200       0.988064
    11855.364600       0.988991
    11869.436200       0.989881
    11883.541300       0.990732
    11897.680000       0.991544
    11911.852300       0.992318
    11926.058400       0.993054
    11940.298500       0.993752
    11954.572600       0.994412
    11968.880900       0.995034
    11983.223500       0.995619
    11997.600500       0.996166
    12012.012000       0.996676
    12026.458200       0.997149
    12040.939200       0.997584
    12055.455100       0.997983
    12070.006000       0.998346
    12084.592100       0.998671
    12099.213600       0.998961
    12113.870400       0.999215
    12128.562800       0.999433
    12143.290800       0.999615
    12158.054700       0.999762
    12172.854500       0.999873
    12187.690400       0.999950
    12202.562500       0.999992
    12217.471000       1.000000
    12232.415900       0.999973
    12247.397400       0.999913
    12262.415700       0.999819
    12277.470800       0.999691
    12292.563000       0.999530
    12307.692300       0.999337
    12322.858900       0.999111
    12338.062900       0.998852
    12353.304500       0.998562
    12368.583800       0.998239
    12383.900900       0.997886
    12399.256000       0.997501
    12414.649300       0.997085
    12430.080800       0.996639
    12445.550700       0.996163
    12461.059200       0.995657
    12476.606400       0.995122
    12492.192400       0.994557
    12507.817400       0.993963
    12523.481500       0.993341
    12539.185000       0.992691
    12554.927800       0.992014
    12570.710200       0.991308
    12586.532400       0.990576
    12602.394500       0.989817
    12618.296500       0.989031
    12634.238800       0.988220
    12650.221400       0.987383
    12666.244500       0.986521
    12682.308200       0.985634
    12698.412700       0.984723
    12714.558200       0.983787
    12730.744700       0.982828
    12746.972600       0.981846
    12763.241900       0.980841
    12779.552700       0.979813
    12795.905300       0.978764
    12812.299800       0.977693
    12828.736400       0.976600
    12845.215200       0.975487
    12861.736300       0.974354
    12878.300100       0.973200
    12894.906500       0.972027
    12911.555800       0.970835
    12928.248200       0.969624
    12944.983800       0.968395
    12961.762800       0.967148
    12978.585300       0.965884
    12995.451600       0.964603
    13012.361700       0.963305
    13029.316000       0.961991
    13046.314400       0.960662
    13063.357300       0.959318
    13080.444700       0.957958
    13097.576900       0.956585
    13114.754100       0.955197
    13131.976400       0.953797
    13149.243900       0.952383
    13166.556900       0.950957
    13183.915600       0.949518
    13201.320100       0.948068
    13218.770700       0.946607
    13236.267400       0.945136
    13253.810500       0.943654
    13271.400100       0.942162
    13289.036500       0.940661
    13306.719900       0.939151
    13324.450400       0.937632
    13342.228200       0.936106
    13360.053400       0.934572
    13377.926400       0.933031
    13395.847300       0.931483
    13413.816200       0.929929
    13431.833400       0.928370
    13449.899100       0.926805
    13468.013500       0.925235
    13486.176700       0.923661
    13504.388900       0.922083
    13522.650400       0.920502
    13540.961400       0.918917
    13559.322000       0.917330
    13577.732500       0.915741
    13596.193100       0.914150
    13614.703900       0.912557
    13633.265200       0.910964
    13651.877100       0.909371
    13670.540000       0.907777
    13689.253900       0.906184
    13708.019200       0.904591
    13726.836000       0.903000
    13745.704500       0.901411
    13764.624900       0.899824
    13783.597500       0.898239
    13802.622500       0.896657
    13821.700100       0.895079
    13840.830400       0.893504
    13860.013900       0.891934
    13879.250500       0.890368
    13898.540700       0.888807
    13917.884500       0.887252
    13937.282200       0.885702
    13956.734100       0.884158
    13976.240400       0.882621
    13995.801300       0.881091
    14015.417000       0.879568
    14035.087700       0.878053
    14054.813800       0.876545
    14074.595400       0.875046
    14094.432700       0.873556
    14114.326000       0.872075
    14134.275600       0.870603
    14154.281700       0.869141
    14174.344400       0.867689
    14194.464200       0.866248
    14214.641100       0.864817
    14234.875400       0.863398
    14255.167500       0.861990
    14275.517500       0.860593
    14295.925700       0.859209
    14316.392300       0.857837
    14336.917600       0.856478
    14357.501800       0.855131
    14378.145200       0.853798
    14398.848100       0.852478
    14419.610700       0.851172
    14440.433200       0.849880
    14461.316000       0.848602
    14482.259200       0.847339
    14503.263200       0.846091
    14524.328200       0.844857
    14545.454500       0.843639
    14566.642400       0.842436
    14587.892000       0.841249
    14609.203800       0.840078
    14630.577900       0.838924
    14652.014700       0.837785
    14673.514300       0.836663
    14695.077100       0.835558
    14716.703500       0.834469
    14738.393500       0.833398
    14760.147600       0.832344
    14781.966000       0.831307
    14803.849000       0.830288
    14825.796900       0.829287
    14847.809900       0.828303
    14869.888500       0.827338
    14892.032800       0.826390
    14914.243100       0.825461
    14936.519800       0.824549
    14958.863100       0.823657
    14981.273400       0.822782
    15003.750900       0.821927
    15026.296000       0.821090
    15048.909000       0.820271
    15071.590100       0.819472
    15094.339600       0.818691
    15117.158000       0.817929
    15140.045400       0.817186
    15163.002300       0.816462
    15186.028900       0.815756
    15209.125500       0.815070
    15232.292500       0.814402
    15255.530100       0.813754
    15278.838800       0.813124
    15302.218800       0.812513
    15325.670500       0.811921
    15349.194200       0.811348
    15372.790200       0.810793
    15396.458800       0.810258
    15420.200500       0.809740
    15444.015400       0.809241
    15467.904100       0.808761
    15491.866800       0.808299
    15515.903800       0.807855
    15540.015500       0.807429
    15564.202300       0.807021
    15588.464500       0.806631
    15612.802500       0.806258
    15637.216600       0.805903
    15661.707100       0.805566
    15686.274500       0.805245
    15710.919100       0.804942
    15735.641200       0.804655
    15760.441300       0.804385
    15785.319700       0.804132
    15810.276700       0.803894
    15835.312700       0.803673
    15860.428200       0.803467
    15885.623500       0.803277
    15910.899000       0.803102
    15936.255000       0.802942
    15961.691900       0.802796
    15987.210200       0.802665
    16012.810200       0.802548
    16038.492400       0.802445
    16064.257000       0.802355
    16090.104600       0.802279
    16116.035500       0.802215
    16142.050000       0.802164
    16168.148700       0.802125
    16194.332000       0.802098
    16220.600200       0.802082
    16246.953700       0.802078
    16273.393000       0.802084
    16299.918500       0.802100
    16326.530600       0.802127
    16353.229800       0.802163
    16380.016400       0.802207
    16406.890900       0.802261
    16433.853700       0.802323
    16460.905300       0.802392
    16488.046200       0.802469
    16515.276600       0.802553
    16542.597200       0.802643
    16570.008300       0.802739
    16597.510400       0.802841
    16625.103900       0.802947
    16652.789300       0.803058
    16680.567100       0.803173
    16708.437800       0.803292
    16736.401700       0.803413
    16764.459300       0.803537
    16792.611300       0.803662
    16820.857900       0.803789
    16849.199700       0.803916
    16877.637100       0.804044
    16906.170800       0.804172
    16934.801000       0.804298
    16963.528400       0.804423
    16992.353400       0.804545
    17021.276600       0.804665
    17050.298400       0.804782
    17079.419300       0.804894
    17108.639900       0.805002
    17137.960600       0.805105
    17167.382000       0.805202
    17196.904600       0.805293
    17226.528900       0.805376
    17256.255400       0.805452
    17286.084700       0.805519
    17316.017300       0.805578
    17346.053800       0.805626
    17376.194600       0.805664
    17406.440400       0.805691
    17436.791600       0.805707
    17467.248900       0.805709
    17497.812800       0.805699
    17528.483800       0.805675
    17559.262500       0.805636
    17590.149500       0.805582
    17621.145400       0.805512
    17652.250700       0.805426
    17683.466000       0.805322
    17714.791900       0.805200
    17746.228900       0.805059
    17777.777800       0.804899
    17809.439000       0.804718
    17841.213200       0.804516
    17873.101000       0.804293
    17905.103000       0.804047
    17937.219700       0.803778
    17969.451900       0.803485
    18001.800200       0.803167
    18034.265100       0.802823
    18066.847300       0.802454
    18099.547500       0.802057
    18132.366300       0.801633
    18165.304300       0.801180
    18198.362100       0.800698
    18231.540600       0.800187
    18264.840200       0.799644
    18298.261700       0.799070
    18331.805700       0.798463
    18365.472900       0.797824
    18399.264000       0.797151
    18433.179700       0.796444
    18467.220700       0.795701
    18501.387600       0.794922
    18535.681200       0.794106
    18570.102100       0.793253
    18604.651200       0.792362
    18639.329000       0.791432
    18674.136300       0.790462
    18709.073900       0.789451
    18744.142500       0.788400
    18779.342700       0.787306
    18814.675400       0.786170
    18850.141400       0.784990
    18885.741300       0.783767
    18921.475900       0.782499
    18957.346000       0.781185
    18993.352300       0.779825
    19029.495700       0.778418
    19065.776900       0.776963
    19102.196800       0.775460
    19138.756000       0.773909
    19175.455400       0.772307
    19212.295900       0.770656
    19249.278200       0.768953
    19286.403100       0.767199
    19323.671500       0.765393
    19361.084200       0.763533
    19398.642100       0.761621
    19436.346000       0.759654
    19474.196700       0.757632
    19512.195100       0.755555
    19550.342100       0.753423
    19588.638600       0.751234
    19627.085400       0.748987
    19665.683400       0.746683
    19704.433500       0.744321
    19743.336600       0.741901
    19782.393700       0.739421
    19821.605600       0.736882
    19860.973200       0.734282
    19900.497500       0.731622
    19940.179500       0.728900
    19980.020000       0.726117
    20020.020000       0.723272
    20060.180500       0.720365
    20100.502500       0.717394
    20140.986900       0.714361
    20181.634700       0.711264
    20222.446900       0.708102
    20263.424500       0.704877
    20304.568500       0.701587
    20345.880000       0.698231
    20387.359800       0.694811
    20429.009200       0.691325
    20470.829100       0.687773
    20512.820500       0.684156
    20554.984600       0.680471
    20597.322300       0.676721
    20639.834900       0.672904
    20682.523300       0.669020
    20725.388600       0.665069
    20768.432000       0.661051
    20811.654500       0.656967
    20855.057400       0.652815
    20898.641600       0.648595
    20942.408400       0.644309
    20986.358900       0.639955
    21030.494200       0.635534
    21074.815600       0.631046
    21119.324200       0.626491
    21164.021200       0.621868
    21208.907700       0.617179
    21253.985100       0.612424
    21299.254500       0.607602
    21344.717200       0.602713
    21390.374300       0.597758
    21436.227200       0.592738
    21482.277100       0.587652
    21528.525300       0.582501
    21574.973000       0.577285
    21621.621600       0.572005
    21668.472400       0.566661
    21715.526600       0.561253
    21762.785600       0.555782
    21810.250800       0.550249
    21857.923500       0.544653
    21905.805000       0.538997
    21953.896800       0.533279
    22002.200200       0.527501
    22050.716600       0.521664
    22099.447500       0.515768
    22148.394200       0.509814
    22197.558300       0.503803
    22246.941000       0.497735
    22296.544000       0.491612
    22346.368700       0.485434
    22396.416600       0.479203
    22446.689100       0.472919
    22497.187900       0.466583
    22547.914300       0.460197
    22598.870100       0.453761
    22650.056600       0.447277
    22701.475600       0.440746
    22753.128600       0.434169
    22805.017100       0.427547
    22857.142900       0.420883
    22909.507400       0.414176
    22962.112500       0.407428
    23014.959700       0.400642
    23068.050700       0.393818
    23121.387300       0.386958
    23174.971000       0.380063
    23228.803700       0.373136
    23282.887100       0.366177
    23337.222900       0.359189
    23391.812900       0.352174
    23446.658900       0.345133
    23501.762600       0.338068
    23557.126000       0.330981
    23612.750900       0.323874
    23668.639100       0.316749
    23724.792400       0.309609
    23781.212800       0.302455
    23837.902300       0.295289
    23894.862600       0.288114
    23952.095800       0.280932
    24009.603800       0.273746
    24067.388700       0.266558
    24125.452400       0.259370
    24183.796900       0.252185
    24242.424200       0.245005
    24301.336600       0.237834
    24360.535900       0.230674
    24420.024400       0.223527
    24479.804200       0.216397
    24539.877300       0.209286
    24600.246000       0.202198
    24660.912500       0.195135
    24721.878900       0.188101
    24783.147500       0.181098
    24844.720500       0.174130
    24906.600200       0.167200
    24968.789000       0.160311
    25031.289100       0.153468
    25094.102900       0.146672
    25157.232700       0.139929
    25220.681000       0.133241
    25284.450100       0.126612
    25348.542500       0.120046
    25412.960600       0.113547
    25477.707000       0.107118
