155,   155, MVIRI VIS channel from srf_MET7_2016348_2016349_1801-Release_S10EE_10.dat
Number of data points:
793
Wavenumber (cm-1)   Filter response
     8442.380800       0.000000
     8449.514200       0.000000
     8456.659600       0.000004
     8463.817200       0.000057
     8470.986900       0.000169
     8478.168700       0.000338
     8485.362700       0.000563
     8492.569000       0.000842
     8499.787500       0.001173
     8507.018300       0.001555
     8514.261400       0.001986
     8521.516800       0.002466
     8528.784600       0.002992
     8536.064900       0.003563
     8543.357500       0.004178
     8550.662700       0.004836
     8557.980300       0.005536
     8565.310500       0.006276
     8572.653200       0.007055
     8580.008600       0.007873
     8587.376600       0.008728
     8594.757200       0.009619
     8602.150500       0.010546
     8609.556600       0.011508
     8616.975400       0.012502
     8624.407100       0.013531
     8631.851500       0.014591
     8639.308900       0.015682
     8646.779100       0.016804
     8654.262200       0.017956
     8661.758300       0.019138
     8669.267400       0.020348
     8676.789600       0.021586
     8684.324800       0.022852
     8691.873100       0.024145
     8699.434500       0.025465
     8707.009100       0.026810
     8714.596900       0.028181
     8722.198000       0.029578
     8729.812300       0.030999
     8737.439900       0.032445
     8745.080900       0.033915
     8752.735200       0.035408
     8760.403000       0.036925
     8768.084200       0.038466
     8775.778900       0.040029
     8783.487000       0.041615
     8791.208800       0.043223
     8798.944100       0.044854
     8806.693100       0.046507
     8814.455700       0.048181
     8822.232000       0.049877
     8830.022100       0.051595
     8837.825900       0.053334
     8845.643500       0.055095
     8853.475000       0.056877
     8861.320300       0.058680
     8869.179600       0.060504
     8877.052800       0.062349
     8884.940000       0.064215
     8892.841300       0.066102
     8900.756600       0.068010
     8908.686000       0.069939
     8916.629500       0.071889
     8924.587200       0.073859
     8932.559200       0.075851
     8940.545400       0.077863
     8948.545900       0.079896
     8956.560700       0.081950
     8964.589900       0.084025
     8972.633500       0.086121
     8980.691500       0.088238
     8988.764000       0.090377
     8996.851100       0.092536
     9004.952700       0.094717
     9013.068900       0.096919
     9021.199800       0.099142
     9029.345400       0.101387
     9037.505600       0.103653
     9045.680700       0.105941
     9053.870500       0.108250
     9062.075200       0.110581
     9070.294800       0.112935
     9078.529300       0.115309
     9086.778700       0.117706
     9095.043200       0.120126
     9103.322700       0.122567
     9111.617300       0.125030
     9119.927000       0.127516
     9128.251900       0.130025
     9136.592100       0.132556
     9144.947400       0.135109
     9153.318100       0.137685
     9161.704100       0.140284
     9170.105500       0.142906
     9178.522300       0.145551
     9186.954500       0.148219
     9195.402300       0.150910
     9203.865600       0.153624
     9212.344500       0.156361
     9220.839100       0.159122
     9229.349300       0.161906
     9237.875300       0.164713
     9246.417000       0.167544
     9254.974500       0.170398
     9263.547900       0.173276
     9272.137200       0.176178
     9280.742500       0.179103
     9289.363700       0.182052
     9298.000900       0.185024
     9306.654300       0.188021
     9315.323700       0.191041
     9324.009300       0.194085
     9332.711200       0.197153
     9341.429200       0.200244
     9350.163600       0.203359
     9358.914400       0.206498
     9367.681500       0.209661
     9376.465100       0.212848
     9385.265100       0.216058
     9394.081700       0.219292
     9402.914900       0.222550
     9411.764700       0.225831
     9420.631200       0.229136
     9429.514400       0.232465
     9438.414300       0.235817
     9447.331100       0.239192
     9456.264800       0.242591
     9465.215300       0.246013
     9474.182900       0.249458
     9483.167400       0.252926
     9492.169000       0.256417
     9501.187600       0.259932
     9510.223500       0.263469
     9519.276500       0.267028
     9528.346800       0.270611
     9537.434400       0.274215
     9546.539400       0.277842
     9555.661700       0.281491
     9564.801500       0.285162
     9573.958800       0.288855
     9583.133700       0.292570
     9592.326100       0.296306
     9601.536200       0.300063
     9610.764100       0.303842
     9620.009600       0.307641
     9629.273000       0.311462
     9638.554200       0.315303
     9647.853400       0.319164
     9657.170400       0.323045
     9666.505600       0.326947
     9675.858700       0.330868
     9685.230000       0.334808
     9694.619500       0.338769
     9704.027200       0.342747
     9713.453100       0.346745
     9722.897400       0.350761
     9732.360100       0.354795
     9741.841200       0.358847
     9751.340800       0.362917
     9760.859000       0.367005
     9770.395700       0.371109
     9779.951100       0.375230
     9789.525200       0.379368
     9799.118100       0.383522
     9808.729800       0.387692
     9818.360300       0.391877
     9828.009800       0.396078
     9837.678300       0.400294
     9847.365800       0.404524
     9857.072400       0.408768
     9866.798200       0.413027
     9876.543200       0.417299
     9886.307500       0.421584
     9896.091000       0.425882
     9905.894000       0.430193
     9915.716400       0.434516
     9925.558300       0.438850
     9935.419800       0.443196
     9945.300800       0.447553
     9955.201600       0.451920
     9965.122100       0.456298
     9975.062300       0.460685
     9985.022500       0.465082
     9995.002500       0.469489
    10005.002500       0.473903
    10015.022500       0.478326
    10025.062700       0.482757
    10035.122900       0.487194
    10045.203400       0.491639
    10055.304200       0.496091
    10065.425300       0.500549
    10075.566800       0.505012
    10085.728700       0.509480
    10095.911200       0.513954
    10106.114200       0.518431
    10116.337900       0.522913
    10126.582300       0.527398
    10136.847400       0.531886
    10147.133400       0.536377
    10157.440300       0.540869
    10167.768200       0.545364
    10178.117000       0.549859
    10188.487000       0.554355
    10198.878100       0.558852
    10209.290500       0.563348
    10219.724100       0.567844
    10230.179000       0.572338
    10240.655400       0.576832
    10251.153300       0.581322
    10261.672700       0.585811
    10272.213700       0.590296
    10282.776300       0.594778
    10293.360800       0.599256
    10303.967000       0.603729
    10314.595200       0.608198
    10325.245200       0.612661
    10335.917300       0.617118
    10346.611500       0.621569
    10357.327800       0.626013
    10368.066400       0.630450
    10378.827200       0.634879
    10389.610400       0.639299
    10400.416000       0.643711
    10411.244100       0.648114
    10422.094800       0.652507
    10432.968200       0.656890
    10443.864200       0.661262
    10454.783100       0.665623
    10465.724800       0.669972
    10476.689400       0.674310
    10487.677000       0.678635
    10498.687700       0.682946
    10509.721500       0.687244
    10520.778500       0.691529
    10531.858900       0.695798
    10542.962600       0.700053
    10554.089700       0.704293
    10565.240400       0.708516
    10576.414600       0.712724
    10587.612500       0.716914
    10598.834100       0.721088
    10610.079600       0.725244
    10621.348900       0.729381
    10632.642200       0.733500
    10643.959600       0.737600
    10655.301000       0.741681
    10666.666700       0.745742
    10678.056600       0.749782
    10689.470900       0.753801
    10700.909600       0.757800
    10712.372800       0.761776
    10723.860600       0.765731
    10735.373100       0.769663
    10746.910300       0.773572
    10758.472300       0.777458
    10770.059200       0.781320
    10781.671200       0.785158
    10793.308100       0.788972
    10804.970300       0.792760
    10816.657700       0.796523
    10828.370300       0.800260
    10840.108400       0.803971
    10851.871900       0.807656
    10863.661100       0.811314
    10875.475800       0.814944
    10887.316300       0.818547
    10899.182600       0.822121
    10911.074700       0.825668
    10922.992900       0.829185
    10934.937100       0.832674
    10946.907500       0.836133
    10958.904100       0.839562
    10970.927000       0.842961
    10982.976400       0.846329
    10995.052200       0.849667
    11007.154700       0.852973
    11019.283700       0.856248
    11031.439600       0.859492
    11043.622300       0.862703
    11055.832000       0.865882
    11068.068600       0.869028
    11080.332400       0.872141
    11092.623400       0.875221
    11104.941700       0.878267
    11117.287400       0.881280
    11129.660500       0.884258
    11142.061300       0.887202
    11154.489700       0.890112
    11166.945800       0.892986
    11179.429800       0.895826
    11191.941800       0.898630
    11204.481800       0.901399
    11217.049900       0.904131
    11229.646300       0.906828
    11242.270900       0.909489
    11254.924000       0.912113
    11267.605600       0.914700
    11280.315800       0.917251
    11293.054800       0.919764
    11305.822500       0.922240
    11318.619100       0.924679
    11331.444800       0.927080
    11344.299500       0.929444
    11357.183400       0.931769
    11370.096600       0.934057
    11383.039300       0.936306
    11396.011400       0.938517
    11409.013100       0.940690
    11422.044500       0.942824
    11435.105800       0.944919
    11448.196900       0.946976
    11461.318100       0.948993
    11474.469300       0.950972
    11487.650800       0.952911
    11500.862600       0.954811
    11514.104800       0.956672
    11527.377500       0.958494
    11540.680900       0.960276
    11554.015000       0.962019
    11567.380000       0.963722
    11580.775900       0.965386
    11594.202900       0.967010
    11607.661100       0.968594
    11621.150500       0.970139
    11634.671300       0.971644
    11648.223600       0.973109
    11661.807600       0.974535
    11675.423200       0.975921
    11689.070700       0.977268
    11702.750100       0.978575
    11716.461600       0.979842
    11730.205300       0.981070
    11743.981200       0.982258
    11757.789500       0.983406
    11771.630400       0.984515
    11785.503800       0.985585
    11799.410000       0.986616
    11813.349100       0.987607
    11827.321100       0.988559
    11841.326200       0.989472
    11855.364600       0.990346
    11869.436200       0.991181
    11883.541300       0.991977
    11897.680000       0.992735
    11911.852300       0.993454
    11926.058400       0.994135
    11940.298500       0.994777
    11954.572600       0.995382
    11968.880900       0.995948
    11983.223500       0.996476
    11997.600500       0.996967
    12012.012000       0.997420
    12026.458200       0.997836
    12040.939200       0.998215
    12055.455100       0.998557
    12070.006000       0.998861
    12084.592100       0.999130
    12099.213600       0.999362
    12113.870400       0.999557
    12128.562800       0.999717
    12143.290800       0.999841
    12158.054700       0.999929
    12172.854500       0.999982
    12187.690400       1.000000
    12202.562500       0.999983
    12217.471000       0.999932
    12232.415900       0.999846
    12247.397400       0.999726
    12262.415700       0.999572
    12277.470800       0.999385
    12292.563000       0.999165
    12307.692300       0.998911
    12322.858900       0.998625
    12338.062900       0.998307
    12353.304500       0.997956
    12368.583800       0.997574
    12383.900900       0.997160
    12399.256000       0.996715
    12414.649300       0.996239
    12430.080800       0.995732
    12445.550700       0.995195
    12461.059200       0.994629
    12476.606400       0.994033
    12492.192400       0.993407
    12507.817400       0.992753
    12523.481500       0.992071
    12539.185000       0.991360
    12554.927800       0.990621
    12570.710200       0.989855
    12586.532400       0.989062
    12602.394500       0.988242
    12618.296500       0.987396
    12634.238800       0.986524
    12650.221400       0.985626
    12666.244500       0.984703
    12682.308200       0.983755
    12698.412700       0.982783
    12714.558200       0.981787
    12730.744700       0.980767
    12746.972600       0.979724
    12763.241900       0.978659
    12779.552700       0.977571
    12795.905300       0.976460
    12812.299800       0.975329
    12828.736400       0.974176
    12845.215200       0.973002
    12861.736300       0.971808
    12878.300100       0.970595
    12894.906500       0.969361
    12911.555800       0.968109
    12928.248200       0.966838
    12944.983800       0.965549
    12961.762800       0.964242
    12978.585300       0.962918
    12995.451600       0.961577
    13012.361700       0.960220
    13029.316000       0.958846
    13046.314400       0.957457
    13063.357300       0.956053
    13080.444700       0.954634
    13097.576900       0.953202
    13114.754100       0.951755
    13131.976400       0.950295
    13149.243900       0.948822
    13166.556900       0.947337
    13183.915600       0.945840
    13201.320100       0.944331
    13218.770700       0.942811
    13236.267400       0.941281
    13253.810500       0.939740
    13271.400100       0.938190
    13289.036500       0.936631
    13306.719900       0.935062
    13324.450400       0.933486
    13342.228200       0.931901
    13360.053400       0.930310
    13377.926400       0.928711
    13395.847300       0.927105
    13413.816200       0.925494
    13431.833400       0.923877
    13449.899100       0.922254
    13468.013500       0.920627
    13486.176700       0.918996
    13504.388900       0.917361
    13522.650400       0.915722
    13540.961400       0.914081
    13559.322000       0.912437
    13577.732500       0.910791
    13596.193100       0.909143
    13614.703900       0.907494
    13633.265200       0.905844
    13651.877100       0.904194
    13670.540000       0.902544
    13689.253900       0.900895
    13708.019200       0.899246
    13726.836000       0.897599
    13745.704500       0.895954
    13764.624900       0.894310
    13783.597500       0.892670
    13802.622500       0.891032
    13821.700100       0.889398
    13840.830400       0.887768
    13860.013900       0.886141
    13879.250500       0.884520
    13898.540700       0.882903
    13917.884500       0.881292
    13937.282200       0.879687
    13956.734100       0.878088
    13976.240400       0.876495
    13995.801300       0.874910
    14015.417000       0.873331
    14035.087700       0.871761
    14054.813800       0.870198
    14074.595400       0.868644
    14094.432700       0.867098
    14114.326000       0.865562
    14134.275600       0.864035
    14154.281700       0.862517
    14174.344400       0.861010
    14194.464200       0.859514
    14214.641100       0.858028
    14234.875400       0.856553
    14255.167500       0.855089
    14275.517500       0.853637
    14295.925700       0.852198
    14316.392300       0.850770
    14336.917600       0.849355
    14357.501800       0.847953
    14378.145200       0.846564
    14398.848100       0.845189
    14419.610700       0.843827
    14440.433200       0.842479
    14461.316000       0.841145
    14482.259200       0.839826
    14503.263200       0.838522
    14524.328200       0.837232
    14545.454500       0.835958
    14566.642400       0.834699
    14587.892000       0.833456
    14609.203800       0.832228
    14630.577900       0.831017
    14652.014700       0.829821
    14673.514300       0.828642
    14695.077100       0.827480
    14716.703500       0.826334
    14738.393500       0.825206
    14760.147600       0.824094
    14781.966000       0.823000
    14803.849000       0.821923
    14825.796900       0.820864
    14847.809900       0.819822
    14869.888500       0.818798
    14892.032800       0.817792
    14914.243100       0.816804
    14936.519800       0.815834
    14958.863100       0.814882
    14981.273400       0.813948
    15003.750900       0.813033
    15026.296000       0.812136
    15048.909000       0.811258
    15071.590100       0.810398
    15094.339600       0.809557
    15117.158000       0.808735
    15140.045400       0.807931
    15163.002300       0.807145
    15186.028900       0.806379
    15209.125500       0.805631
    15232.292500       0.804901
    15255.530100       0.804191
    15278.838800       0.803498
    15302.218800       0.802825
    15325.670500       0.802170
    15349.194200       0.801533
    15372.790200       0.800915
    15396.458800       0.800315
    15420.200500       0.799734
    15444.015400       0.799171
    15467.904100       0.798625
    15491.866800       0.798098
    15515.903800       0.797589
    15540.015500       0.797097
    15564.202300       0.796624
    15588.464500       0.796167
    15612.802500       0.795728
    15637.216600       0.795306
    15661.707100       0.794901
    15686.274500       0.794513
    15710.919100       0.794142
    15735.641200       0.793787
    15760.441300       0.793448
    15785.319700       0.793126
    15810.276700       0.792819
    15835.312700       0.792528
    15860.428200       0.792252
    15885.623500       0.791992
    15910.899000       0.791746
    15936.255000       0.791515
    15961.691900       0.791298
    15987.210200       0.791095
    16012.810200       0.790906
    16038.492400       0.790731
    16064.257000       0.790568
    16090.104600       0.790419
    16116.035500       0.790282
    16142.050000       0.790157
    16168.148700       0.790044
    16194.332000       0.789942
    16220.600200       0.789852
    16246.953700       0.789772
    16273.393000       0.789703
    16299.918500       0.789643
    16326.530600       0.789593
    16353.229800       0.789553
    16380.016400       0.789521
    16406.890900       0.789497
    16433.853700       0.789482
    16460.905300       0.789474
    16488.046200       0.789472
    16515.276600       0.789478
    16542.597200       0.789489
    16570.008300       0.789507
    16597.510400       0.789529
    16625.103900       0.789556
    16652.789300       0.789587
    16680.567100       0.789622
    16708.437800       0.789660
    16736.401700       0.789701
    16764.459300       0.789744
    16792.611300       0.789789
    16820.857900       0.789834
    16849.199700       0.789880
    16877.637100       0.789926
    16906.170800       0.789972
    16934.801000       0.790016
    16963.528400       0.790059
    16992.353400       0.790099
    17021.276600       0.790136
    17050.298400       0.790170
    17079.419300       0.790200
    17108.639900       0.790225
    17137.960600       0.790245
    17167.382000       0.790259
    17196.904600       0.790266
    17226.528900       0.790267
    17256.255400       0.790259
    17286.084700       0.790243
    17316.017300       0.790218
    17346.053800       0.790183
    17376.194600       0.790138
    17406.440400       0.790081
    17436.791600       0.790013
    17467.248900       0.789933
    17497.812800       0.789839
    17528.483800       0.789732
    17559.262500       0.789610
    17590.149500       0.789474
    17621.145400       0.789321
    17652.250700       0.789152
    17683.466000       0.788965
    17714.791900       0.788761
    17746.228900       0.788538
    17777.777800       0.788296
    17809.439000       0.788034
    17841.213200       0.787751
    17873.101000       0.787447
    17905.103000       0.787121
    17937.219700       0.786771
    17969.451900       0.786398
    18001.800200       0.786001
    18034.265100       0.785579
    18066.847300       0.785131
    18099.547500       0.784656
    18132.366300       0.784154
    18165.304300       0.783624
    18198.362100       0.783066
    18231.540600       0.782478
    18264.840200       0.781860
    18298.261700       0.781211
    18331.805700       0.780531
    18365.472900       0.779818
    18399.264000       0.779072
    18433.179700       0.778293
    18467.220700       0.777479
    18501.387600       0.776630
    18535.681200       0.775745
    18570.102100       0.774823
    18604.651200       0.773864
    18639.329000       0.772867
    18674.136300       0.771831
    18709.073900       0.770755
    18744.142500       0.769640
    18779.342700       0.768483
    18814.675400       0.767285
    18850.141400       0.766045
    18885.741300       0.764762
    18921.475900       0.763435
    18957.346000       0.762064
    18993.352300       0.760648
    19029.495700       0.759186
    19065.776900       0.757678
    19102.196800       0.756124
    19138.756000       0.754521
    19175.455400       0.752870
    19212.295900       0.751171
    19249.278200       0.749422
    19286.403100       0.747623
    19323.671500       0.745773
    19361.084200       0.743872
    19398.642100       0.741920
    19436.346000       0.739914
    19474.196700       0.737856
    19512.195100       0.735744
    19550.342100       0.733578
    19588.638600       0.731358
    19627.085400       0.729082
    19665.683400       0.726750
    19704.433500       0.724362
    19743.336600       0.721918
    19782.393700       0.719416
    19821.605600       0.716857
    19860.973200       0.714239
    19900.497500       0.711563
    19940.179500       0.708828
    19980.020000       0.706034
    20020.020000       0.703179
    20060.180500       0.700265
    20100.502500       0.697290
    20140.986900       0.694254
    20181.634700       0.691157
    20222.446900       0.687998
    20263.424500       0.684777
    20304.568500       0.681494
    20345.880000       0.678148
    20387.359800       0.674740
    20429.009200       0.671269
    20470.829100       0.667735
    20512.820500       0.664137
    20554.984600       0.660475
    20597.322300       0.656750
    20639.834900       0.652961
    20682.523300       0.649108
    20725.388600       0.645191
    20768.432000       0.641210
    20811.654500       0.637164
    20855.057400       0.633054
    20898.641600       0.628880
    20942.408400       0.624641
    20986.358900       0.620339
    21030.494200       0.615972
    21074.815600       0.611541
    21119.324200       0.607046
    21164.021200       0.602487
    21208.907700       0.597864
    21253.985100       0.593178
    21299.254500       0.588428
    21344.717200       0.583615
    21390.374300       0.578740
    21436.227200       0.573802
    21482.277100       0.568801
    21528.525300       0.563739
    21574.973000       0.558615
    21621.621600       0.553430
    21668.472400       0.548184
    21715.526600       0.542878
    21762.785600       0.537513
    21810.250800       0.532088
    21857.923500       0.526605
    21905.805000       0.521063
    21953.896800       0.515464
    22002.200200       0.509809
    22050.716600       0.504097
    22099.447500       0.498330
    22148.394200       0.492508
    22197.558300       0.486633
    22246.941000       0.480704
    22296.544000       0.474724
    22346.368700       0.468692
    22396.416600       0.462610
    22446.689100       0.456479
    22497.187900       0.450300
    22547.914300       0.444073
    22598.870100       0.437800
    22650.056600       0.431482
    22701.475600       0.425121
    22753.128600       0.418717
    22805.017100       0.412271
    22857.142900       0.405786
    22909.507400       0.399262
    22962.112500       0.392700
    23014.959700       0.386103
    23068.050700       0.379471
    23121.387300       0.372806
    23174.971000       0.366110
    23228.803700       0.359384
    23282.887100       0.352630
    23337.222900       0.345850
    23391.812900       0.339045
    23446.658900       0.332216
    23501.762600       0.325367
    23557.126000       0.318499
    23612.750900       0.311614
    23668.639100       0.304713
    23724.792400       0.297799
    23781.212800       0.290874
    23837.902300       0.283940
    23894.862600       0.276999
    23952.095800       0.270053
    24009.603800       0.263105
    24067.388700       0.256157
    24125.452400       0.249212
    24183.796900       0.242271
    24242.424200       0.235338
    24301.336600       0.228415
    24360.535900       0.221504
    24420.024400       0.214608
    24479.804200       0.207730
    24539.877300       0.200873
    24600.246000       0.194040
    24660.912500       0.187232
    24721.878900       0.180455
    24783.147500       0.173709
    24844.720500       0.166999
    24906.600200       0.160328
    24968.789000       0.153698
    25031.289100       0.147114
    25094.102900       0.140577
    25157.232700       0.134093
    25220.681000       0.127663
    25284.450100       0.121293
    25348.542500       0.114984
    25412.960600       0.108742
    25477.707000       0.102569
