12,    channel 12 SRF extracted from SRF_FY-4A_AGRI.zip (11.5.txt) (received April 2018)
Number of data points:
534
Wavenumber (cm-1)   Filter response
      738.934500       0.019649
      739.207600       0.019585
      739.480900       0.008461
      739.754400       0.017913
      740.028100       0.013192
      740.302000       0.016010
      740.576200       0.012536
      740.850500       0.011807
      741.125000       0.017617
      741.399800       0.008919
      741.674700       0.015339
      741.949800       0.008861
      742.225200       0.016630
      742.500700       0.011117
      742.776500       0.016531
      743.052500       0.011130
      743.328600       0.012214
      743.605000       0.016205
      743.881600       0.006636
      744.158400       0.010276
      744.435300       0.014988
      744.712500       0.016128
      744.989900       0.021306
      745.267600       0.021764
      745.545400       0.016318
      745.823400       0.018495
      746.101600       0.019011
      746.380100       0.015720
      746.658700       0.012201
      746.937600       0.009259
      747.216600       0.009377
      747.495900       0.015216
      747.775400       0.018577
      748.055100       0.015090
      748.335000       0.010656
      748.615100       0.016962
      748.895400       0.009448
      749.175900       0.017449
      749.456600       0.013240
      749.737600       0.014607
      750.018800       0.013584
      750.300100       0.010960
      750.581700       0.014132
      750.863500       0.018222
      751.145500       0.014694
      751.427700       0.018989
      751.710100       0.013883
      751.992800       0.015335
      752.275600       0.008147
      752.558700       0.013556
      752.842000       0.017496
      753.125500       0.012520
      753.409200       0.010845
      753.693100       0.011757
      753.977200       0.019339
      754.261600       0.014808
      754.546100       0.019064
      754.830900       0.010985
      755.115900       0.008310
      755.401100       0.012333
      755.686500       0.014508
      755.972200       0.009824
      756.258000       0.015179
      756.544100       0.010223
      756.830400       0.013207
      757.116900       0.009980
      757.403600       0.010563
      757.690600       0.014496
      757.977700       0.010206
      758.265100       0.009407
      758.552700       0.015226
      758.840500       0.013631
      759.128500       0.011613
      759.416800       0.023038
      759.705200       0.018633
      759.993900       0.012206
      760.282800       0.011431
      760.572000       0.014832
      760.861300       0.012297
      761.150900       0.014862
      761.440600       0.015387
      761.730700       0.010004
      762.020900       0.013781
      762.311300       0.019673
      762.602000       0.015979
      762.892900       0.006952
      763.184000       0.014628
      763.475300       0.013012
      763.766900       0.011643
      764.058700       0.016542
      764.350700       0.019600
      764.642900       0.011915
      764.935400       0.009945
      765.228000       0.013971
      765.520900       0.007110
      765.814100       0.013190
      766.107400       0.017084
      766.401000       0.009458
      766.694800       0.014533
      766.988800       0.013428
      767.283100       0.014541
      767.577500       0.014467
      767.872200       0.017099
      768.167200       0.013203
      768.462300       0.015957
      768.757700       0.012607
      769.053300       0.009234
      769.349100       0.007467
      769.645200       0.010822
      769.941500       0.011771
      770.238000       0.017595
      770.534800       0.017549
      770.831700       0.009159
      771.128900       0.015903
      771.426400       0.013883
      771.724000       0.012043
      772.021900       0.009685
      772.320000       0.013537
      772.618400       0.014338
      772.917000       0.011159
      773.215800       0.018958
      773.514900       0.010029
      773.814100       0.012374
      774.113600       0.011251
      774.413400       0.012330
      774.713400       0.011865
      775.013600       0.006194
      775.314000       0.018677
      775.614700       0.011142
      775.915600       0.013356
      776.216700       0.012648
      776.518100       0.007920
      776.819700       0.014584
      777.121500       0.013870
      777.423600       0.010185
      777.725900       0.009153
      778.028500       0.016047
      778.331300       0.010847
      778.634300       0.021493
      778.937500       0.015478
      779.241000       0.025405
      779.544700       0.010674
      779.848700       0.018725
      780.152900       0.017592
      780.457300       0.027807
      780.762000       0.030919
      781.066900       0.036149
      781.372100       0.051930
      781.677500       0.058079
      781.983100       0.055332
      782.289000       0.054694
      782.595100       0.066414
      782.901400       0.076799
      783.208000       0.077948
      783.514800       0.078771
      783.821900       0.088928
      784.129200       0.101081
      784.436800       0.099511
      784.744600       0.111476
      785.052600       0.121704
      785.360900       0.112799
      785.669400       0.118120
      785.978100       0.126327
      786.287200       0.140642
      786.596400       0.161299
      786.905900       0.179341
      787.215600       0.178996
      787.525600       0.193798
      787.835800       0.195588
      788.146300       0.219267
      788.457000       0.221430
      788.767900       0.205300
      789.079100       0.229002
      789.390600       0.236549
      789.702300       0.271457
      790.014200       0.270548
      790.326400       0.290269
      790.638800       0.288877
      790.951500       0.320632
      791.264400       0.300727
      791.577600       0.312975
      791.891000       0.317212
      792.204700       0.321602
      792.518600       0.343245
      792.832800       0.358688
      793.147200       0.368803
      793.461900       0.389661
      793.776800       0.389176
      794.092000       0.409821
      794.407400       0.408544
      794.723000       0.410661
      795.039000       0.426957
      795.355100       0.445637
      795.671500       0.460522
      795.988200       0.459012
      796.305100       0.499441
      796.622300       0.498333
      796.939800       0.527230
      797.257400       0.517870
      797.575400       0.538406
      797.893600       0.556990
      798.212000       0.554718
      798.530700       0.575091
      798.849700       0.564345
      799.168900       0.578652
      799.488300       0.596468
      799.808000       0.592411
      800.128000       0.600875
      800.448300       0.619452
      800.768700       0.602084
      801.089500       0.613824
      801.410500       0.621773
      801.731700       0.652185
      802.053300       0.652215
      802.375000       0.660541
      802.697100       0.667318
      803.019400       0.667680
      803.341900       0.674365
      803.664700       0.676698
      803.987800       0.671876
      804.311100       0.678935
      804.634700       0.687346
      804.958500       0.681675
      805.282700       0.692156
      805.607000       0.697605
      805.931700       0.703003
      806.256600       0.721388
      806.581700       0.730501
      806.907100       0.741042
      807.232800       0.736506
      807.558700       0.749981
      807.885000       0.739198
      808.211400       0.766302
      808.538200       0.756967
      808.865200       0.771226
      809.192400       0.771958
      809.520000       0.798006
      809.847700       0.792701
      810.175800       0.807328
      810.504100       0.782384
      810.832700       0.805527
      811.161600       0.803513
      811.490700       0.809470
      811.820100       0.808810
      812.149800       0.811064
      812.479700       0.824858
      812.809900       0.806119
      813.140300       0.831347
      813.471100       0.831853
      813.802100       0.819061
      814.133400       0.815671
      814.464900       0.799304
      814.796700       0.829895
      815.128800       0.817206
      815.461100       0.834037
      815.793800       0.832702
      816.126700       0.831101
      816.459800       0.827043
      816.793300       0.827218
      817.127000       0.820255
      817.461000       0.829834
      817.795200       0.820461
      818.129800       0.814204
      818.464600       0.813609
      818.799600       0.816987
      819.135000       0.820533
      819.470600       0.830848
      819.806500       0.839145
      820.142700       0.829445
      820.479200       0.840388
      820.815900       0.832161
      821.152900       0.838887
      821.490200       0.844986
      821.827700       0.849193
      822.165600       0.845864
      822.503700       0.863394
      822.842100       0.860263
      823.180800       0.860292
      823.519700       0.869634
      823.859000       0.873186
      824.198500       0.877956
      824.538300       0.887825
      824.878300       0.889399
      825.218700       0.894782
      825.559300       0.896909
      825.900200       0.913181
      826.241400       0.916547
      826.582900       0.923036
      826.924700       0.927128
      827.266700       0.934090
      827.609000       0.922565
      827.951600       0.939569
      828.294500       0.950891
      828.637700       0.940409
      828.981200       0.940618
      829.324900       0.957299
      829.669000       0.949543
      830.013300       0.947200
      830.357900       0.953054
      830.702800       0.960859
      831.048000       0.968921
      831.393400       0.967728
      831.739200       0.967316
      832.085200       0.961950
      832.431500       0.984047
      832.778100       0.985691
      833.125100       0.985923
      833.472200       0.981461
      833.819700       0.988601
      834.167500       1.000000
      834.515600       0.989735
      834.863900       0.959263
      835.212600       0.986588
      835.561500       0.977677
      835.910700       0.969345
      836.260200       0.965037
      836.610100       0.981516
      836.960200       0.976550
      837.310600       0.969561
      837.661200       0.968733
      838.012200       0.993319
      838.363500       0.992403
      838.715100       0.977008
      839.067000       0.981493
      839.419100       0.982565
      839.771600       0.983585
      840.124300       0.978395
      840.477400       0.977293
      840.830700       0.995852
      841.184400       0.971165
      841.538300       0.971762
      841.892600       0.970272
      842.247100       0.958907
      842.602000       0.970347
      842.957100       0.953115
      843.312500       0.959247
      843.668300       0.949038
      844.024300       0.949438
      844.380600       0.941987
      844.737300       0.937868
      845.094200       0.918924
      845.451500       0.910064
      845.809000       0.907684
      846.166900       0.901663
      846.525000       0.896234
      846.883500       0.877394
      847.242200       0.887034
      847.601300       0.853744
      847.960700       0.831806
      848.320300       0.822660
      848.680300       0.803950
      849.040600       0.791941
      849.401200       0.780967
      849.762100       0.779257
      850.123300       0.767273
      850.484800       0.743407
      850.846600       0.741541
      851.208700       0.723341
      851.571100       0.716766
      851.933900       0.698862
      852.296900       0.675681
      852.660300       0.691129
      853.024000       0.671916
      853.388000       0.661496
      853.752200       0.660371
      854.116800       0.637767
      854.481800       0.618809
      854.847000       0.596058
      855.212500       0.577124
      855.578400       0.563194
      855.944500       0.558905
      856.311000       0.535432
      856.677800       0.513959
      857.044900       0.505179
      857.412300       0.481960
      857.780100       0.454459
      858.148100       0.442939
      858.516500       0.431038
      858.885200       0.419251
      859.254200       0.409761
      859.623500       0.392234
      859.993100       0.383679
      860.363100       0.372323
      860.733300       0.360683
      861.103900       0.343018
      861.474800       0.325176
      861.846100       0.314759
      862.217600       0.312643
      862.589500       0.301370
      862.961700       0.288360
      863.334200       0.280177
      863.707000       0.265256
      864.080200       0.260213
      864.453700       0.242880
      864.827500       0.229891
      865.201600       0.227107
      865.576000       0.228235
      865.950800       0.219209
      866.325900       0.204568
      866.701300       0.209398
      867.077100       0.193112
      867.453200       0.184498
      867.829600       0.177046
      868.206300       0.166197
      868.583300       0.169076
      868.960700       0.157724
      869.338400       0.153710
      869.716500       0.142531
      870.094800       0.133576
      870.473500       0.136496
      870.852600       0.127900
      871.231900       0.127047
      871.611600       0.114533
      871.991600       0.115808
      872.372000       0.104391
      872.752700       0.103163
      873.133700       0.098991
      873.515000       0.105759
      873.896700       0.096818
      874.278700       0.087657
      874.661100       0.088636
      875.043800       0.084771
      875.426800       0.075360
      875.810100       0.070982
      876.193800       0.069953
      876.577800       0.068242
      876.962200       0.071241
      877.346900       0.069727
      877.731900       0.064423
      878.117300       0.049693
      878.503000       0.064858
      878.889100       0.054231
      879.275500       0.058888
      879.662200       0.057497
      880.049300       0.037623
      880.436700       0.045299
      880.824500       0.038620
      881.212500       0.046488
      881.601000       0.045292
      881.989800       0.041354
      882.378900       0.034080
      882.768400       0.031576
      883.158200       0.035501
      883.548300       0.031188
      883.938800       0.030080
      884.329700       0.025278
      884.720900       0.027291
      885.112400       0.026421
      885.504300       0.025779
      885.896500       0.017483
      886.289100       0.019949
      886.682000       0.018646
      887.075300       0.022284
      887.468900       0.018744
      887.862900       0.017405
      888.257200       0.020352
      888.651900       0.022119
      889.046900       0.022716
      889.442300       0.016340
      889.838000       0.014079
      890.234100       0.018956
      890.630600       0.022094
      891.027400       0.016160
      891.424500       0.020452
      891.822000       0.012053
      892.219800       0.009872
      892.618000       0.010216
      893.016600       0.013686
      893.415500       0.010610
      893.814800       0.011617
      894.214400       0.016191
      894.614400       0.010175
      895.014800       0.013717
      895.415500       0.011843
      895.816500       0.013185
      896.218000       0.015023
      896.619700       0.003915
      897.021900       0.009067
      897.424400       0.015130
      897.827300       0.010535
      898.230500       0.008962
      898.634100       0.013255
      899.038000       0.013908
      899.442300       0.010297
      899.847000       0.007682
      900.252100       0.014592
      900.657500       0.008742
      901.063300       0.010051
      901.469400       0.012852
      901.875900       0.014534
      902.282800       0.010810
      902.690000       0.010647
      903.097600       0.007932
      903.505600       0.012174
      903.913900       0.015381
      904.322700       0.012721
      904.731700       0.019283
      905.141200       0.011124
      905.551000       0.008772
      905.961200       0.011920
      906.371800       0.011098
      906.782700       0.013583
      907.194000       0.017187
      907.605700       0.011544
      908.017800       0.010426
      908.430200       0.015031
      908.843000       0.014251
      909.256200       0.009316
      909.669800       0.011644
      910.083700       0.008315
      910.498000       0.012586
      910.912700       0.011823
      911.327800       0.012516
      911.743300       0.016138
      912.159100       0.015592
      912.575300       0.019790
      912.991900       0.013202
      913.408800       0.017139
      913.826200       0.017836
      914.243900       0.016481
      914.662000       0.013544
      915.080500       0.012868
      915.499400       0.012116
      915.918700       0.011320
      916.338300       0.018090
      916.758300       0.011492
      917.178800       0.011485
      917.599600       0.013373
      918.020700       0.011288
      918.442300       0.014051
      918.864300       0.012015
      919.286600       0.019968
      919.709400       0.014801
      920.132500       0.016472
