6,   6, MVIRI VIS channel from srf_MET5_1991348_1991349_1801-Release_S10EL_10.dat
Number of data points:
806
Wavenumber (cm-1)   Filter response
     8350.730700       0.000000
     8357.710000       0.000000
     8364.701000       0.000000
     8371.703600       0.000001
     8378.718100       0.000004
     8385.744200       0.000009
     8392.782200       0.000016
     8399.832000       0.000026
     8406.893700       0.000040
     8413.967200       0.000058
     8421.052600       0.000080
     8428.150000       0.000107
     8435.259400       0.000140
     8442.380800       0.000178
     8449.514200       0.000223
     8456.659600       0.000275
     8463.817200       0.000333
     8470.986900       0.000399
     8478.168700       0.000472
     8485.362700       0.000554
     8492.569000       0.000644
     8499.787500       0.000743
     8507.018300       0.000850
     8514.261400       0.000967
     8521.516800       0.001094
     8528.784600       0.001231
     8536.064900       0.001378
     8543.357500       0.001535
     8550.662700       0.001703
     8557.980300       0.001882
     8565.310500       0.002072
     8572.653200       0.002274
     8580.008600       0.002487
     8587.376600       0.002712
     8594.757200       0.002950
     8602.150500       0.003199
     8609.556600       0.003461
     8616.975400       0.003736
     8624.407100       0.004023
     8631.851500       0.004324
     8639.308900       0.004638
     8646.779100       0.004965
     8654.262200       0.005306
     8661.758300       0.005660
     8669.267400       0.006029
     8676.789600       0.006411
     8684.324800       0.006808
     8691.873100       0.007219
     8699.434500       0.007644
     8707.009100       0.008084
     8714.596900       0.008539
     8722.198000       0.009009
     8729.812300       0.009494
     8737.439900       0.009994
     8745.080900       0.010510
     8752.735200       0.011040
     8760.403000       0.011587
     8768.084200       0.012149
     8775.778900       0.012727
     8783.487000       0.013321
     8791.208800       0.013931
     8798.944100       0.014557
     8806.693100       0.015200
     8814.455700       0.015858
     8822.232000       0.016534
     8830.022100       0.017226
     8837.825900       0.017935
     8845.643500       0.018661
     8853.475000       0.019403
     8861.320300       0.020163
     8869.179600       0.020940
     8877.052800       0.021734
     8884.940000       0.022546
     8892.841300       0.023375
     8900.756600       0.024222
     8908.686000       0.025086
     8916.629500       0.025969
     8924.587200       0.026869
     8932.559200       0.027787
     8940.545400       0.028724
     8948.545900       0.029679
     8956.560700       0.030652
     8964.589900       0.031644
     8972.633500       0.032654
     8980.691500       0.033683
     8988.764000       0.034730
     8996.851100       0.035797
     9004.952700       0.036882
     9013.068900       0.037987
     9021.199800       0.039110
     9029.345400       0.040254
     9037.505600       0.041416
     9045.680700       0.042598
     9053.870500       0.043799
     9062.075200       0.045020
     9070.294800       0.046261
     9078.529300       0.047522
     9086.778700       0.048803
     9095.043200       0.050104
     9103.322700       0.051425
     9111.617300       0.052766
     9119.927000       0.054128
     9128.251900       0.055510
     9136.592100       0.056912
     9144.947400       0.058336
     9153.318100       0.059780
     9161.704100       0.061244
     9170.105500       0.062730
     9178.522300       0.064237
     9186.954500       0.065765
     9195.402300       0.067314
     9203.865600       0.068884
     9212.344500       0.070476
     9220.839100       0.072089
     9229.349300       0.073724
     9237.875300       0.075380
     9246.417000       0.077058
     9254.974500       0.078758
     9263.547900       0.080480
     9272.137200       0.082223
     9280.742500       0.083989
     9289.363700       0.085776
     9298.000900       0.087586
     9306.654300       0.089418
     9315.323700       0.091273
     9324.009300       0.093150
     9332.711200       0.095049
     9341.429200       0.096971
     9350.163600       0.098915
     9358.914400       0.100882
     9367.681500       0.102872
     9376.465100       0.104884
     9385.265100       0.106919
     9394.081700       0.108977
     9402.914900       0.111058
     9411.764700       0.113162
     9420.631200       0.115289
     9429.514400       0.117439
     9438.414300       0.119613
     9447.331100       0.121809
     9456.264800       0.124028
     9465.215300       0.126271
     9474.182900       0.128537
     9483.167400       0.130826
     9492.169000       0.133138
     9501.187600       0.135474
     9510.223500       0.137834
     9519.276500       0.140216
     9528.346800       0.142622
     9537.434400       0.145051
     9546.539400       0.147504
     9555.661700       0.149980
     9564.801500       0.152480
     9573.958800       0.155003
     9583.133700       0.157549
     9592.326100       0.160119
     9601.536200       0.162712
     9610.764100       0.165328
     9620.009600       0.167968
     9629.273000       0.170632
     9638.554200       0.173318
     9647.853400       0.176028
     9657.170400       0.178761
     9666.505600       0.181518
     9675.858700       0.184297
     9685.230000       0.187100
     9694.619500       0.189926
     9704.027200       0.192775
     9713.453100       0.195647
     9722.897400       0.198542
     9732.360100       0.201460
     9741.841200       0.204400
     9751.340800       0.207364
     9760.859000       0.210350
     9770.395700       0.213359
     9779.951100       0.216390
     9789.525200       0.219444
     9799.118100       0.222520
     9808.729800       0.225618
     9818.360300       0.228739
     9828.009800       0.231882
     9837.678300       0.235047
     9847.365800       0.238234
     9857.072400       0.241442
     9866.798200       0.244672
     9876.543200       0.247924
     9886.307500       0.251197
     9896.091000       0.254491
     9905.894000       0.257807
     9915.716400       0.261144
     9925.558300       0.264501
     9935.419800       0.267879
     9945.300800       0.271278
     9955.201600       0.274697
     9965.122100       0.278137
     9975.062300       0.281597
     9985.022500       0.285077
     9995.002500       0.288576
    10005.002500       0.292095
    10015.022500       0.295634
    10025.062700       0.299192
    10035.122900       0.302769
    10045.203400       0.306365
    10055.304200       0.309980
    10065.425300       0.313613
    10075.566800       0.317264
    10085.728700       0.320934
    10095.911200       0.324621
    10106.114200       0.328326
    10116.337900       0.332049
    10126.582300       0.335789
    10136.847400       0.339546
    10147.133400       0.343319
    10157.440300       0.347110
    10167.768200       0.350916
    10178.117000       0.354739
    10188.487000       0.358577
    10198.878100       0.362431
    10209.290500       0.366301
    10219.724100       0.370185
    10230.179000       0.374084
    10240.655400       0.377998
    10251.153300       0.381926
    10261.672700       0.385869
    10272.213700       0.389824
    10282.776300       0.393794
    10293.360800       0.397776
    10303.967000       0.401772
    10314.595200       0.405780
    10325.245200       0.409800
    10335.917300       0.413832
    10346.611500       0.417876
    10357.327800       0.421932
    10368.066400       0.425998
    10378.827200       0.430075
    10389.610400       0.434163
    10400.416000       0.438261
    10411.244100       0.442369
    10422.094800       0.446486
    10432.968200       0.450612
    10443.864200       0.454748
    10454.783100       0.458892
    10465.724800       0.463044
    10476.689400       0.467204
    10487.677000       0.471371
    10498.687700       0.475546
    10509.721500       0.479727
    10520.778500       0.483915
    10531.858900       0.488109
    10542.962600       0.492309
    10554.089700       0.496514
    10565.240400       0.500725
    10576.414600       0.504940
    10587.612500       0.509159
    10598.834100       0.513383
    10610.079600       0.517610
    10621.348900       0.521840
    10632.642200       0.526073
    10643.959600       0.530309
    10655.301000       0.534547
    10666.666700       0.538786
    10678.056600       0.543027
    10689.470900       0.547269
    10700.909600       0.551512
    10712.372800       0.555754
    10723.860600       0.559997
    10735.373100       0.564239
    10746.910300       0.568481
    10758.472300       0.572720
    10770.059200       0.576959
    10781.671200       0.581195
    10793.308100       0.585428
    10804.970300       0.589659
    10816.657700       0.593887
    10828.370300       0.598111
    10840.108400       0.602330
    10851.871900       0.606546
    10863.661100       0.610756
    10875.475800       0.614962
    10887.316300       0.619161
    10899.182600       0.623355
    10911.074700       0.627542
    10922.992900       0.631723
    10934.937100       0.635896
    10946.907500       0.640062
    10958.904100       0.644219
    10970.927000       0.648369
    10982.976400       0.652509
    10995.052200       0.656640
    11007.154700       0.660762
    11019.283700       0.664873
    11031.439600       0.668975
    11043.622300       0.673065
    11055.832000       0.677144
    11068.068600       0.681212
    11080.332400       0.685268
    11092.623400       0.689311
    11104.941700       0.693342
    11117.287400       0.697360
    11129.660500       0.701364
    11142.061300       0.705354
    11154.489700       0.709330
    11166.945800       0.713291
    11179.429800       0.717237
    11191.941800       0.721168
    11204.481800       0.725083
    11217.049900       0.728981
    11229.646300       0.732863
    11242.270900       0.736728
    11254.924000       0.740576
    11267.605600       0.744406
    11280.315800       0.748219
    11293.054800       0.752012
    11305.822500       0.755787
    11318.619100       0.759543
    11331.444800       0.763279
    11344.299500       0.766995
    11357.183400       0.770692
    11370.096600       0.774367
    11383.039300       0.778022
    11396.011400       0.781655
    11409.013100       0.785267
    11422.044500       0.788857
    11435.105800       0.792425
    11448.196900       0.795970
    11461.318100       0.799492
    11474.469300       0.802990
    11487.650800       0.806465
    11500.862600       0.809917
    11514.104800       0.813344
    11527.377500       0.816746
    11540.680900       0.820124
    11554.015000       0.823476
    11567.380000       0.826803
    11580.775900       0.830104
    11594.202900       0.833379
    11607.661100       0.836628
    11621.150500       0.839850
    11634.671300       0.843046
    11648.223600       0.846213
    11661.807600       0.849354
    11675.423200       0.852466
    11689.070700       0.855551
    11702.750100       0.858608
    11716.461600       0.861635
    11730.205300       0.864634
    11743.981200       0.867605
    11757.789500       0.870545
    11771.630400       0.873456
    11785.503800       0.876338
    11799.410000       0.879189
    11813.349100       0.882010
    11827.321100       0.884801
    11841.326200       0.887561
    11855.364600       0.890290
    11869.436200       0.892988
    11883.541300       0.895655
    11897.680000       0.898290
    11911.852300       0.900893
    11926.058400       0.903465
    11940.298500       0.906005
    11954.572600       0.908512
    11968.880900       0.910987
    11983.223500       0.913430
    11997.600500       0.915839
    12012.012000       0.918216
    12026.458200       0.920560
    12040.939200       0.922871
    12055.455100       0.925148
    12070.006000       0.927392
    12084.592100       0.929603
    12099.213600       0.931779
    12113.870400       0.933922
    12128.562800       0.936031
    12143.290800       0.938106
    12158.054700       0.940147
    12172.854500       0.942154
    12187.690400       0.944126
    12202.562500       0.946064
    12217.471000       0.947968
    12232.415900       0.949837
    12247.397400       0.951671
    12262.415700       0.953471
    12277.470800       0.955236
    12292.563000       0.956966
    12307.692300       0.958662
    12322.858900       0.960323
    12338.062900       0.961949
    12353.304500       0.963540
    12368.583800       0.965096
    12383.900900       0.966617
    12399.256000       0.968104
    12414.649300       0.969555
    12430.080800       0.970972
    12445.550700       0.972354
    12461.059200       0.973701
    12476.606400       0.975013
    12492.192400       0.976290
    12507.817400       0.977533
    12523.481500       0.978741
    12539.185000       0.979914
    12554.927800       0.981053
    12570.710200       0.982157
    12586.532400       0.983227
    12602.394500       0.984262
    12618.296500       0.985263
    12634.238800       0.986230
    12650.221400       0.987163
    12666.244500       0.988061
    12682.308200       0.988926
    12698.412700       0.989757
    12714.558200       0.990555
    12730.744700       0.991318
    12746.972600       0.992049
    12763.241900       0.992746
    12779.552700       0.993409
    12795.905300       0.994040
    12812.299800       0.994638
    12828.736400       0.995203
    12845.215200       0.995736
    12861.736300       0.996236
    12878.300100       0.996705
    12894.906500       0.997141
    12911.555800       0.997545
    12928.248200       0.997918
    12944.983800       0.998259
    12961.762800       0.998569
    12978.585300       0.998848
    12995.451600       0.999096
    13012.361700       0.999314
    13029.316000       0.999501
    13046.314400       0.999658
    13063.357300       0.999785
    13080.444700       0.999883
    13097.576900       0.999951
    13114.754100       0.999990
    13131.976400       1.000000
    13149.243900       0.999981
    13166.556900       0.999934
    13183.915600       0.999859
    13201.320100       0.999756
    13218.770700       0.999626
    13236.267400       0.999468
    13253.810500       0.999283
    13271.400100       0.999072
    13289.036500       0.998834
    13306.719900       0.998570
    13324.450400       0.998281
    13342.228200       0.997966
    13360.053400       0.997625
    13377.926400       0.997260
    13395.847300       0.996871
    13413.816200       0.996457
    13431.833400       0.996019
    13449.899100       0.995558
    13468.013500       0.995074
    13486.176700       0.994567
    13504.388900       0.994037
    13522.650400       0.993485
    13540.961400       0.992912
    13559.322000       0.992317
    13577.732500       0.991701
    13596.193100       0.991064
    13614.703900       0.990407
    13633.265200       0.989731
    13651.877100       0.989034
    13670.540000       0.988318
    13689.253900       0.987584
    13708.019200       0.986831
    13726.836000       0.986060
    13745.704500       0.985272
    13764.624900       0.984466
    13783.597500       0.983643
    13802.622500       0.982804
    13821.700100       0.981948
    13840.830400       0.981077
    13860.013900       0.980191
    13879.250500       0.979290
    13898.540700       0.978374
    13917.884500       0.977444
    13937.282200       0.976501
    13956.734100       0.975544
    13976.240400       0.974575
    13995.801300       0.973593
    14015.417000       0.972599
    14035.087700       0.971593
    14054.813800       0.970577
    14074.595400       0.969549
    14094.432700       0.968511
    14114.326000       0.967463
    14134.275600       0.966406
    14154.281700       0.965340
    14174.344400       0.964264
    14194.464200       0.963181
    14214.641100       0.962090
    14234.875400       0.960991
    14255.167500       0.959885
    14275.517500       0.958773
    14295.925700       0.957654
    14316.392300       0.956530
    14336.917600       0.955401
    14357.501800       0.954266
    14378.145200       0.953127
    14398.848100       0.951984
    14419.610700       0.950837
    14440.433200       0.949687
    14461.316000       0.948534
    14482.259200       0.947379
    14503.263200       0.946221
    14524.328200       0.945062
    14545.454500       0.943902
    14566.642400       0.942741
    14587.892000       0.941579
    14609.203800       0.940417
    14630.577900       0.939256
    14652.014700       0.938095
    14673.514300       0.936936
    14695.077100       0.935778
    14716.703500       0.934622
    14738.393500       0.933468
    14760.147600       0.932317
    14781.966000       0.931169
    14803.849000       0.930025
    14825.796900       0.928884
    14847.809900       0.927747
    14869.888500       0.926615
    14892.032800       0.925488
    14914.243100       0.924366
    14936.519800       0.923250
    14958.863100       0.922139
    14981.273400       0.921035
    15003.750900       0.919938
    15026.296000       0.918847
    15048.909000       0.917764
    15071.590100       0.916688
    15094.339600       0.915620
    15117.158000       0.914560
    15140.045400       0.913509
    15163.002300       0.912467
    15186.028900       0.911434
    15209.125500       0.910410
    15232.292500       0.909396
    15255.530100       0.908392
    15278.838800       0.907399
    15302.218800       0.906415
    15325.670500       0.905443
    15349.194200       0.904482
    15372.790200       0.903532
    15396.458800       0.902594
    15420.200500       0.901667
    15444.015400       0.900752
    15467.904100       0.899850
    15491.866800       0.898960
    15515.903800       0.898083
    15540.015500       0.897219
    15564.202300       0.896368
    15588.464500       0.895530
    15612.802500       0.894706
    15637.216600       0.893895
    15661.707100       0.893098
    15686.274500       0.892315
    15710.919100       0.891547
    15735.641200       0.890792
    15760.441300       0.890052
    15785.319700       0.889326
    15810.276700       0.888616
    15835.312700       0.887919
    15860.428200       0.887238
    15885.623500       0.886572
    15910.899000       0.885921
    15936.255000       0.885285
    15961.691900       0.884664
    15987.210200       0.884058
    16012.810200       0.883468
    16038.492400       0.882893
    16064.257000       0.882333
    16090.104600       0.881789
    16116.035500       0.881260
    16142.050000       0.880747
    16168.148700       0.880249
    16194.332000       0.879766
    16220.600200       0.879299
    16246.953700       0.878848
    16273.393000       0.878411
    16299.918500       0.877990
    16326.530600       0.877584
    16353.229800       0.877193
    16380.016400       0.876818
    16406.890900       0.876457
    16433.853700       0.876111
    16460.905300       0.875780
    16488.046200       0.875463
    16515.276600       0.875161
    16542.597200       0.874873
    16570.008300       0.874600
    16597.510400       0.874340
    16625.103900       0.874095
    16652.789300       0.873863
    16680.567100       0.873644
    16708.437800       0.873439
    16736.401700       0.873247
    16764.459300       0.873067
    16792.611300       0.872900
    16820.857900       0.872746
    16849.199700       0.872604
    16877.637100       0.872473
    16906.170800       0.872354
    16934.801000       0.872246
    16963.528400       0.872149
    16992.353400       0.872063
    17021.276600       0.871987
    17050.298400       0.871920
    17079.419300       0.871864
    17108.639900       0.871817
    17137.960600       0.871778
    17167.382000       0.871748
    17196.904600       0.871726
    17226.528900       0.871712
    17256.255400       0.871705
    17286.084700       0.871705
    17316.017300       0.871712
    17346.053800       0.871724
    17376.194600       0.871742
    17406.440400       0.871765
    17436.791600       0.871793
    17467.248900       0.871824
    17497.812800       0.871860
    17528.483800       0.871898
    17559.262500       0.871939
    17590.149500       0.871981
    17621.145400       0.872026
    17652.250700       0.872071
    17683.466000       0.872116
    17714.791900       0.872162
    17746.228900       0.872206
    17777.777800       0.872249
    17809.439000       0.872291
    17841.213200       0.872329
    17873.101000       0.872364
    17905.103000       0.872396
    17937.219700       0.872422
    17969.451900       0.872444
    18001.800200       0.872460
    18034.265100       0.872469
    18066.847300       0.872471
    18099.547500       0.872465
    18132.366300       0.872450
    18165.304300       0.872426
    18198.362100       0.872392
    18231.540600       0.872347
    18264.840200       0.872291
    18298.261700       0.872222
    18331.805700       0.872140
    18365.472900       0.872044
    18399.264000       0.871934
    18433.179700       0.871808
    18467.220700       0.871666
    18501.387600       0.871508
    18535.681200       0.871331
    18570.102100       0.871136
    18604.651200       0.870921
    18639.329000       0.870686
    18674.136300       0.870429
    18709.073900       0.870151
    18744.142500       0.869850
    18779.342700       0.869525
    18814.675400       0.869176
    18850.141400       0.868801
    18885.741300       0.868400
    18921.475900       0.867971
    18957.346000       0.867515
    18993.352300       0.867029
    19029.495700       0.866514
    19065.776900       0.865967
    19102.196800       0.865389
    19138.756000       0.864778
    19175.455400       0.864133
    19212.295900       0.863454
    19249.278200       0.862739
    19286.403100       0.861988
    19323.671500       0.861200
    19361.084200       0.860373
    19398.642100       0.859507
    19436.346000       0.858600
    19474.196700       0.857652
    19512.195100       0.856662
    19550.342100       0.855629
    19588.638600       0.854552
    19627.085400       0.853430
    19665.683400       0.852261
    19704.433500       0.851046
    19743.336600       0.849783
    19782.393700       0.848470
    19821.605600       0.847108
    19860.973200       0.845694
    19900.497500       0.844229
    19940.179500       0.842711
    19980.020000       0.841139
    20020.020000       0.839512
    20060.180500       0.837829
    20100.502500       0.836089
    20140.986900       0.834292
    20181.634700       0.832436
    20222.446900       0.830520
    20263.424500       0.828543
    20304.568500       0.826505
    20345.880000       0.824404
    20387.359800       0.822240
    20429.009200       0.820011
    20470.829100       0.817717
    20512.820500       0.815357
    20554.984600       0.812929
    20597.322300       0.810433
    20639.834900       0.807868
    20682.523300       0.805232
    20725.388600       0.802526
    20768.432000       0.799748
    20811.654500       0.796897
    20855.057400       0.793972
    20898.641600       0.790973
    20942.408400       0.787899
    20986.358900       0.784748
    21030.494200       0.781520
    21074.815600       0.778214
    21119.324200       0.774830
    21164.021200       0.771366
    21208.907700       0.767821
    21253.985100       0.764195
    21299.254500       0.760488
    21344.717200       0.756697
    21390.374300       0.752823
    21436.227200       0.748865
    21482.277100       0.744822
    21528.525300       0.740693
    21574.973000       0.736478
    21621.621600       0.732176
    21668.472400       0.727786
    21715.526600       0.723308
    21762.785600       0.718741
    21810.250800       0.714084
    21857.923500       0.709337
    21905.805000       0.704499
    21953.896800       0.699570
    22002.200200       0.694549
    22050.716600       0.689435
    22099.447500       0.684229
    22148.394200       0.678930
    22197.558300       0.673536
    22246.941000       0.668048
    22296.544000       0.662466
    22346.368700       0.656789
    22396.416600       0.651016
    22446.689100       0.645147
    22497.187900       0.639183
    22547.914300       0.633122
    22598.870100       0.626964
    22650.056600       0.620710
    22701.475600       0.614358
    22753.128600       0.607910
    22805.017100       0.601364
    22857.142900       0.594720
    22909.507400       0.587979
    22962.112500       0.581140
    23014.959700       0.574204
    23068.050700       0.567170
    23121.387300       0.560038
    23174.971000       0.552809
    23228.803700       0.545482
    23282.887100       0.538059
    23337.222900       0.530537
    23391.812900       0.522919
    23446.658900       0.515204
    23501.762600       0.507393
    23557.126000       0.499485
    23612.750900       0.491482
    23668.639100       0.483384
    23724.792400       0.475190
    23781.212800       0.466902
    23837.902300       0.458520
    23894.862600       0.450045
    23952.095800       0.441476
    24009.603800       0.432816
    24067.388700       0.424064
    24125.452400       0.415221
    24183.796900       0.406288
    24242.424200       0.397266
    24301.336600       0.388155
    24360.535900       0.378957
    24420.024400       0.369673
    24479.804200       0.360303
    24539.877300       0.350848
    24600.246000       0.341310
    24660.912500       0.331690
    24721.878900       0.321989
    24783.147500       0.312208
    24844.720500       0.302348
    24906.600200       0.292411
    24968.789000       0.282399
    25031.289100       0.272313
    25094.102900       0.262153
    25157.232700       0.251922
    25220.681000       0.241622
    25284.450100       0.231254
    25348.542500       0.220819
    25412.960600       0.210320
    25477.707000       0.199759
