15,   channel 15 SRF from file SRF_SSH-1_Delivery_220520/SRF_DMSP-F1_SSH_Chan15.asc received June 2022 from SPASCIA
Number of data points:
292
Wavenumber (cm-1)   Filter response
      821.100000       0.000930
      821.200000       0.001030
      821.300000       0.001130
      821.400000       0.001240
      821.500000       0.001360
      821.600000       0.001500
      821.700000       0.001640
      821.800000       0.001800
      821.900000       0.001970
      822.000000       0.002150
      822.100000       0.002360
      822.200000       0.002580
      822.300000       0.002810
      822.400000       0.003070
      822.500000       0.003350
      822.600000       0.003650
      822.700000       0.003980
      822.800000       0.004330
      822.900000       0.004710
      823.000000       0.005120
      823.100000       0.005570
      823.200000       0.006040
      823.300000       0.006560
      823.400000       0.007110
      823.500000       0.007710
      823.600000       0.008350
      823.700000       0.009030
      823.800000       0.009770
      823.900000       0.010560
      824.000000       0.011400
      824.100000       0.012310
      824.200000       0.013280
      824.300000       0.014310
      824.400000       0.015420
      824.500000       0.016600
      824.600000       0.017860
      824.700000       0.019200
      824.800000       0.020630
      824.900000       0.022150
      825.000000       0.023770
      825.100000       0.025490
      825.200000       0.027310
      825.300000       0.029250
      825.400000       0.031300
      825.500000       0.033480
      825.600000       0.035780
      825.700000       0.038220
      825.800000       0.040800
      825.900000       0.043520
      826.000000       0.046390
      826.100000       0.049420
      826.200000       0.052610
      826.300000       0.055970
      826.400000       0.059510
      826.500000       0.063230
      826.600000       0.067130
      826.700000       0.071230
      826.800000       0.075530
      826.900000       0.080040
      827.000000       0.084770
      827.100000       0.089710
      827.200000       0.094880
      827.300000       0.100200
      827.400000       0.104150
      827.500000       0.108200
      827.600000       0.112340
      827.700000       0.116590
      827.800000       0.120940
      827.900000       0.125390
      828.000000       0.129950
      828.100000       0.134620
      828.200000       0.139400
      828.300000       0.144300
      828.400000       0.149330
      828.500000       0.154480
      828.600000       0.159770
      828.700000       0.165200
      828.800000       0.170770
      828.900000       0.176510
      829.000000       0.182400
      829.100000       0.188470
      829.200000       0.194720
      829.300000       0.201170
      829.400000       0.207810
      829.500000       0.214670
      829.600000       0.221760
      829.700000       0.229080
      829.800000       0.236650
      829.900000       0.244490
      830.000000       0.252590
      830.100000       0.260990
      830.200000       0.269690
      830.300000       0.278710
      830.400000       0.288050
      830.500000       0.297730
      830.600000       0.307760
      830.700000       0.318160
      830.800000       0.328930
      830.900000       0.340080
      831.000000       0.351630
      831.100000       0.363580
      831.200000       0.375930
      831.300000       0.388700
      831.400000       0.401890
      831.500000       0.415490
      831.600000       0.429500
      831.700000       0.443930
      831.800000       0.458770
      831.900000       0.474010
      832.000000       0.489640
      832.100000       0.506760
      832.200000       0.526200
      832.300000       0.545810
      832.400000       0.565530
      832.500000       0.585350
      832.600000       0.605200
      832.700000       0.625060
      832.800000       0.644880
      832.900000       0.664610
      833.000000       0.684220
      833.100000       0.703640
      833.200000       0.722840
      833.300000       0.741770
      833.400000       0.760380
      833.500000       0.778620
      833.600000       0.796450
      833.700000       0.813810
      833.800000       0.830650
      833.900000       0.846930
      834.000000       0.862610
      834.100000       0.877640
      834.200000       0.891970
      834.300000       0.905560
      834.400000       0.918380
      834.500000       0.930370
      834.600000       0.941520
      834.700000       0.951770
      834.800000       0.961110
      834.900000       0.969500
      835.000000       0.976910
      835.100000       0.983320
      835.200000       0.988720
      835.300000       0.993070
      835.400000       0.996380
      835.500000       0.998630
      835.600000       0.999810
      835.700000       0.999910
      835.800000       0.998950
      835.900000       0.996920
      836.000000       0.993820
      836.100000       0.989670
      836.200000       0.984480
      836.300000       0.978270
      836.400000       0.971060
      836.500000       0.962860
      836.600000       0.953720
      836.700000       0.943640
      836.800000       0.932670
      836.900000       0.920840
      837.000000       0.908190
      837.100000       0.894750
      837.200000       0.880560
      837.300000       0.865670
      837.400000       0.850120
      837.500000       0.833950
      837.600000       0.817220
      837.700000       0.799960
      837.800000       0.782220
      837.900000       0.764060
      838.000000       0.745520
      838.100000       0.726650
      838.200000       0.707500
      838.300000       0.688120
      838.400000       0.668550
      838.500000       0.648830
      838.600000       0.629030
      838.700000       0.609180
      838.800000       0.589310
      838.900000       0.569490
      839.000000       0.549740
      839.100000       0.530110
      839.200000       0.510630
      839.300000       0.492810
      839.400000       0.477110
      839.500000       0.461790
      839.600000       0.446870
      839.700000       0.432360
      839.800000       0.418260
      839.900000       0.404570
      840.000000       0.391310
      840.100000       0.378450
      840.200000       0.366020
      840.300000       0.353990
      840.400000       0.342360
      840.500000       0.331130
      840.600000       0.320280
      840.700000       0.309810
      840.800000       0.299700
      840.900000       0.289950
      841.000000       0.280550
      841.100000       0.271470
      841.200000       0.262710
      841.300000       0.254250
      841.400000       0.246080
      841.500000       0.238200
      841.600000       0.230570
      841.700000       0.223200
      841.800000       0.216070
      841.900000       0.209170
      842.000000       0.202480
      842.100000       0.196000
      842.200000       0.189710
      842.300000       0.183600
      842.400000       0.177670
      842.500000       0.171910
      842.600000       0.166300
      842.700000       0.160840
      842.800000       0.155530
      842.900000       0.150350
      843.000000       0.145300
      843.100000       0.140370
      843.200000       0.135560
      843.300000       0.130870
      843.400000       0.126290
      843.500000       0.121820
      843.600000       0.117450
      843.700000       0.113180
      843.800000       0.109020
      843.900000       0.104950
      844.000000       0.100980
      844.100000       0.095940
      844.200000       0.090720
      844.300000       0.085740
      844.400000       0.080970
      844.500000       0.076420
      844.600000       0.072080
      844.700000       0.067940
      844.800000       0.063990
      844.900000       0.060240
      845.000000       0.056660
      845.100000       0.053270
      845.200000       0.050040
      845.300000       0.046980
      845.400000       0.044080
      845.500000       0.041330
      845.600000       0.038720
      845.700000       0.036260
      845.800000       0.033930
      845.900000       0.031730
      846.000000       0.029650
      846.100000       0.027690
      846.200000       0.025840
      846.300000       0.024100
      846.400000       0.022470
      846.500000       0.020930
      846.600000       0.019480
      846.700000       0.018120
      846.800000       0.016840
      846.900000       0.015650
      847.000000       0.014530
      847.100000       0.013480
      847.200000       0.012500
      847.300000       0.011580
      847.400000       0.010720
      847.500000       0.009920
      847.600000       0.009170
      847.700000       0.008480
      847.800000       0.007830
      847.900000       0.007230
      848.000000       0.006670
      848.100000       0.006140
      848.200000       0.005660
      848.300000       0.005210
      848.400000       0.004790
      848.500000       0.004400
      848.600000       0.004050
      848.700000       0.003710
      848.800000       0.003410
      848.900000       0.003120
      849.000000       0.002860
      849.100000       0.002620
      849.200000       0.002400
      849.300000       0.002190
      849.400000       0.002000
      849.500000       0.001830
      849.600000       0.001670
      849.700000       0.001520
      849.800000       0.001390
      849.900000       0.001260
      850.000000       0.001150
      850.100000       0.001050
      850.200000       0.000950
