49,   49, MVIRI VIS channel from srf_MET2_1988078_1988079_1801-Release_S10EL_10.dat
Number of data points:
730
Wavenumber (cm-1)   Filter response
     8916.629500       0.000000
     8924.587200       0.000000
     8932.559200       0.000002
     8940.545400       0.000012
     8948.545900       0.000032
     8956.560700       0.000069
     8964.589900       0.000127
     8972.633500       0.000209
     8980.691500       0.000320
     8988.764000       0.000463
     8996.851100       0.000643
     9004.952700       0.000862
     9013.068900       0.001125
     9021.199800       0.001434
     9029.345400       0.001792
     9037.505600       0.002202
     9045.680700       0.002668
     9053.870500       0.003191
     9062.075200       0.003774
     9070.294800       0.004420
     9078.529300       0.005131
     9086.778700       0.005908
     9095.043200       0.006755
     9103.322700       0.007672
     9111.617300       0.008662
     9119.927000       0.009726
     9128.251900       0.010865
     9136.592100       0.012082
     9144.947400       0.013377
     9153.318100       0.014752
     9161.704100       0.016207
     9170.105500       0.017744
     9178.522300       0.019363
     9186.954500       0.021066
     9195.402300       0.022853
     9203.865600       0.024725
     9212.344500       0.026683
     9220.839100       0.028726
     9229.349300       0.030855
     9237.875300       0.033071
     9246.417000       0.035373
     9254.974500       0.037763
     9263.547900       0.040239
     9272.137200       0.042803
     9280.742500       0.045453
     9289.363700       0.048191
     9298.000900       0.051015
     9306.654300       0.053925
     9315.323700       0.056922
     9324.009300       0.060004
     9332.711200       0.063172
     9341.429200       0.066424
     9350.163600       0.069762
     9358.914400       0.073182
     9367.681500       0.076687
     9376.465100       0.080273
     9385.265100       0.083942
     9394.081700       0.087691
     9402.914900       0.091521
     9411.764700       0.095430
     9420.631200       0.099419
     9429.514400       0.103484
     9438.414300       0.107626
     9447.331100       0.111844
     9456.264800       0.116137
     9465.215300       0.120504
     9474.182900       0.124943
     9483.167400       0.129454
     9492.169000       0.134035
     9501.187600       0.138685
     9510.223500       0.143404
     9519.276500       0.148189
     9528.346800       0.153041
     9537.434400       0.157956
     9546.539400       0.162935
     9555.661700       0.167976
     9564.801500       0.173077
     9573.958800       0.178237
     9583.133700       0.183456
     9592.326100       0.188731
     9601.536200       0.194061
     9610.764100       0.199445
     9620.009600       0.204882
     9629.273000       0.210371
     9638.554200       0.215908
     9647.853400       0.221494
     9657.170400       0.227127
     9666.505600       0.232805
     9675.858700       0.238528
     9685.230000       0.244293
     9694.619500       0.250100
     9704.027200       0.255945
     9713.453100       0.261830
     9722.897400       0.267752
     9732.360100       0.273709
     9741.841200       0.279700
     9751.340800       0.285723
     9760.859000       0.291778
     9770.395700       0.297863
     9779.951100       0.303975
     9789.525200       0.310115
     9799.118100       0.316281
     9808.729800       0.322470
     9818.360300       0.328682
     9828.009800       0.334914
     9837.678300       0.341167
     9847.365800       0.347439
     9857.072400       0.353726
     9866.798200       0.360031
     9876.543200       0.366348
     9886.307500       0.372679
     9896.091000       0.379022
     9905.894000       0.385374
     9915.716400       0.391736
     9925.558300       0.398105
     9935.419800       0.404480
     9945.300800       0.410861
     9955.201600       0.417244
     9965.122100       0.423630
     9975.062300       0.430017
     9985.022500       0.436404
     9995.002500       0.442790
    10005.002500       0.449173
    10015.022500       0.455551
    10025.062700       0.461925
    10035.122900       0.468292
    10045.203400       0.474652
    10055.304200       0.481004
    10065.425300       0.487345
    10075.566800       0.493675
    10085.728700       0.499994
    10095.911200       0.506299
    10106.114200       0.512590
    10116.337900       0.518866
    10126.582300       0.525125
    10136.847400       0.531367
    10147.133400       0.537590
    10157.440300       0.543794
    10167.768200       0.549977
    10178.117000       0.556139
    10188.487000       0.562279
    10198.878100       0.568395
    10209.290500       0.574487
    10219.724100       0.580553
    10230.179000       0.586593
    10240.655400       0.592607
    10251.153300       0.598593
    10261.672700       0.604549
    10272.213700       0.610476
    10282.776300       0.616373
    10293.360800       0.622239
    10303.967000       0.628073
    10314.595200       0.633874
    10325.245200       0.639641
    10335.917300       0.645375
    10346.611500       0.651073
    10357.327800       0.656736
    10368.066400       0.662362
    10378.827200       0.667952
    10389.610400       0.673504
    10400.416000       0.679018
    10411.244100       0.684492
    10422.094800       0.689928
    10432.968200       0.695323
    10443.864200       0.700678
    10454.783100       0.705991
    10465.724800       0.711263
    10476.689400       0.716492
    10487.677000       0.721679
    10498.687700       0.726823
    10509.721500       0.731923
    10520.778500       0.736979
    10531.858900       0.741990
    10542.962600       0.746956
    10554.089700       0.751877
    10565.240400       0.756752
    10576.414600       0.761581
    10587.612500       0.766363
    10598.834100       0.771099
    10610.079600       0.775787
    10621.348900       0.780428
    10632.642200       0.785020
    10643.959600       0.789565
    10655.301000       0.794061
    10666.666700       0.798509
    10678.056600       0.802908
    10689.470900       0.807257
    10700.909600       0.811558
    10712.372800       0.815808
    10723.860600       0.820009
    10735.373100       0.824160
    10746.910300       0.828261
    10758.472300       0.832311
    10770.059200       0.836311
    10781.671200       0.840261
    10793.308100       0.844160
    10804.970300       0.848008
    10816.657700       0.851805
    10828.370300       0.855552
    10840.108400       0.859247
    10851.871900       0.862891
    10863.661100       0.866485
    10875.475800       0.870027
    10887.316300       0.873518
    10899.182600       0.876958
    10911.074700       0.880347
    10922.992900       0.883684
    10934.937100       0.886970
    10946.907500       0.890206
    10958.904100       0.893390
    10970.927000       0.896523
    10982.976400       0.899605
    10995.052200       0.902637
    11007.154700       0.905617
    11019.283700       0.908547
    11031.439600       0.911427
    11043.622300       0.914255
    11055.832000       0.917034
    11068.068600       0.919762
    11080.332400       0.922440
    11092.623400       0.925067
    11104.941700       0.927645
    11117.287400       0.930174
    11129.660500       0.932653
    11142.061300       0.935082
    11154.489700       0.937462
    11166.945800       0.939793
    11179.429800       0.942076
    11191.941800       0.944310
    11204.481800       0.946495
    11217.049900       0.948632
    11229.646300       0.950721
    11242.270900       0.952762
    11254.924000       0.954756
    11267.605600       0.956702
    11280.315800       0.958602
    11293.054800       0.960454
    11305.822500       0.962260
    11318.619100       0.964019
    11331.444800       0.965733
    11344.299500       0.967400
    11357.183400       0.969022
    11370.096600       0.970599
    11383.039300       0.972131
    11396.011400       0.973618
    11409.013100       0.975060
    11422.044500       0.976459
    11435.105800       0.977813
    11448.196900       0.979124
    11461.318100       0.980392
    11474.469300       0.981616
    11487.650800       0.982798
    11500.862600       0.983938
    11514.104800       0.985035
    11527.377500       0.986091
    11540.680900       0.987105
    11554.015000       0.988078
    11567.380000       0.989011
    11580.775900       0.989902
    11594.202900       0.990754
    11607.661100       0.991566
    11621.150500       0.992338
    11634.671300       0.993071
    11648.223600       0.993765
    11661.807600       0.994420
    11675.423200       0.995038
    11689.070700       0.995617
    11702.750100       0.996159
    11716.461600       0.996663
    11730.205300       0.997131
    11743.981200       0.997562
    11757.789500       0.997957
    11771.630400       0.998315
    11785.503800       0.998639
    11799.410000       0.998927
    11813.349100       0.999180
    11827.321100       0.999398
    11841.326200       0.999582
    11855.364600       0.999732
    11869.436200       0.999849
    11883.541300       0.999932
    11897.680000       0.999982
    11911.852300       1.000000
    11926.058400       0.999985
    11940.298500       0.999939
    11954.572600       0.999860
    11968.880900       0.999751
    11983.223500       0.999610
    11997.600500       0.999439
    12012.012000       0.999237
    12026.458200       0.999005
    12040.939200       0.998743
    12055.455100       0.998452
    12070.006000       0.998132
    12084.592100       0.997783
    12099.213600       0.997406
    12113.870400       0.997000
    12128.562800       0.996566
    12143.290800       0.996105
    12158.054700       0.995617
    12172.854500       0.995101
    12187.690400       0.994559
    12202.562500       0.993990
    12217.471000       0.993396
    12232.415900       0.992775
    12247.397400       0.992129
    12262.415700       0.991458
    12277.470800       0.990761
    12292.563000       0.990040
    12307.692300       0.989295
    12322.858900       0.988525
    12338.062900       0.987731
    12353.304500       0.986914
    12368.583800       0.986074
    12383.900900       0.985210
    12399.256000       0.984324
    12414.649300       0.983415
    12430.080800       0.982483
    12445.550700       0.981530
    12461.059200       0.980555
    12476.606400       0.979558
    12492.192400       0.978540
    12507.817400       0.977500
    12523.481500       0.976440
    12539.185000       0.975359
    12554.927800       0.974258
    12570.710200       0.973137
    12586.532400       0.971996
    12602.394500       0.970835
    12618.296500       0.969654
    12634.238800       0.968455
    12650.221400       0.967236
    12666.244500       0.965998
    12682.308200       0.964742
    12698.412700       0.963467
    12714.558200       0.962174
    12730.744700       0.960863
    12746.972600       0.959534
    12763.241900       0.958187
    12779.552700       0.956823
    12795.905300       0.955442
    12812.299800       0.954043
    12828.736400       0.952628
    12845.215200       0.951196
    12861.736300       0.949747
    12878.300100       0.948282
    12894.906500       0.946800
    12911.555800       0.945303
    12928.248200       0.943790
    12944.983800       0.942260
    12961.762800       0.940716
    12978.585300       0.939156
    12995.451600       0.937580
    13012.361700       0.935989
    13029.316000       0.934384
    13046.314400       0.932763
    13063.357300       0.931128
    13080.444700       0.929479
    13097.576900       0.927815
    13114.754100       0.926136
    13131.976400       0.924444
    13149.243900       0.922737
    13166.556900       0.921017
    13183.915600       0.919282
    13201.320100       0.917534
    13218.770700       0.915773
    13236.267400       0.913998
    13253.810500       0.912210
    13271.400100       0.910408
    13289.036500       0.908594
    13306.719900       0.906766
    13324.450400       0.904926
    13342.228200       0.903073
    13360.053400       0.901207
    13377.926400       0.899329
    13395.847300       0.897438
    13413.816200       0.895535
    13431.833400       0.893619
    13449.899100       0.891692
    13468.013500       0.889752
    13486.176700       0.887800
    13504.388900       0.885836
    13522.650400       0.883861
    13540.961400       0.881874
    13559.322000       0.879875
    13577.732500       0.877865
    13596.193100       0.875843
    13614.703900       0.873810
    13633.265200       0.871765
    13651.877100       0.869709
    13670.540000       0.867643
    13689.253900       0.865564
    13708.019200       0.863475
    13726.836000       0.861375
    13745.704500       0.859265
    13764.624900       0.857143
    13783.597500       0.855010
    13802.622500       0.852867
    13821.700100       0.850714
    13840.830400       0.848549
    13860.013900       0.846375
    13879.250500       0.844190
    13898.540700       0.841994
    13917.884500       0.839789
    13937.282200       0.837573
    13956.734100       0.835347
    13976.240400       0.833111
    13995.801300       0.830865
    14015.417000       0.828609
    14035.087700       0.826343
    14054.813800       0.824068
    14074.595400       0.821783
    14094.432700       0.819488
    14114.326000       0.817183
    14134.275600       0.814869
    14154.281700       0.812545
    14174.344400       0.810212
    14194.464200       0.807870
    14214.641100       0.805518
    14234.875400       0.803157
    14255.167500       0.800787
    14275.517500       0.798408
    14295.925700       0.796019
    14316.392300       0.793622
    14336.917600       0.791216
    14357.501800       0.788801
    14378.145200       0.786377
    14398.848100       0.783945
    14419.610700       0.781503
    14440.433200       0.779054
    14461.316000       0.776596
    14482.259200       0.774129
    14503.263200       0.771654
    14524.328200       0.769171
    14545.454500       0.766679
    14566.642400       0.764179
    14587.892000       0.761672
    14609.203800       0.759156
    14630.577900       0.756632
    14652.014700       0.754101
    14673.514300       0.751561
    14695.077100       0.749014
    14716.703500       0.746460
    14738.393500       0.743897
    14760.147600       0.741328
    14781.966000       0.738751
    14803.849000       0.736166
    14825.796900       0.733575
    14847.809900       0.730976
    14869.888500       0.728371
    14892.032800       0.725758
    14914.243100       0.723139
    14936.519800       0.720512
    14958.863100       0.717879
    14981.273400       0.715240
    15003.750900       0.712594
    15026.296000       0.709941
    15048.909000       0.707283
    15071.590100       0.704618
    15094.339600       0.701947
    15117.158000       0.699270
    15140.045400       0.696587
    15163.002300       0.693898
    15186.028900       0.691203
    15209.125500       0.688503
    15232.292500       0.685798
    15255.530100       0.683087
    15278.838800       0.680371
    15302.218800       0.677649
    15325.670500       0.674923
    15349.194200       0.672191
    15372.790200       0.669455
    15396.458800       0.666714
    15420.200500       0.663969
    15444.015400       0.661219
    15467.904100       0.658465
    15491.866800       0.655706
    15515.903800       0.652944
    15540.015500       0.650177
    15564.202300       0.647406
    15588.464500       0.644632
    15612.802500       0.641854
    15637.216600       0.639073
    15661.707100       0.636288
    15686.274500       0.633500
    15710.919100       0.630709
    15735.641200       0.627915
    15760.441300       0.625119
    15785.319700       0.622319
    15810.276700       0.619517
    15835.312700       0.616713
    15860.428200       0.613906
    15885.623500       0.611097
    15910.899000       0.608286
    15936.255000       0.605473
    15961.691900       0.602659
    15987.210200       0.599843
    16012.810200       0.597025
    16038.492400       0.594207
    16064.257000       0.591387
    16090.104600       0.588566
    16116.035500       0.585744
    16142.050000       0.582921
    16168.148700       0.580098
    16194.332000       0.577275
    16220.600200       0.574451
    16246.953700       0.571627
    16273.393000       0.568803
    16299.918500       0.565979
    16326.530600       0.563156
    16353.229800       0.560333
    16380.016400       0.557511
    16406.890900       0.554689
    16433.853700       0.551868
    16460.905300       0.549049
    16488.046200       0.546230
    16515.276600       0.543413
    16542.597200       0.540598
    16570.008300       0.537784
    16597.510400       0.534972
    16625.103900       0.532162
    16652.789300       0.529354
    16680.567100       0.526548
    16708.437800       0.523745
    16736.401700       0.520944
    16764.459300       0.518146
    16792.611300       0.515351
    16820.857900       0.512559
    16849.199700       0.509770
    16877.637100       0.506984
    16906.170800       0.504201
    16934.801000       0.501423
    16963.528400       0.498648
    16992.353400       0.495876
    17021.276600       0.493109
    17050.298400       0.490346
    17079.419300       0.487587
    17108.639900       0.484832
    17137.960600       0.482082
    17167.382000       0.479337
    17196.904600       0.476597
    17226.528900       0.473861
    17256.255400       0.471130
    17286.084700       0.468405
    17316.017300       0.465685
    17346.053800       0.462970
    17376.194600       0.460261
    17406.440400       0.457558
    17436.791600       0.454860
    17467.248900       0.452168
    17497.812800       0.449482
    17528.483800       0.446803
    17559.262500       0.444129
    17590.149500       0.441462
    17621.145400       0.438802
    17652.250700       0.436148
    17683.466000       0.433500
    17714.791900       0.430859
    17746.228900       0.428225
    17777.777800       0.425598
    17809.439000       0.422978
    17841.213200       0.420366
    17873.101000       0.417760
    17905.103000       0.415161
    17937.219700       0.412570
    17969.451900       0.409987
    18001.800200       0.407410
    18034.265100       0.404842
    18066.847300       0.402281
    18099.547500       0.399727
    18132.366300       0.397182
    18165.304300       0.394644
    18198.362100       0.392114
    18231.540600       0.389592
    18264.840200       0.387078
    18298.261700       0.384571
    18331.805700       0.382073
    18365.472900       0.379583
    18399.264000       0.377101
    18433.179700       0.374627
    18467.220700       0.372161
    18501.387600       0.369703
    18535.681200       0.367254
    18570.102100       0.364812
    18604.651200       0.362379
    18639.329000       0.359954
    18674.136300       0.357537
    18709.073900       0.355129
    18744.142500       0.352728
    18779.342700       0.350336
    18814.675400       0.347951
    18850.141400       0.345575
    18885.741300       0.343207
    18921.475900       0.340847
    18957.346000       0.338495
    18993.352300       0.336151
    19029.495700       0.333815
    19065.776900       0.331487
    19102.196800       0.329167
    19138.756000       0.326854
    19175.455400       0.324549
    19212.295900       0.322252
    19249.278200       0.319963
    19286.403100       0.317681
    19323.671500       0.315406
    19361.084200       0.313139
    19398.642100       0.310879
    19436.346000       0.308627
    19474.196700       0.306381
    19512.195100       0.304143
    19550.342100       0.301911
    19588.638600       0.299686
    19627.085400       0.297468
    19665.683400       0.295256
    19704.433500       0.293051
    19743.336600       0.290853
    19782.393700       0.288660
    19821.605600       0.286473
    19860.973200       0.284293
    19900.497500       0.282118
    19940.179500       0.279949
    19980.020000       0.277786
    20020.020000       0.275627
    20060.180500       0.273474
    20100.502500       0.271326
    20140.986900       0.269183
    20181.634700       0.267045
    20222.446900       0.264912
    20263.424500       0.262782
    20304.568500       0.260657
    20345.880000       0.258536
    20387.359800       0.256419
    20429.009200       0.254305
    20470.829100       0.252196
    20512.820500       0.250089
    20554.984600       0.247985
    20597.322300       0.245885
    20639.834900       0.243787
    20682.523300       0.241692
    20725.388600       0.239598
    20768.432000       0.237508
    20811.654500       0.235419
    20855.057400       0.233331
    20898.641600       0.231246
    20942.408400       0.229161
    20986.358900       0.227078
    21030.494200       0.224995
    21074.815600       0.222914
    21119.324200       0.220832
    21164.021200       0.218751
    21208.907700       0.216670
    21253.985100       0.214589
    21299.254500       0.212507
    21344.717200       0.210424
    21390.374300       0.208341
    21436.227200       0.206257
    21482.277100       0.204171
    21528.525300       0.202084
    21574.973000       0.199995
    21621.621600       0.197905
    21668.472400       0.195812
    21715.526600       0.193716
    21762.785600       0.191619
    21810.250800       0.189518
    21857.923500       0.187414
    21905.805000       0.185308
    21953.896800       0.183197
    22002.200200       0.181084
    22050.716600       0.178966
    22099.447500       0.176845
    22148.394200       0.174719
    22197.558300       0.172589
    22246.941000       0.170454
    22296.544000       0.168315
    22346.368700       0.166171
    22396.416600       0.164022
    22446.689100       0.161868
    22497.187900       0.159708
    22547.914300       0.157543
    22598.870100       0.155372
    22650.056600       0.153196
    22701.475600       0.151013
    22753.128600       0.148825
    22805.017100       0.146630
    22857.142900       0.144429
    22909.507400       0.142222
    22962.112500       0.140009
    23014.959700       0.137789
    23068.050700       0.135562
    23121.387300       0.133329
    23174.971000       0.131089
    23228.803700       0.128842
    23282.887100       0.126589
    23337.222900       0.124329
    23391.812900       0.122062
    23446.658900       0.119788
    23501.762600       0.117507
    23557.126000       0.115220
    23612.750900       0.112926
    23668.639100       0.110626
    23724.792400       0.108318
    23781.212800       0.106005
    23837.902300       0.103685
    23894.862600       0.101359
    23952.095800       0.099026
    24009.603800       0.096688
    24067.388700       0.094343
    24125.452400       0.091994
    24183.796900       0.089638
    24242.424200       0.087278
    24301.336600       0.084912
    24360.535900       0.082542
    24420.024400       0.080167
    24479.804200       0.077788
    24539.877300       0.075405
    24600.246000       0.073019
    24660.912500       0.070629
    24721.878900       0.068237
    24783.147500       0.065842
    24844.720500       0.063445
    24906.600200       0.061047
    24968.789000       0.058647
    25031.289100       0.056247
    25094.102900       0.053847
    25157.232700       0.051448
    25220.681000       0.049049
    25284.450100       0.046652
    25348.542500       0.044257
    25412.960600       0.041865
    25477.707000       0.039477
