 1    ,01, goes_15_imager_01.flt
Number of data points:
326
Wavenumber (cm-1)   Filter response
    12165.450100       0.000000
    12180.268000       0.000035
    12195.122000       0.000082
    12210.012200       0.000097
    12224.938900       0.000086
    12239.902100       0.000071
    12254.902000       0.000075
    12269.938700       0.000117
    12285.012300       0.000164
    12300.123000       0.000153
    12315.270900       0.000100
    12330.456200       0.000078
    12345.679000       0.000085
    12360.939400       0.000081
    12376.237600       0.000082
    12391.573700       0.000116
    12406.947900       0.000163
    12422.360200       0.000180
    12437.810900       0.000175
    12453.300100       0.000173
    12468.827900       0.000175
    12484.394500       0.000177
    12500.000000       0.000176
    12515.644600       0.000177
    12531.328300       0.000177
    12547.051400       0.000178
    12562.814100       0.000178
    12578.616400       0.000180
    12594.458400       0.000181
    12610.340500       0.000172
    12626.262600       0.000175
    12642.225000       0.000219
    12658.227800       0.000268
    12674.271200       0.000273
    12690.355300       0.000270
    12706.480300       0.000323
    12722.646300       0.000370
    12738.853500       0.000326
    12755.102000       0.000278
    12771.392100       0.000309
    12787.723800       0.000369
    12804.097300       0.000388
    12820.512800       0.000376
    12836.970500       0.000367
    12853.470400       0.000375
    12870.012900       0.000410
    12886.597900       0.000463
    12903.225800       0.000519
    12919.896600       0.000565
    12936.610600       0.000581
    12953.367900       0.000576
    12970.168600       0.000565
    12987.013000       0.000572
    13003.901200       0.000611
    13020.833300       0.000670
    13037.809600       0.000721
    13054.830300       0.000767
    13071.895400       0.000813
    13089.005200       0.000863
    13106.159900       0.000915
    13123.359600       0.000963
    13140.604500       0.001004
    13157.894700       0.001059
    13175.230600       0.001153
    13192.612100       0.001261
    13210.039600       0.001357
    13227.513200       0.001457
    13245.033100       0.001581
    13262.599500       0.001732
    13280.212500       0.001896
    13297.872300       0.002056
    13315.579200       0.002196
    13333.333300       0.002357
    13351.134800       0.002588
    13368.984000       0.002851
    13386.880900       0.003089
    13404.825700       0.003328
    13422.818800       0.003615
    13440.860200       0.003961
    13458.950200       0.004358
    13477.088900       0.004802
    13495.276700       0.005291
    13513.513500       0.005834
    13531.799700       0.006446
    13550.135500       0.007204
    13568.521000       0.008251
    13586.956500       0.009524
    13605.442200       0.010708
    13623.978200       0.011897
    13642.564800       0.013415
    13661.202200       0.015343
    13679.890600       0.017628
    13698.630100       0.020289
    13717.421100       0.023392
    13736.263700       0.027064
    13755.158200       0.031439
    13774.104700       0.036634
    13793.103400       0.042725
    13812.154700       0.049611
    13831.258600       0.057274
    13850.415500       0.066635
    13869.625500       0.078691
    13888.888900       0.093375
    13908.205800       0.110492
    13927.576600       0.131085
    13947.001400       0.156645
    13966.480400       0.187071
    13986.014000       0.221595
    14005.602200       0.259325
    14025.245400       0.299840
    14044.943800       0.346327
    14064.697600       0.401865
    14084.507000       0.462581
    14104.372400       0.523511
    14124.293800       0.582781
    14144.271600       0.639514
    14164.305900       0.693494
    14184.397200       0.744330
    14204.545500       0.788639
    14224.751100       0.822734
    14245.014200       0.849411
    14265.335200       0.873401
    14285.714300       0.893167
    14306.151600       0.906172
    14326.647600       0.916109
    14347.202300       0.927518
    14367.816100       0.937443
    14388.489200       0.941644
    14409.221900       0.942151
    14430.014400       0.942881
    14450.867100       0.945248
    14471.780000       0.949489
    14492.753600       0.953507
    14513.788100       0.955483
    14534.883700       0.957821
    14556.040800       0.962963
    14577.259500       0.967207
    14598.540100       0.965820
    14619.883000       0.963129
    14641.288400       0.965359
    14662.756600       0.969924
    14684.287800       0.971471
    14705.882400       0.971160
    14727.540500       0.971973
    14749.262500       0.973543
    14771.048700       0.974784
    14792.899400       0.976198
    14814.814800       0.977920
    14836.795300       0.978696
    14858.841000       0.977625
    14880.952400       0.976856
    14903.129700       0.978779
    14925.373100       0.981790
    14947.683100       0.983277
    14970.059900       0.984513
    14992.503700       0.987487
    15015.015000       0.990840
    15037.594000       0.992064
    15060.241000       0.991028
    15082.956300       0.989200
    15105.740200       0.988109
    15128.593000       0.988859
    15151.515200       0.990434
    15174.506800       0.991764
    15197.568400       0.993957
    15220.700200       0.997574
    15243.902400       1.000000
    15267.175600       0.998217
    15290.519900       0.994106
    15313.935700       0.991208
    15337.423300       0.989479
    15360.983100       0.987217
    15384.615400       0.983293
    15408.320500       0.978142
    15432.098800       0.973174
    15455.950500       0.969976
    15479.876200       0.967169
    15503.876000       0.962661
    15527.950300       0.957231
    15552.099500       0.952464
    15576.324000       0.949298
    15600.624000       0.947809
    15625.000000       0.946353
    15649.452300       0.943244
    15673.981200       0.939941
    15698.587100       0.938397
    15723.270400       0.937700
    15748.031500       0.936299
    15772.870700       0.934801
    15797.788300       0.934536
    15822.784800       0.935098
    15847.860500       0.935500
    15873.015900       0.935571
    15898.251200       0.935530
    15923.566900       0.935335
    15948.963300       0.934975
    15974.440900       0.934861
    16000.000000       0.935121
    16025.641000       0.934699
    16051.364400       0.932341
    16077.170400       0.929431
    16103.059600       0.928284
    16129.032300       0.927192
    16155.088900       0.923337
    16181.229800       0.918601
    16207.455400       0.916016
    16233.766200       0.913567
    16260.162600       0.907972
    16286.645000       0.901470
    16313.213700       0.897408
    16339.869300       0.894796
    16366.612100       0.891514
    16393.442600       0.887411
    16420.361200       0.883123
    16447.368400       0.879370
    16474.464600       0.876592
    16501.650200       0.873923
    16528.925600       0.870796
    16556.291400       0.869894
    16583.747900       0.873215
    16611.295700       0.873451
    16638.935100       0.861801
    16666.666700       0.853720
    16694.490800       0.869237
    16722.408000       0.890461
    16750.418800       0.896429
    16778.523500       0.891718
    16806.722700       0.886662
    16835.016800       0.884697
    16863.406400       0.883639
    16891.891900       0.881969
    16920.473800       0.878853
    16949.152500       0.874064
    16977.928700       0.867750
    17006.802700       0.861664
    17035.775100       0.857289
    17064.846400       0.852881
    17094.017100       0.846097
    17123.287700       0.837953
    17152.658700       0.830919
    17182.130600       0.824704
    17211.704000       0.818128
    17241.379300       0.810872
    17271.157200       0.803113
    17301.038100       0.796522
    17331.022500       0.792154
    17361.111100       0.787549
    17391.304300       0.780214
    17421.602800       0.772036
    17452.007000       0.765913
    17482.517500       0.760996
    17513.134900       0.755645
    17543.859600       0.750405
    17574.692400       0.746144
    17605.633800       0.742389
    17636.684300       0.738560
    17667.844500       0.734521
    17699.115000       0.730094
    17730.496500       0.724922
    17761.989300       0.718903
    17793.594300       0.713348
    17825.311900       0.709488
    17857.142900       0.705970
    17889.087700       0.701217
    17921.147000       0.696236
    17953.321400       0.692422
    17985.611500       0.689095
    18018.018000       0.684644
    18050.541500       0.679174
    18083.182600       0.673137
    18115.942000       0.667894
    18148.820300       0.664663
    18181.818200       0.662334
    18214.936200       0.658981
    18248.175200       0.654141
    18281.535600       0.648845
    18315.018300       0.643366
    18348.623900       0.636500
    18382.352900       0.629668
    18416.206300       0.624763
    18450.184500       0.619261
    18484.288400       0.609769
    18518.518500       0.597438
    18552.875700       0.585324
    18587.360600       0.573781
    18621.973900       0.562016
    18656.716400       0.549384
    18691.588800       0.535659
    18726.591800       0.520832
    18761.726100       0.504727
    18796.992500       0.486520
    18832.391700       0.465687
    18867.924500       0.444189
    18903.591700       0.423738
    18939.393900       0.401351
    18975.332100       0.373710
    19011.406800       0.343694
    19047.619000       0.314955
    19083.969500       0.287759
    19120.458900       0.261096
    19157.088100       0.233958
    19193.858000       0.205967
    19230.769200       0.178567
    19267.822700       0.153401
    19305.019300       0.130006
    19342.359800       0.107254
    19379.845000       0.085682
    19417.475700       0.066322
    19455.252900       0.049980
    19493.177400       0.037205
    19531.250000       0.027472
    19569.471600       0.019870
    19607.843100       0.013899
    19646.365400       0.009297
    19685.039400       0.005933
    19723.865900       0.003672
    19762.845800       0.002221
    19801.980200       0.001291
    19841.269800       0.000734
    19880.715700       0.000429
    19920.318700       0.000265
    19960.079800       0.000151
    20000.000000       0.000063
    20040.080200       0.000016
    20080.321300       0.000001
    20120.724300       0.000000
