106,   106, MVIRI VIS channel from srf_MET7_2010303_2010304_1801-Release_S10EE_10.dat
Number of data points:
793
Wavenumber (cm-1)   Filter response
     8442.380800       0.000000
     8449.514200       0.000000
     8456.659600       0.000004
     8463.817200       0.000056
     8470.986900       0.000166
     8478.168700       0.000333
     8485.362700       0.000554
     8492.569000       0.000828
     8499.787500       0.001154
     8507.018300       0.001530
     8514.261400       0.001954
     8521.516800       0.002426
     8528.784600       0.002943
     8536.064900       0.003505
     8543.357500       0.004111
     8550.662700       0.004758
     8557.980300       0.005447
     8565.310500       0.006175
     8572.653200       0.006942
     8580.008600       0.007747
     8587.376600       0.008589
     8594.757200       0.009466
     8602.150500       0.010379
     8609.556600       0.011325
     8616.975400       0.012305
     8624.407100       0.013317
     8631.851500       0.014361
     8639.308900       0.015435
     8646.779100       0.016540
     8654.262200       0.017675
     8661.758300       0.018838
     8669.267400       0.020030
     8676.789600       0.021250
     8684.324800       0.022497
     8691.873100       0.023770
     8699.434500       0.025070
     8707.009100       0.026396
     8714.596900       0.027746
     8722.198000       0.029122
     8729.812300       0.030523
     8737.439900       0.031947
     8745.080900       0.033396
     8752.735200       0.034867
     8760.403000       0.036362
     8768.084200       0.037881
     8775.778900       0.039421
     8783.487000       0.040984
     8791.208800       0.042570
     8798.944100       0.044177
     8806.693100       0.045806
     8814.455700       0.047457
     8822.232000       0.049130
     8830.022100       0.050823
     8837.825900       0.052538
     8845.643500       0.054275
     8853.475000       0.056032
     8861.320300       0.057810
     8869.179600       0.059609
     8877.052800       0.061429
     8884.940000       0.063270
     8892.841300       0.065131
     8900.756600       0.067013
     8908.686000       0.068916
     8916.629500       0.070839
     8924.587200       0.072783
     8932.559200       0.074748
     8940.545400       0.076734
     8948.545900       0.078740
     8956.560700       0.080767
     8964.589900       0.082815
     8972.633500       0.084884
     8980.691500       0.086974
     8988.764000       0.089084
     8996.851100       0.091216
     9004.952700       0.093369
     9013.068900       0.095542
     9021.199800       0.097738
     9029.345400       0.099954
     9037.505600       0.102192
     9045.680700       0.104451
     9053.870500       0.106731
     9062.075200       0.109034
     9070.294800       0.111358
     9078.529300       0.113704
     9086.778700       0.116071
     9095.043200       0.118461
     9103.322700       0.120873
     9111.617300       0.123307
     9119.927000       0.125763
     9128.251900       0.128241
     9136.592100       0.130742
     9144.947400       0.133265
     9153.318100       0.135811
     9161.704100       0.138380
     9170.105500       0.140971
     9178.522300       0.143586
     9186.954500       0.146222
     9195.402300       0.148883
     9203.865600       0.151565
     9212.344500       0.154272
     9220.839100       0.157001
     9229.349300       0.159754
     9237.875300       0.162530
     9246.417000       0.165329
     9254.974500       0.168152
     9263.547900       0.170999
     9272.137200       0.173868
     9280.742500       0.176762
     9289.363700       0.179679
     9298.000900       0.182620
     9306.654300       0.185584
     9315.323700       0.188572
     9324.009300       0.191584
     9332.711200       0.194619
     9341.429200       0.197678
     9350.163600       0.200761
     9358.914400       0.203868
     9367.681500       0.206998
     9376.465100       0.210153
     9385.265100       0.213330
     9394.081700       0.216532
     9402.914900       0.219757
     9411.764700       0.223006
     9420.631200       0.226278
     9429.514400       0.229574
     9438.414300       0.232893
     9447.331100       0.236236
     9456.264800       0.239602
     9465.215300       0.242991
     9474.182900       0.246403
     9483.167400       0.249839
     9492.169000       0.253298
     9501.187600       0.256779
     9510.223500       0.260284
     9519.276500       0.263811
     9528.346800       0.267360
     9537.434400       0.270933
     9546.539400       0.274527
     9555.661700       0.278144
     9564.801500       0.281782
     9573.958800       0.285443
     9583.133700       0.289125
     9592.326100       0.292829
     9601.536200       0.296554
     9610.764100       0.300300
     9620.009600       0.304068
     9629.273000       0.307857
     9638.554200       0.311666
     9647.853400       0.315496
     9657.170400       0.319345
     9666.505600       0.323215
     9675.858700       0.327105
     9685.230000       0.331014
     9694.619500       0.334943
     9704.027200       0.338891
     9713.453100       0.342858
     9722.897400       0.346844
     9732.360100       0.350847
     9741.841200       0.354869
     9751.340800       0.358909
     9760.859000       0.362967
     9770.395700       0.367041
     9779.951100       0.371133
     9789.525200       0.375241
     9799.118100       0.379366
     9808.729800       0.383507
     9818.360300       0.387664
     9828.009800       0.391836
     9837.678300       0.396024
     9847.365800       0.400226
     9857.072400       0.404443
     9866.798200       0.408674
     9876.543200       0.412918
     9886.307500       0.417177
     9896.091000       0.421448
     9905.894000       0.425732
     9915.716400       0.430029
     9925.558300       0.434338
     9935.419800       0.438658
     9945.300800       0.442990
     9955.201600       0.447332
     9965.122100       0.451686
     9975.062300       0.456049
     9985.022500       0.460422
     9995.002500       0.464805
    10005.002500       0.469196
    10015.022500       0.473596
    10025.062700       0.478004
    10035.122900       0.482420
    10045.203400       0.486844
    10055.304200       0.491274
    10065.425300       0.495711
    10075.566800       0.500153
    10085.728700       0.504602
    10095.911200       0.509055
    10106.114200       0.513514
    10116.337900       0.517976
    10126.582300       0.522443
    10136.847400       0.526913
    10147.133400       0.531386
    10157.440300       0.535862
    10167.768200       0.540339
    10178.117000       0.544819
    10188.487000       0.549299
    10198.878100       0.553781
    10209.290500       0.558262
    10219.724100       0.562744
    10230.179000       0.567224
    10240.655400       0.571704
    10251.153300       0.576182
    10261.672700       0.580658
    10272.213700       0.585132
    10282.776300       0.589602
    10293.360800       0.594070
    10303.967000       0.598533
    10314.595200       0.602991
    10325.245200       0.607445
    10335.917300       0.611894
    10346.611500       0.616337
    10357.327800       0.620774
    10368.066400       0.625203
    10378.827200       0.629626
    10389.610400       0.634041
    10400.416000       0.638448
    10411.244100       0.642846
    10422.094800       0.647234
    10432.968200       0.651614
    10443.864200       0.655983
    10454.783100       0.660342
    10465.724800       0.664689
    10476.689400       0.669026
    10487.677000       0.673350
    10498.687700       0.677662
    10509.721500       0.681961
    10520.778500       0.686246
    10531.858900       0.690518
    10542.962600       0.694776
    10554.089700       0.699018
    10565.240400       0.703246
    10576.414600       0.707457
    10587.612500       0.711653
    10598.834100       0.715832
    10610.079600       0.719994
    10621.348900       0.724139
    10632.642200       0.728266
    10643.959600       0.732374
    10655.301000       0.736464
    10666.666700       0.740534
    10678.056600       0.744584
    10689.470900       0.748615
    10700.909600       0.752625
    10712.372800       0.756613
    10723.860600       0.760581
    10735.373100       0.764526
    10746.910300       0.768450
    10758.472300       0.772350
    10770.059200       0.776228
    10781.671200       0.780082
    10793.308100       0.783912
    10804.970300       0.787718
    10816.657700       0.791499
    10828.370300       0.795255
    10840.108400       0.798985
    10851.871900       0.802690
    10863.661100       0.806369
    10875.475800       0.810020
    10887.316300       0.813645
    10899.182600       0.817242
    10911.074700       0.820812
    10922.992900       0.824354
    10934.937100       0.827867
    10946.907500       0.831351
    10958.904100       0.834806
    10970.927000       0.838231
    10982.976400       0.841627
    10995.052200       0.844993
    11007.154700       0.848328
    11019.283700       0.851632
    11031.439600       0.854905
    11043.622300       0.858147
    11055.832000       0.861357
    11068.068600       0.864535
    11080.332400       0.867680
    11092.623400       0.870793
    11104.941700       0.873873
    11117.287400       0.876920
    11129.660500       0.879933
    11142.061300       0.882913
    11154.489700       0.885859
    11166.945800       0.888770
    11179.429800       0.891647
    11191.941800       0.894489
    11204.481800       0.897296
    11217.049900       0.900068
    11229.646300       0.902805
    11242.270900       0.905506
    11254.924000       0.908171
    11267.605600       0.910800
    11280.315800       0.913392
    11293.054800       0.915948
    11305.822500       0.918468
    11318.619100       0.920951
    11331.444800       0.923396
    11344.299500       0.925805
    11357.183400       0.928176
    11370.096600       0.930509
    11383.039300       0.932805
    11396.011400       0.935064
    11409.013100       0.937284
    11422.044500       0.939466
    11435.105800       0.941610
    11448.196900       0.943716
    11461.318100       0.945783
    11474.469300       0.947812
    11487.650800       0.949802
    11500.862600       0.951754
    11514.104800       0.953666
    11527.377500       0.955540
    11540.680900       0.957375
    11554.015000       0.959171
    11567.380000       0.960928
    11580.775900       0.962646
    11594.202900       0.964324
    11607.661100       0.965964
    11621.150500       0.967564
    11634.671300       0.969125
    11648.223600       0.970647
    11661.807600       0.972129
    11675.423200       0.973573
    11689.070700       0.974977
    11702.750100       0.976342
    11716.461600       0.977667
    11730.205300       0.978954
    11743.981200       0.980201
    11757.789500       0.981409
    11771.630400       0.982578
    11785.503800       0.983708
    11799.410000       0.984800
    11813.349100       0.985852
    11827.321100       0.986865
    11841.326200       0.987840
    11855.364600       0.988776
    11869.436200       0.989673
    11883.541300       0.990532
    11897.680000       0.991353
    11911.852300       0.992136
    11926.058400       0.992880
    11940.298500       0.993586
    11954.572600       0.994255
    11968.880900       0.994885
    11983.223500       0.995478
    11997.600500       0.996034
    12012.012000       0.996553
    12026.458200       0.997034
    12040.939200       0.997478
    12055.455100       0.997886
    12070.006000       0.998257
    12084.592100       0.998592
    12099.213600       0.998890
    12113.870400       0.999153
    12128.562800       0.999379
    12143.290800       0.999570
    12158.054700       0.999726
    12172.854500       0.999847
    12187.690400       0.999932
    12202.562500       0.999983
    12217.471000       1.000000
    12232.415900       0.999982
    12247.397400       0.999931
    12262.415700       0.999846
    12277.470800       0.999727
    12292.563000       0.999576
    12307.692300       0.999391
    12322.858900       0.999174
    12338.062900       0.998925
    12353.304500       0.998643
    12368.583800       0.998330
    12383.900900       0.997986
    12399.256000       0.997610
    12414.649300       0.997204
    12430.080800       0.996767
    12445.550700       0.996300
    12461.059200       0.995803
    12476.606400       0.995277
    12492.192400       0.994721
    12507.817400       0.994137
    12523.481500       0.993524
    12539.185000       0.992883
    12554.927800       0.992215
    12570.710200       0.991519
    12586.532400       0.990795
    12602.394500       0.990046
    12618.296500       0.989269
    12634.238800       0.988467
    12650.221400       0.987640
    12666.244500       0.986787
    12682.308200       0.985909
    12698.412700       0.985007
    12714.558200       0.984081
    12730.744700       0.983131
    12746.972600       0.982158
    12763.241900       0.981162
    12779.552700       0.980144
    12795.905300       0.979104
    12812.299800       0.978042
    12828.736400       0.976958
    12845.215200       0.975854
    12861.736300       0.974730
    12878.300100       0.973586
    12894.906500       0.972422
    12911.555800       0.971239
    12928.248200       0.970037
    12944.983800       0.968817
    12961.762800       0.967580
    12978.585300       0.966325
    12995.451600       0.965053
    13012.361700       0.963764
    13029.316000       0.962459
    13046.314400       0.961139
    13063.357300       0.959804
    13080.444700       0.958454
    13097.576900       0.957089
    13114.754100       0.955711
    13131.976400       0.954319
    13149.243900       0.952914
    13166.556900       0.951497
    13183.915600       0.950068
    13201.320100       0.948627
    13218.770700       0.947175
    13236.267400       0.945712
    13253.810500       0.944239
    13271.400100       0.942756
    13289.036500       0.941264
    13306.719900       0.939763
    13324.450400       0.938253
    13342.228200       0.936736
    13360.053400       0.935210
    13377.926400       0.933678
    13395.847300       0.932139
    13413.816200       0.930594
    13431.833400       0.929044
    13449.899100       0.927488
    13468.013500       0.925927
    13486.176700       0.924361
    13504.388900       0.922792
    13522.650400       0.921219
    13540.961400       0.919644
    13559.322000       0.918065
    13577.732500       0.916485
    13596.193100       0.914902
    13614.703900       0.913318
    13633.265200       0.911734
    13651.877100       0.910149
    13670.540000       0.908564
    13689.253900       0.906979
    13708.019200       0.905396
    13726.836000       0.903813
    13745.704500       0.902232
    13764.624900       0.900654
    13783.597500       0.899078
    13802.622500       0.897505
    13821.700100       0.895935
    13840.830400       0.894369
    13860.013900       0.892807
    13879.250500       0.891249
    13898.540700       0.889697
    13917.884500       0.888150
    13937.282200       0.886609
    13956.734100       0.885074
    13976.240400       0.883545
    13995.801300       0.882023
    14015.417000       0.880509
    14035.087700       0.879002
    14054.813800       0.877503
    14074.595400       0.876013
    14094.432700       0.874531
    14114.326000       0.873058
    14134.275600       0.871595
    14154.281700       0.870141
    14174.344400       0.868698
    14194.464200       0.867265
    14214.641100       0.865843
    14234.875400       0.864432
    14255.167500       0.863032
    14275.517500       0.861645
    14295.925700       0.860269
    14316.392300       0.858905
    14336.917600       0.857554
    14357.501800       0.856216
    14378.145200       0.854892
    14398.848100       0.853580
    14419.610700       0.852283
    14440.433200       0.850999
    14461.316000       0.849730
    14482.259200       0.848476
    14503.263200       0.847236
    14524.328200       0.846011
    14545.454500       0.844802
    14566.642400       0.843608
    14587.892000       0.842429
    14609.203800       0.841267
    14630.577900       0.840121
    14652.014700       0.838991
    14673.514300       0.837878
    14695.077100       0.836781
    14716.703500       0.835702
    14738.393500       0.834639
    14760.147600       0.833594
    14781.966000       0.832566
    14803.849000       0.831556
    14825.796900       0.830563
    14847.809900       0.829589
    14869.888500       0.828632
    14892.032800       0.827694
    14914.243100       0.826773
    14936.519800       0.825871
    14958.863100       0.824987
    14981.273400       0.824122
    15003.750900       0.823276
    15026.296000       0.822448
    15048.909000       0.821639
    15071.590100       0.820848
    15094.339600       0.820077
    15117.158000       0.819324
    15140.045400       0.818591
    15163.002300       0.817876
    15186.028900       0.817180
    15209.125500       0.816503
    15232.292500       0.815845
    15255.530100       0.815206
    15278.838800       0.814586
    15302.218800       0.813985
    15325.670500       0.813402
    15349.194200       0.812839
    15372.790200       0.812294
    15396.458800       0.811768
    15420.200500       0.811261
    15444.015400       0.810772
    15467.904100       0.810301
    15491.866800       0.809849
    15515.903800       0.809415
    15540.015500       0.808999
    15564.202300       0.808602
    15588.464500       0.808222
    15612.802500       0.807859
    15637.216600       0.807515
    15661.707100       0.807188
    15686.274500       0.806878
    15710.919100       0.806585
    15735.641200       0.806309
    15760.441300       0.806049
    15785.319700       0.805806
    15810.276700       0.805579
    15835.312700       0.805369
    15860.428200       0.805174
    15885.623500       0.804994
    15910.899000       0.804830
    15936.255000       0.804681
    15961.691900       0.804547
    15987.210200       0.804427
    16012.810200       0.804321
    16038.492400       0.804229
    16064.257000       0.804150
    16090.104600       0.804085
    16116.035500       0.804033
    16142.050000       0.803993
    16168.148700       0.803966
    16194.332000       0.803950
    16220.600200       0.803946
    16246.953700       0.803953
    16273.393000       0.803971
    16299.918500       0.803999
    16326.530600       0.804037
    16353.229800       0.804084
    16380.016400       0.804141
    16406.890900       0.804207
    16433.853700       0.804280
    16460.905300       0.804362
    16488.046200       0.804451
    16515.276600       0.804547
    16542.597200       0.804649
    16570.008300       0.804758
    16597.510400       0.804871
    16625.103900       0.804990
    16652.789300       0.805114
    16680.567100       0.805241
    16708.437800       0.805372
    16736.401700       0.805505
    16764.459300       0.805641
    16792.611300       0.805780
    16820.857900       0.805919
    16849.199700       0.806059
    16877.637100       0.806199
    16906.170800       0.806339
    16934.801000       0.806478
    16963.528400       0.806616
    16992.353400       0.806751
    17021.276600       0.806884
    17050.298400       0.807013
    17079.419300       0.807139
    17108.639900       0.807260
    17137.960600       0.807375
    17167.382000       0.807485
    17196.904600       0.807589
    17226.528900       0.807685
    17256.255400       0.807774
    17286.084700       0.807854
    17316.017300       0.807925
    17346.053800       0.807987
    17376.194600       0.808038
    17406.440400       0.808078
    17436.791600       0.808106
    17467.248900       0.808121
    17497.812800       0.808124
    17528.483800       0.808113
    17559.262500       0.808087
    17590.149500       0.808046
    17621.145400       0.807989
    17652.250700       0.807915
    17683.466000       0.807824
    17714.791900       0.807715
    17746.228900       0.807587
    17777.777800       0.807439
    17809.439000       0.807271
    17841.213200       0.807082
    17873.101000       0.806871
    17905.103000       0.806638
    17937.219700       0.806381
    17969.451900       0.806100
    18001.800200       0.805795
    18034.265100       0.805464
    18066.847300       0.805106
    18099.547500       0.804722
    18132.366300       0.804310
    18165.304300       0.803869
    18198.362100       0.803399
    18231.540600       0.802899
    18264.840200       0.802368
    18298.261700       0.801806
    18331.805700       0.801211
    18365.472900       0.800583
    18399.264000       0.799922
    18433.179700       0.799225
    18467.220700       0.798493
    18501.387600       0.797726
    18535.681200       0.796921
    18570.102100       0.796079
    18604.651200       0.795198
    18639.329000       0.794278
    18674.136300       0.793319
    18709.073900       0.792318
    18744.142500       0.791277
    18779.342700       0.790193
    18814.675400       0.789067
    18850.141400       0.787897
    18885.741300       0.786683
    18921.475900       0.785423
    18957.346000       0.784119
    18993.352300       0.782767
    19029.495700       0.781369
    19065.776900       0.779923
    19102.196800       0.778428
    19138.756000       0.776885
    19175.455400       0.775291
    19212.295900       0.773647
    19249.278200       0.771952
    19286.403100       0.770205
    19323.671500       0.768405
    19361.084200       0.766553
    19398.642100       0.764646
    19436.346000       0.762686
    19474.196700       0.760670
    19512.195100       0.758599
    19550.342100       0.756472
    19588.638600       0.754288
    19627.085400       0.752046
    19665.683400       0.749747
    19704.433500       0.747389
    19743.336600       0.744972
    19782.393700       0.742496
    19821.605600       0.739960
    19860.973200       0.737363
    19900.497500       0.734706
    19940.179500       0.731987
    19980.020000       0.729206
    20020.020000       0.726362
    20060.180500       0.723456
    20100.502500       0.720487
    20140.986900       0.717454
    20181.634700       0.714357
    20222.446900       0.711196
    20263.424500       0.707970
    20304.568500       0.704679
    20345.880000       0.701322
    20387.359800       0.697900
    20429.009200       0.694412
    20470.829100       0.690858
    20512.820500       0.687237
    20554.984600       0.683550
    20597.322300       0.679796
    20639.834900       0.675975
    20682.523300       0.672086
    20725.388600       0.668131
    20768.432000       0.664108
    20811.654500       0.660017
    20855.057400       0.655859
    20898.641600       0.651633
    20942.408400       0.647339
    20986.358900       0.642978
    21030.494200       0.638549
    21074.815600       0.634052
    21119.324200       0.629488
    21164.021200       0.624856
    21208.907700       0.620157
    21253.985100       0.615391
    21299.254500       0.610558
    21344.717200       0.605658
    21390.374300       0.600691
    21436.227200       0.595659
    21482.277100       0.590560
    21528.525300       0.585395
    21574.973000       0.580165
    21621.621600       0.574871
    21668.472400       0.569512
    21715.526600       0.564088
    21762.785600       0.558602
    21810.250800       0.553052
    21857.923500       0.547439
    21905.805000       0.541765
    21953.896800       0.536029
    22002.200200       0.530232
    22050.716600       0.524376
    22099.447500       0.518460
    22148.394200       0.512486
    22197.558300       0.506454
    22246.941000       0.500365
    22296.544000       0.494221
    22346.368700       0.488020
    22396.416600       0.481766
    22446.689100       0.475459
    22497.187900       0.469099
    22547.914300       0.462689
    22598.870100       0.456228
    22650.056600       0.449719
    22701.475600       0.443161
    22753.128600       0.436558
    22805.017100       0.429909
    22857.142900       0.423217
    22909.507400       0.416482
    22962.112500       0.409706
    23014.959700       0.402890
    23068.050700       0.396037
    23121.387300       0.389147
    23174.971000       0.382222
    23228.803700       0.375263
    23282.887100       0.368274
    23337.222900       0.361254
    23391.812900       0.354206
    23446.658900       0.347132
    23501.762600       0.340034
    23557.126000       0.332913
    23612.750900       0.325772
    23668.639100       0.318613
    23724.792400       0.311437
    23781.212800       0.304248
    23837.902300       0.297046
    23894.862600       0.289836
    23952.095800       0.282617
    24009.603800       0.275395
    24067.388700       0.268169
    24125.452400       0.260944
    24183.796900       0.253721
    24242.424200       0.246504
    24301.336600       0.239294
    24360.535900       0.232095
    24420.024400       0.224910
    24479.804200       0.217741
    24539.877300       0.210591
    24600.246000       0.203463
    24660.912500       0.196361
    24721.878900       0.189286
    24783.147500       0.182244
    24844.720500       0.175236
    24906.600200       0.168266
    24968.789000       0.161337
    25031.289100       0.154454
    25094.102900       0.147618
    25157.232700       0.140835
    25220.681000       0.134106
    25284.450100       0.127438
    25348.542500       0.120832
    25412.960600       0.114293
    25477.707000       0.107825
