05  , Filter noaa_13_avhrr_05.flt
Number of data points:
60
Wavenumber (cm-1)   Filter response
      787.401000       0.016934
      789.499100       0.002572
      791.597200       0.002215
      793.695300       0.029869
      795.793400       0.095759
      797.891500       0.195908
      799.989600       0.323055
      802.087700       0.466693
      804.185800       0.603349
      806.283900       0.706247
      808.382000       0.755587
      810.480100       0.766669
      812.578200       0.766112
      814.676300       0.777565
      816.774400       0.802699
      818.872500       0.833282
      820.970600       0.861574
      823.068700       0.885904
      825.166800       0.909243
      827.264900       0.934687
      829.363000       0.961493
      831.461100       0.983842
      833.559200       0.995666
      835.657300       0.994243
      837.755400       0.986442
      839.853500       0.981118
      841.951600       0.985514
      844.049700       0.995171
      846.147800       1.000000
      848.245900       0.990033
      850.344000       0.963970
      852.442100       0.932335
      854.540200       0.906828
      856.638300       0.895190
      858.736400       0.886832
      860.834500       0.865226
      862.932600       0.814214
      865.030700       0.728410
      867.128800       0.616226
      869.226900       0.486993
      871.325000       0.350461
      873.423100       0.219792
      875.521200       0.109472
      877.619300       0.033964
      879.717400       0.000000
      881.815500       0.000000
      883.913600       0.002073
      886.011700       0.010344
      888.109800       0.012497
      890.207900       0.010753
      892.306000       0.007679
      894.404100       0.005634
      896.502200       0.005053
      898.600300       0.005350
      900.698400       0.005928
      902.796500       0.006275
      904.894600       0.006335
      906.992700       0.006204
      909.090800       0.005977
      911.188900       0.000000
