52,   52, MVIRI VIS channel from srf_MET2_1988213_1988214_1801-Release_S10EL_10.dat
Number of data points:
730
Wavenumber (cm-1)   Filter response
     8916.629500       0.000000
     8924.587200       0.000000
     8932.559200       0.000002
     8940.545400       0.000012
     8948.545900       0.000032
     8956.560700       0.000069
     8964.589900       0.000127
     8972.633500       0.000209
     8980.691500       0.000320
     8988.764000       0.000464
     8996.851100       0.000644
     9004.952700       0.000863
     9013.068900       0.001126
     9021.199800       0.001435
     9029.345400       0.001794
     9037.505600       0.002205
     9045.680700       0.002671
     9053.870500       0.003195
     9062.075200       0.003779
     9070.294800       0.004426
     9078.529300       0.005137
     9086.778700       0.005916
     9095.043200       0.006763
     9103.322700       0.007682
     9111.617300       0.008673
     9119.927000       0.009738
     9128.251900       0.010879
     9136.592100       0.012097
     9144.947400       0.013394
     9153.318100       0.014770
     9161.704100       0.016227
     9170.105500       0.017766
     9178.522300       0.019388
     9186.954500       0.021093
     9195.402300       0.022882
     9203.865600       0.024756
     9212.344500       0.026716
     9220.839100       0.028761
     9229.349300       0.030893
     9237.875300       0.033112
     9246.417000       0.035417
     9254.974500       0.037809
     9263.547900       0.040289
     9272.137200       0.042855
     9280.742500       0.045509
     9289.363700       0.048249
     9298.000900       0.051077
     9306.654300       0.053990
     9315.323700       0.056990
     9324.009300       0.060076
     9332.711200       0.063248
     9341.429200       0.066504
     9350.163600       0.069845
     9358.914400       0.073270
     9367.681500       0.076778
     9376.465100       0.080369
     9385.265100       0.084041
     9394.081700       0.087795
     9402.914900       0.091629
     9411.764700       0.095543
     9420.631200       0.099535
     9429.514400       0.103605
     9438.414300       0.107752
     9447.331100       0.111974
     9456.264800       0.116272
     9465.215300       0.120643
     9474.182900       0.125087
     9483.167400       0.129603
     9492.169000       0.134189
     9501.187600       0.138844
     9510.223500       0.143568
     9519.276500       0.148358
     9528.346800       0.153214
     9537.434400       0.158135
     9546.539400       0.163119
     9555.661700       0.168165
     9564.801500       0.173271
     9573.958800       0.178437
     9583.133700       0.183661
     9592.326100       0.188941
     9601.536200       0.194277
     9610.764100       0.199666
     9620.009600       0.205108
     9629.273000       0.210602
     9638.554200       0.216145
     9647.853400       0.221736
     9657.170400       0.227374
     9666.505600       0.233058
     9675.858700       0.238786
     9685.230000       0.244557
     9694.619500       0.250369
     9704.027200       0.256220
     9713.453100       0.262110
     9722.897400       0.268037
     9732.360100       0.273999
     9741.841200       0.279996
     9751.340800       0.286025
     9760.859000       0.292085
     9770.395700       0.298175
     9779.951100       0.304293
     9789.525200       0.310438
     9799.118100       0.316609
     9808.729800       0.322803
     9818.360300       0.329020
     9828.009800       0.335258
     9837.678300       0.341516
     9847.365800       0.347793
     9857.072400       0.354086
     9866.798200       0.360395
     9876.543200       0.366717
     9886.307500       0.373054
     9896.091000       0.379401
     9905.894000       0.385758
     9915.716400       0.392125
     9925.558300       0.398499
     9935.419800       0.404879
     9945.300800       0.411264
     9955.201600       0.417652
     9965.122100       0.424043
     9975.062300       0.430434
     9985.022500       0.436826
     9995.002500       0.443216
    10005.002500       0.449603
    10015.022500       0.455986
    10025.062700       0.462364
    10035.122900       0.468735
    10045.203400       0.475099
    10055.304200       0.481455
    10065.425300       0.487800
    10075.566800       0.494134
    10085.728700       0.500456
    10095.911200       0.506766
    10106.114200       0.513060
    10116.337900       0.519339
    10126.582300       0.525602
    10136.847400       0.531847
    10147.133400       0.538074
    10157.440300       0.544281
    10167.768200       0.550467
    10178.117000       0.556632
    10188.487000       0.562775
    10198.878100       0.568894
    10209.290500       0.574989
    10219.724100       0.581058
    10230.179000       0.587101
    10240.655400       0.593117
    10251.153300       0.599105
    10261.672700       0.605064
    10272.213700       0.610993
    10282.776300       0.616892
    10293.360800       0.622761
    10303.967000       0.628596
    10314.595200       0.634399
    10325.245200       0.640168
    10335.917300       0.645904
    10346.611500       0.651604
    10357.327800       0.657268
    10368.066400       0.662896
    10378.827200       0.668487
    10389.610400       0.674040
    10400.416000       0.679555
    10411.244100       0.685031
    10422.094800       0.690467
    10432.968200       0.695863
    10443.864200       0.701218
    10454.783100       0.706532
    10465.724800       0.711805
    10476.689400       0.717035
    10487.677000       0.722222
    10498.687700       0.727366
    10509.721500       0.732466
    10520.778500       0.737522
    10531.858900       0.742533
    10542.962600       0.747499
    10554.089700       0.752420
    10565.240400       0.757294
    10576.414600       0.762123
    10587.612500       0.766904
    10598.834100       0.771639
    10610.079600       0.776327
    10621.348900       0.780967
    10632.642200       0.785558
    10643.959600       0.790102
    10655.301000       0.794597
    10666.666700       0.799044
    10678.056600       0.803441
    10689.470900       0.807789
    10700.909600       0.812088
    10712.372800       0.816337
    10723.860600       0.820536
    10735.373100       0.824685
    10746.910300       0.828784
    10758.472300       0.832832
    10770.059200       0.836830
    10781.671200       0.840777
    10793.308100       0.844674
    10804.970300       0.848520
    10816.657700       0.852314
    10828.370300       0.856058
    10840.108400       0.859751
    10851.871900       0.863392
    10863.661100       0.866983
    10875.475800       0.870522
    10887.316300       0.874009
    10899.182600       0.877446
    10911.074700       0.880832
    10922.992900       0.884166
    10934.937100       0.887449
    10946.907500       0.890680
    10958.904100       0.893861
    10970.927000       0.896990
    10982.976400       0.900069
    10995.052200       0.903096
    11007.154700       0.906073
    11019.283700       0.908998
    11031.439600       0.911873
    11043.622300       0.914698
    11055.832000       0.917472
    11068.068600       0.920195
    11080.332400       0.922869
    11092.623400       0.925492
    11104.941700       0.928065
    11117.287400       0.930589
    11129.660500       0.933063
    11142.061300       0.935487
    11154.489700       0.937862
    11166.945800       0.940188
    11179.429800       0.942465
    11191.941800       0.944694
    11204.481800       0.946874
    11217.049900       0.949005
    11229.646300       0.951089
    11242.270900       0.953124
    11254.924000       0.955112
    11267.605600       0.957053
    11280.315800       0.958947
    11293.054800       0.960793
    11305.822500       0.962593
    11318.619100       0.964346
    11331.444800       0.966054
    11344.299500       0.967715
    11357.183400       0.969331
    11370.096600       0.970901
    11383.039300       0.972426
    11396.011400       0.973907
    11409.013100       0.975343
    11422.044500       0.976735
    11435.105800       0.978083
    11448.196900       0.979387
    11461.318100       0.980647
    11474.469300       0.981865
    11487.650800       0.983040
    11500.862600       0.984173
    11514.104800       0.985263
    11527.377500       0.986312
    11540.680900       0.987319
    11554.015000       0.988285
    11567.380000       0.989210
    11580.775900       0.990094
    11594.202900       0.990938
    11607.661100       0.991743
    11621.150500       0.992507
    11634.671300       0.993233
    11648.223600       0.993919
    11661.807600       0.994567
    11675.423200       0.995176
    11689.070700       0.995748
    11702.750100       0.996282
    11716.461600       0.996779
    11730.205300       0.997238
    11743.981200       0.997661
    11757.789500       0.998048
    11771.630400       0.998399
    11785.503800       0.998714
    11799.410000       0.998994
    11813.349100       0.999238
    11827.321100       0.999448
    11841.326200       0.999624
    11855.364600       0.999766
    11869.436200       0.999874
    11883.541300       0.999949
    11897.680000       0.999991
    11911.852300       1.000000
    11926.058400       0.999977
    11940.298500       0.999922
    11954.572600       0.999835
    11968.880900       0.999716
    11983.223500       0.999567
    11997.600500       0.999387
    12012.012000       0.999176
    12026.458200       0.998935
    12040.939200       0.998665
    12055.455100       0.998365
    12070.006000       0.998036
    12084.592100       0.997678
    12099.213600       0.997292
    12113.870400       0.996877
    12128.562800       0.996434
    12143.290800       0.995964
    12158.054700       0.995466
    12172.854500       0.994942
    12187.690400       0.994390
    12202.562500       0.993812
    12217.471000       0.993208
    12232.415900       0.992578
    12247.397400       0.991923
    12262.415700       0.991242
    12277.470800       0.990537
    12292.563000       0.989806
    12307.692300       0.989051
    12322.858900       0.988272
    12338.062900       0.987469
    12353.304500       0.986642
    12368.583800       0.985792
    12383.900900       0.984919
    12399.256000       0.984023
    12414.649300       0.983105
    12430.080800       0.982164
    12445.550700       0.981201
    12461.059200       0.980216
    12476.606400       0.979209
    12492.192400       0.978181
    12507.817400       0.977132
    12523.481500       0.976063
    12539.185000       0.974972
    12554.927800       0.973861
    12570.710200       0.972730
    12586.532400       0.971579
    12602.394500       0.970409
    12618.296500       0.969218
    12634.238800       0.968009
    12650.221400       0.966780
    12666.244500       0.965532
    12682.308200       0.964266
    12698.412700       0.962982
    12714.558200       0.961679
    12730.744700       0.960358
    12746.972600       0.959019
    12763.241900       0.957662
    12779.552700       0.956288
    12795.905300       0.954897
    12812.299800       0.953488
    12828.736400       0.952063
    12845.215200       0.950621
    12861.736300       0.949162
    12878.300100       0.947687
    12894.906500       0.946196
    12911.555800       0.944688
    12928.248200       0.943165
    12944.983800       0.941625
    12961.762800       0.940071
    12978.585300       0.938501
    12995.451600       0.936915
    13012.361700       0.935314
    13029.316000       0.933699
    13046.314400       0.932068
    13063.357300       0.930423
    13080.444700       0.928763
    13097.576900       0.927089
    13114.754100       0.925401
    13131.976400       0.923698
    13149.243900       0.921981
    13166.556900       0.920251
    13183.915600       0.918506
    13201.320100       0.916748
    13218.770700       0.914977
    13236.267400       0.913192
    13253.810500       0.911394
    13271.400100       0.909582
    13289.036500       0.907758
    13306.719900       0.905920
    13324.450400       0.904070
    13342.228200       0.902206
    13360.053400       0.900331
    13377.926400       0.898442
    13395.847300       0.896541
    13413.816200       0.894628
    13431.833400       0.892703
    13449.899100       0.890765
    13468.013500       0.888815
    13486.176700       0.886854
    13504.388900       0.884880
    13522.650400       0.882895
    13540.961400       0.880898
    13559.322000       0.878889
    13577.732500       0.876869
    13596.193100       0.874837
    13614.703900       0.872794
    13633.265200       0.870739
    13651.877100       0.868674
    13670.540000       0.866597
    13689.253900       0.864509
    13708.019200       0.862410
    13726.836000       0.860300
    13745.704500       0.858179
    13764.624900       0.856048
    13783.597500       0.853906
    13802.622500       0.851753
    13821.700100       0.849589
    13840.830400       0.847416
    13860.013900       0.845231
    13879.250500       0.843036
    13898.540700       0.840831
    13917.884500       0.838616
    13937.282200       0.836391
    13956.734100       0.834155
    13976.240400       0.831909
    13995.801300       0.829654
    14015.417000       0.827389
    14035.087700       0.825113
    14054.813800       0.822828
    14074.595400       0.820533
    14094.432700       0.818229
    14114.326000       0.815915
    14134.275600       0.813591
    14154.281700       0.811258
    14174.344400       0.808916
    14194.464200       0.806564
    14214.641100       0.804203
    14234.875400       0.801833
    14255.167500       0.799453
    14275.517500       0.797065
    14295.925700       0.794668
    14316.392300       0.792261
    14336.917600       0.789846
    14357.501800       0.787422
    14378.145200       0.784989
    14398.848100       0.782548
    14419.610700       0.780097
    14440.433200       0.777639
    14461.316000       0.775172
    14482.259200       0.772696
    14503.263200       0.770212
    14524.328200       0.767720
    14545.454500       0.765220
    14566.642400       0.762712
    14587.892000       0.760195
    14609.203800       0.757671
    14630.577900       0.755139
    14652.014700       0.752599
    14673.514300       0.750051
    14695.077100       0.747495
    14716.703500       0.744932
    14738.393500       0.742362
    14760.147600       0.739784
    14781.966000       0.737199
    14803.849000       0.734606
    14825.796900       0.732006
    14847.809900       0.729400
    14869.888500       0.726786
    14892.032800       0.724165
    14914.243100       0.721538
    14936.519800       0.718903
    14958.863100       0.716263
    14981.273400       0.713615
    15003.750900       0.710961
    15026.296000       0.708301
    15048.909000       0.705635
    15071.590100       0.702962
    15094.339600       0.700284
    15117.158000       0.697599
    15140.045400       0.694909
    15163.002300       0.692212
    15186.028900       0.689511
    15209.125500       0.686803
    15232.292500       0.684090
    15255.530100       0.681372
    15278.838800       0.678649
    15302.218800       0.675921
    15325.670500       0.673187
    15349.194200       0.670449
    15372.790200       0.667706
    15396.458800       0.664958
    15420.200500       0.662206
    15444.015400       0.659449
    15467.904100       0.656688
    15491.866800       0.653923
    15515.903800       0.651154
    15540.015500       0.648381
    15564.202300       0.645604
    15588.464500       0.642823
    15612.802500       0.640039
    15637.216600       0.637252
    15661.707100       0.634461
    15686.274500       0.631667
    15710.919100       0.628870
    15735.641200       0.626070
    15760.441300       0.623268
    15785.319700       0.620462
    15810.276700       0.617654
    15835.312700       0.614844
    15860.428200       0.612032
    15885.623500       0.609217
    15910.899000       0.606401
    15936.255000       0.603583
    15961.691900       0.600763
    15987.210200       0.597942
    16012.810200       0.595119
    16038.492400       0.592295
    16064.257000       0.589470
    16090.104600       0.586645
    16116.035500       0.583818
    16142.050000       0.580990
    16168.148700       0.578163
    16194.332000       0.575334
    16220.600200       0.572506
    16246.953700       0.569677
    16273.393000       0.566849
    16299.918500       0.564021
    16326.530600       0.561193
    16353.229800       0.558366
    16380.016400       0.555540
    16406.890900       0.552714
    16433.853700       0.549889
    16460.905300       0.547066
    16488.046200       0.544244
    16515.276600       0.541423
    16542.597200       0.538603
    16570.008300       0.535786
    16597.510400       0.532970
    16625.103900       0.530157
    16652.789300       0.527345
    16680.567100       0.524536
    16708.437800       0.521730
    16736.401700       0.518926
    16764.459300       0.516125
    16792.611300       0.513326
    16820.857900       0.510531
    16849.199700       0.507739
    16877.637100       0.504950
    16906.170800       0.502165
    16934.801000       0.499384
    16963.528400       0.496606
    16992.353400       0.493832
    17021.276600       0.491063
    17050.298400       0.488297
    17079.419300       0.485536
    17108.639900       0.482779
    17137.960600       0.480027
    17167.382000       0.477279
    17196.904600       0.474537
    17226.528900       0.471799
    17256.255400       0.469067
    17286.084700       0.466340
    17316.017300       0.463618
    17346.053800       0.460902
    17376.194600       0.458191
    17406.440400       0.455486
    17436.791600       0.452787
    17467.248900       0.450093
    17497.812800       0.447406
    17528.483800       0.444726
    17559.262500       0.442051
    17590.149500       0.439383
    17621.145400       0.436721
    17652.250700       0.434066
    17683.466000       0.431418
    17714.791900       0.428776
    17746.228900       0.426141
    17777.777800       0.423514
    17809.439000       0.420893
    17841.213200       0.418280
    17873.101000       0.415673
    17905.103000       0.413075
    17937.219700       0.410483
    17969.451900       0.407899
    18001.800200       0.405323
    18034.265100       0.402754
    18066.847300       0.400193
    18099.547500       0.397639
    18132.366300       0.395094
    18165.304300       0.392556
    18198.362100       0.390026
    18231.540600       0.387504
    18264.840200       0.384991
    18298.261700       0.382485
    18331.805700       0.379987
    18365.472900       0.377497
    18399.264000       0.375016
    18433.179700       0.372542
    18467.220700       0.370077
    18501.387600       0.367620
    18535.681200       0.365172
    18570.102100       0.362731
    18604.651200       0.360299
    18639.329000       0.357875
    18674.136300       0.355459
    18709.073900       0.353052
    18744.142500       0.350652
    18779.342700       0.348261
    18814.675400       0.345878
    18850.141400       0.343504
    18885.741300       0.341137
    18921.475900       0.338779
    18957.346000       0.336428
    18993.352300       0.334086
    19029.495700       0.331752
    19065.776900       0.329425
    19102.196800       0.327107
    19138.756000       0.324796
    19175.455400       0.322494
    19212.295900       0.320199
    19249.278200       0.317911
    19286.403100       0.315632
    19323.671500       0.313359
    19361.084200       0.311095
    19398.642100       0.308837
    19436.346000       0.306587
    19474.196700       0.304344
    19512.195100       0.302108
    19550.342100       0.299880
    19588.638600       0.297658
    19627.085400       0.295442
    19665.683400       0.293234
    19704.433500       0.291032
    19743.336600       0.288836
    19782.393700       0.286647
    19821.605600       0.284464
    19860.973200       0.282286
    19900.497500       0.280115
    19940.179500       0.277950
    19980.020000       0.275790
    20020.020000       0.273635
    20060.180500       0.271486
    20100.502500       0.269342
    20140.986900       0.267203
    20181.634700       0.265069
    20222.446900       0.262940
    20263.424500       0.260815
    20304.568500       0.258694
    20345.880000       0.256578
    20387.359800       0.254465
    20429.009200       0.252356
    20470.829100       0.250251
    20512.820500       0.248150
    20554.984600       0.246051
    20597.322300       0.243956
    20639.834900       0.241863
    20682.523300       0.239773
    20725.388600       0.237686
    20768.432000       0.235601
    20811.654500       0.233517
    20855.057400       0.231436
    20898.641600       0.229356
    20942.408400       0.227278
    20986.358900       0.225201
    21030.494200       0.223125
    21074.815600       0.221050
    21119.324200       0.218975
    21164.021200       0.216901
    21208.907700       0.214827
    21253.985100       0.212753
    21299.254500       0.210679
    21344.717200       0.208604
    21390.374300       0.206528
    21436.227200       0.204452
    21482.277100       0.202374
    21528.525300       0.200295
    21574.973000       0.198215
    21621.621600       0.196133
    21668.472400       0.194048
    21715.526600       0.191962
    21762.785600       0.189873
    21810.250800       0.187782
    21857.923500       0.185688
    21905.805000       0.183591
    21953.896800       0.181491
    22002.200200       0.179387
    22050.716600       0.177280
    22099.447500       0.175169
    22148.394200       0.173054
    22197.558300       0.170935
    22246.941000       0.168812
    22296.544000       0.166684
    22346.368700       0.164552
    22396.416600       0.162415
    22446.689100       0.160273
    22497.187900       0.158125
    22547.914300       0.155973
    22598.870100       0.153815
    22650.056600       0.151652
    22701.475600       0.149483
    22753.128600       0.147308
    22805.017100       0.145128
    22857.142900       0.142941
    22909.507400       0.140749
    22962.112500       0.138550
    23014.959700       0.136345
    23068.050700       0.134134
    23121.387300       0.131917
    23174.971000       0.129693
    23228.803700       0.127462
    23282.887100       0.125225
    23337.222900       0.122982
    23391.812900       0.120732
    23446.658900       0.118476
    23501.762600       0.116214
    23557.126000       0.113945
    23612.750900       0.111669
    23668.639100       0.109387
    23724.792400       0.107099
    23781.212800       0.104805
    23837.902300       0.102505
    23894.862600       0.100199
    23952.095800       0.097887
    24009.603800       0.095570
    24067.388700       0.093246
    24125.452400       0.090918
    24183.796900       0.088584
    24242.424200       0.086246
    24301.336600       0.083903
    24360.535900       0.081556
    24420.024400       0.079204
    24479.804200       0.076848
    24539.877300       0.074490
    24600.246000       0.072127
    24660.912500       0.069762
    24721.878900       0.067395
    24783.147500       0.065025
    24844.720500       0.062654
    24906.600200       0.060281
    24968.789000       0.057908
    25031.289100       0.055534
    25094.102900       0.053161
    25157.232700       0.050788
    25220.681000       0.048417
    25284.450100       0.046047
    25348.542500       0.043681
    25412.960600       0.041317
    25477.707000       0.038957
