1,   1, MVIRI VIS channel from srf_MET6_1997033_1997034_1801-Release_S10EL_10.dat
Number of data points:
750
Wavenumber (cm-1)   Filter response
     8760.403000       0.000000
     8768.084200       0.000000
     8775.778900       0.000000
     8783.487000       0.000002
     8791.208800       0.000005
     8798.944100       0.000012
     8806.693100       0.000022
     8814.455700       0.000036
     8822.232000       0.000056
     8830.022100       0.000081
     8837.825900       0.000114
     8845.643500       0.000155
     8853.475000       0.000204
     8861.320300       0.000263
     8869.179600       0.000333
     8877.052800       0.000414
     8884.940000       0.000507
     8892.841300       0.000614
     8900.756600       0.000734
     8908.686000       0.000869
     8916.629500       0.001020
     8924.587200       0.001188
     8932.559200       0.001373
     8940.545400       0.001577
     8948.545900       0.001800
     8956.560700       0.002043
     8964.589900       0.002307
     8972.633500       0.002593
     8980.691500       0.002901
     8988.764000       0.003234
     8996.851100       0.003590
     9004.952700       0.003972
     9013.068900       0.004380
     9021.199800       0.004815
     9029.345400       0.005277
     9037.505600       0.005768
     9045.680700       0.006289
     9053.870500       0.006839
     9062.075200       0.007420
     9070.294800       0.008033
     9078.529300       0.008678
     9086.778700       0.009357
     9095.043200       0.010069
     9103.322700       0.010816
     9111.617300       0.011598
     9119.927000       0.012416
     9128.251900       0.013270
     9136.592100       0.014162
     9144.947400       0.015092
     9153.318100       0.016060
     9161.704100       0.017068
     9170.105500       0.018115
     9178.522300       0.019203
     9186.954500       0.020332
     9195.402300       0.021503
     9203.865600       0.022715
     9212.344500       0.023970
     9220.839100       0.025268
     9229.349300       0.026610
     9237.875300       0.027996
     9246.417000       0.029427
     9254.974500       0.030902
     9263.547900       0.032423
     9272.137200       0.033990
     9280.742500       0.035603
     9289.363700       0.037263
     9298.000900       0.038970
     9306.654300       0.040724
     9315.323700       0.042526
     9324.009300       0.044376
     9332.711200       0.046274
     9341.429200       0.048220
     9350.163600       0.050216
     9358.914400       0.052260
     9367.681500       0.054354
     9376.465100       0.056497
     9385.265100       0.058690
     9394.081700       0.060932
     9402.914900       0.063224
     9411.764700       0.065567
     9420.631200       0.067960
     9429.514400       0.070402
     9438.414300       0.072896
     9447.331100       0.075439
     9456.264800       0.078033
     9465.215300       0.080678
     9474.182900       0.083372
     9483.167400       0.086118
     9492.169000       0.088913
     9501.187600       0.091759
     9510.223500       0.094655
     9519.276500       0.097601
     9528.346800       0.100598
     9537.434400       0.103644
     9546.539400       0.106740
     9555.661700       0.109886
     9564.801500       0.113081
     9573.958800       0.116326
     9583.133700       0.119619
     9592.326100       0.122961
     9601.536200       0.126352
     9610.764100       0.129791
     9620.009600       0.133279
     9629.273000       0.136814
     9638.554200       0.140396
     9647.853400       0.144026
     9657.170400       0.147703
     9666.505600       0.151426
     9675.858700       0.155196
     9685.230000       0.159010
     9694.619500       0.162871
     9704.027200       0.166776
     9713.453100       0.170726
     9722.897400       0.174720
     9732.360100       0.178758
     9741.841200       0.182839
     9751.340800       0.186963
     9760.859000       0.191129
     9770.395700       0.195337
     9779.951100       0.199586
     9789.525200       0.203876
     9799.118100       0.208206
     9808.729800       0.212575
     9818.360300       0.216985
     9828.009800       0.221432
     9837.678300       0.225917
     9847.365800       0.230441
     9857.072400       0.235000
     9866.798200       0.239596
     9876.543200       0.244227
     9886.307500       0.248894
     9896.091000       0.253595
     9905.894000       0.258330
     9915.716400       0.263098
     9925.558300       0.267897
     9935.419800       0.272730
     9945.300800       0.277593
     9955.201600       0.282486
     9965.122100       0.287409
     9975.062300       0.292361
     9985.022500       0.297341
     9995.002500       0.302350
    10005.002500       0.307385
    10015.022500       0.312446
    10025.062700       0.317532
    10035.122900       0.322643
    10045.203400       0.327778
    10055.304200       0.332937
    10065.425300       0.338118
    10075.566800       0.343320
    10085.728700       0.348544
    10095.911200       0.353788
    10106.114200       0.359051
    10116.337900       0.364333
    10126.582300       0.369633
    10136.847400       0.374950
    10147.133400       0.380284
    10157.440300       0.385633
    10167.768200       0.390996
    10178.117000       0.396374
    10188.487000       0.401765
    10198.878100       0.407169
    10209.290500       0.412584
    10219.724100       0.418010
    10230.179000       0.423447
    10240.655400       0.428892
    10251.153300       0.434346
    10261.672700       0.439808
    10272.213700       0.445277
    10282.776300       0.450752
    10293.360800       0.456232
    10303.967000       0.461717
    10314.595200       0.467205
    10325.245200       0.472697
    10335.917300       0.478191
    10346.611500       0.483686
    10357.327800       0.489182
    10368.066400       0.494678
    10378.827200       0.500173
    10389.610400       0.505666
    10400.416000       0.511157
    10411.244100       0.516644
    10422.094800       0.522127
    10432.968200       0.527606
    10443.864200       0.533079
    10454.783100       0.538546
    10465.724800       0.544006
    10476.689400       0.549458
    10487.677000       0.554901
    10498.687700       0.560335
    10509.721500       0.565759
    10520.778500       0.571172
    10531.858900       0.576574
    10542.962600       0.581964
    10554.089700       0.587341
    10565.240400       0.592704
    10576.414600       0.598052
    10587.612500       0.603385
    10598.834100       0.608703
    10610.079600       0.614005
    10621.348900       0.619289
    10632.642200       0.624555
    10643.959600       0.629803
    10655.301000       0.635031
    10666.666700       0.640240
    10678.056600       0.645428
    10689.470900       0.650595
    10700.909600       0.655740
    10712.372800       0.660863
    10723.860600       0.665962
    10735.373100       0.671038
    10746.910300       0.676090
    10758.472300       0.681116
    10770.059200       0.686117
    10781.671200       0.691092
    10793.308100       0.696040
    10804.970300       0.700961
    10816.657700       0.705854
    10828.370300       0.710718
    10840.108400       0.715554
    10851.871900       0.720360
    10863.661100       0.725136
    10875.475800       0.729881
    10887.316300       0.734595
    10899.182600       0.739277
    10911.074700       0.743927
    10922.992900       0.748544
    10934.937100       0.753129
    10946.907500       0.757679
    10958.904100       0.762195
    10970.927000       0.766677
    10982.976400       0.771124
    10995.052200       0.775535
    11007.154700       0.779910
    11019.283700       0.784249
    11031.439600       0.788551
    11043.622300       0.792815
    11055.832000       0.797042
    11068.068600       0.801231
    11080.332400       0.805382
    11092.623400       0.809493
    11104.941700       0.813566
    11117.287400       0.817599
    11129.660500       0.821592
    11142.061300       0.825545
    11154.489700       0.829457
    11166.945800       0.833328
    11179.429800       0.837158
    11191.941800       0.840947
    11204.481800       0.844694
    11217.049900       0.848399
    11229.646300       0.852061
    11242.270900       0.855680
    11254.924000       0.859257
    11267.605600       0.862791
    11280.315800       0.866281
    11293.054800       0.869727
    11305.822500       0.873130
    11318.619100       0.876489
    11331.444800       0.879803
    11344.299500       0.883073
    11357.183400       0.886298
    11370.096600       0.889479
    11383.039300       0.892614
    11396.011400       0.895704
    11409.013100       0.898749
    11422.044500       0.901749
    11435.105800       0.904703
    11448.196900       0.907611
    11461.318100       0.910473
    11474.469300       0.913290
    11487.650800       0.916060
    11500.862600       0.918785
    11514.104800       0.921463
    11527.377500       0.924095
    11540.680900       0.926681
    11554.015000       0.929221
    11567.380000       0.931714
    11580.775900       0.934161
    11594.202900       0.936561
    11607.661100       0.938915
    11621.150500       0.941222
    11634.671300       0.943483
    11648.223600       0.945698
    11661.807600       0.947866
    11675.423200       0.949988
    11689.070700       0.952064
    11702.750100       0.954093
    11716.461600       0.956076
    11730.205300       0.958013
    11743.981200       0.959904
    11757.789500       0.961749
    11771.630400       0.963548
    11785.503800       0.965301
    11799.410000       0.967008
    11813.349100       0.968670
    11827.321100       0.970287
    11841.326200       0.971858
    11855.364600       0.973384
    11869.436200       0.974865
    11883.541300       0.976301
    11897.680000       0.977692
    11911.852300       0.979039
    11926.058400       0.980341
    11940.298500       0.981599
    11954.572600       0.982813
    11968.880900       0.983983
    11983.223500       0.985110
    11997.600500       0.986193
    12012.012000       0.987233
    12026.458200       0.988230
    12040.939200       0.989185
    12055.455100       0.990097
    12070.006000       0.990967
    12084.592100       0.991794
    12099.213600       0.992580
    12113.870400       0.993325
    12128.562800       0.994028
    12143.290800       0.994691
    12158.054700       0.995313
    12172.854500       0.995895
    12187.690400       0.996436
    12202.562500       0.996938
    12217.471000       0.997401
    12232.415900       0.997824
    12247.397400       0.998209
    12262.415700       0.998555
    12277.470800       0.998863
    12292.563000       0.999134
    12307.692300       0.999367
    12322.858900       0.999563
    12338.062900       0.999722
    12353.304500       0.999845
    12368.583800       0.999932
    12383.900900       0.999984
    12399.256000       1.000000
    12414.649300       0.999981
    12430.080800       0.999928
    12445.550700       0.999841
    12461.059200       0.999720
    12476.606400       0.999566
    12492.192400       0.999379
    12507.817400       0.999160
    12523.481500       0.998908
    12539.185000       0.998625
    12554.927800       0.998311
    12570.710200       0.997966
    12586.532400       0.997590
    12602.394500       0.997185
    12618.296500       0.996750
    12634.238800       0.996286
    12650.221400       0.995793
    12666.244500       0.995272
    12682.308200       0.994724
    12698.412700       0.994148
    12714.558200       0.993545
    12730.744700       0.992916
    12746.972600       0.992261
    12763.241900       0.991581
    12779.552700       0.990875
    12795.905300       0.990145
    12812.299800       0.989391
    12828.736400       0.988614
    12845.215200       0.987813
    12861.736300       0.986989
    12878.300100       0.986144
    12894.906500       0.985276
    12911.555800       0.984388
    12928.248200       0.983479
    12944.983800       0.982549
    12961.762800       0.981600
    12978.585300       0.980631
    12995.451600       0.979644
    13012.361700       0.978638
    13029.316000       0.977614
    13046.314400       0.976573
    13063.357300       0.975515
    13080.444700       0.974441
    13097.576900       0.973351
    13114.754100       0.972246
    13131.976400       0.971125
    13149.243900       0.969990
    13166.556900       0.968842
    13183.915600       0.967679
    13201.320100       0.966504
    13218.770700       0.965317
    13236.267400       0.964117
    13253.810500       0.962906
    13271.400100       0.961684
    13289.036500       0.960451
    13306.719900       0.959209
    13324.450400       0.957956
    13342.228200       0.956695
    13360.053400       0.955425
    13377.926400       0.954147
    13395.847300       0.952862
    13413.816200       0.951569
    13431.833400       0.950269
    13449.899100       0.948964
    13468.013500       0.947652
    13486.176700       0.946336
    13504.388900       0.945014
    13522.650400       0.943688
    13540.961400       0.942359
    13559.322000       0.941026
    13577.732500       0.939690
    13596.193100       0.938351
    13614.703900       0.937011
    13633.265200       0.935668
    13651.877100       0.934325
    13670.540000       0.932981
    13689.253900       0.931637
    13708.019200       0.930293
    13726.836000       0.928949
    13745.704500       0.927607
    13764.624900       0.926266
    13783.597500       0.924927
    13802.622500       0.923590
    13821.700100       0.922256
    13840.830400       0.920925
    13860.013900       0.919598
    13879.250500       0.918274
    13898.540700       0.916955
    13917.884500       0.915641
    13937.282200       0.914332
    13956.734100       0.913028
    13976.240400       0.911730
    13995.801300       0.910439
    14015.417000       0.909154
    14035.087700       0.907876
    14054.813800       0.906605
    14074.595400       0.905343
    14094.432700       0.904088
    14114.326000       0.902842
    14134.275600       0.901604
    14154.281700       0.900376
    14174.344400       0.899157
    14194.464200       0.897948
    14214.641100       0.896748
    14234.875400       0.895560
    14255.167500       0.894382
    14275.517500       0.893214
    14295.925700       0.892059
    14316.392300       0.890914
    14336.917600       0.889782
    14357.501800       0.888662
    14378.145200       0.887554
    14398.848100       0.886459
    14419.610700       0.885376
    14440.433200       0.884307
    14461.316000       0.883251
    14482.259200       0.882209
    14503.263200       0.881181
    14524.328200       0.880167
    14545.454500       0.879167
    14566.642400       0.878181
    14587.892000       0.877211
    14609.203800       0.876255
    14630.577900       0.875314
    14652.014700       0.874389
    14673.514300       0.873479
    14695.077100       0.872584
    14716.703500       0.871705
    14738.393500       0.870842
    14760.147600       0.869996
    14781.966000       0.869165
    14803.849000       0.868350
    14825.796900       0.867552
    14847.809900       0.866771
    14869.888500       0.866006
    14892.032800       0.865258
    14914.243100       0.864526
    14936.519800       0.863812
    14958.863100       0.863114
    14981.273400       0.862433
    15003.750900       0.861769
    15026.296000       0.861122
    15048.909000       0.860493
    15071.590100       0.859880
    15094.339600       0.859285
    15117.158000       0.858707
    15140.045400       0.858145
    15163.002300       0.857601
    15186.028900       0.857074
    15209.125500       0.856564
    15232.292500       0.856071
    15255.530100       0.855596
    15278.838800       0.855137
    15302.218800       0.854694
    15325.670500       0.854269
    15349.194200       0.853860
    15372.790200       0.853468
    15396.458800       0.853092
    15420.200500       0.852733
    15444.015400       0.852390
    15467.904100       0.852063
    15491.866800       0.851753
    15515.903800       0.851458
    15540.015500       0.851178
    15564.202300       0.850914
    15588.464500       0.850666
    15612.802500       0.850433
    15637.216600       0.850214
    15661.707100       0.850011
    15686.274500       0.849822
    15710.919100       0.849647
    15735.641200       0.849487
    15760.441300       0.849340
    15785.319700       0.849207
    15810.276700       0.849087
    15835.312700       0.848980
    15860.428200       0.848886
    15885.623500       0.848805
    15910.899000       0.848736
    15936.255000       0.848678
    15961.691900       0.848633
    15987.210200       0.848598
    16012.810200       0.848575
    16038.492400       0.848562
    16064.257000       0.848559
    16090.104600       0.848566
    16116.035500       0.848583
    16142.050000       0.848609
    16168.148700       0.848643
    16194.332000       0.848686
    16220.600200       0.848737
    16246.953700       0.848795
    16273.393000       0.848860
    16299.918500       0.848932
    16326.530600       0.849010
    16353.229800       0.849094
    16380.016400       0.849184
    16406.890900       0.849278
    16433.853700       0.849376
    16460.905300       0.849478
    16488.046200       0.849584
    16515.276600       0.849692
    16542.597200       0.849803
    16570.008300       0.849916
    16597.510400       0.850030
    16625.103900       0.850145
    16652.789300       0.850260
    16680.567100       0.850374
    16708.437800       0.850488
    16736.401700       0.850600
    16764.459300       0.850710
    16792.611300       0.850818
    16820.857900       0.850922
    16849.199700       0.851023
    16877.637100       0.851119
    16906.170800       0.851210
    16934.801000       0.851295
    16963.528400       0.851374
    16992.353400       0.851447
    17021.276600       0.851511
    17050.298400       0.851568
    17079.419300       0.851615
    17108.639900       0.851653
    17137.960600       0.851681
    17167.382000       0.851698
    17196.904600       0.851703
    17226.528900       0.851696
    17256.255400       0.851677
    17286.084700       0.851643
    17316.017300       0.851595
    17346.053800       0.851532
    17376.194600       0.851454
    17406.440400       0.851359
    17436.791600       0.851247
    17467.248900       0.851116
    17497.812800       0.850968
    17528.483800       0.850799
    17559.262500       0.850611
    17590.149500       0.850401
    17621.145400       0.850171
    17652.250700       0.849917
    17683.466000       0.849641
    17714.791900       0.849340
    17746.228900       0.849015
    17777.777800       0.848664
    17809.439000       0.848288
    17841.213200       0.847884
    17873.101000       0.847452
    17905.103000       0.846992
    17937.219700       0.846503
    17969.451900       0.845983
    18001.800200       0.845433
    18034.265100       0.844850
    18066.847300       0.844236
    18099.547500       0.843588
    18132.366300       0.842906
    18165.304300       0.842189
    18198.362100       0.841437
    18231.540600       0.840648
    18264.840200       0.839822
    18298.261700       0.838958
    18331.805700       0.838056
    18365.472900       0.837113
    18399.264000       0.836131
    18433.179700       0.835107
    18467.220700       0.834042
    18501.387600       0.832933
    18535.681200       0.831782
    18570.102100       0.830586
    18604.651200       0.829345
    18639.329000       0.828059
    18674.136300       0.826726
    18709.073900       0.825345
    18744.142500       0.823917
    18779.342700       0.822440
    18814.675400       0.820913
    18850.141400       0.819336
    18885.741300       0.817709
    18921.475900       0.816029
    18957.346000       0.814297
    18993.352300       0.812512
    19029.495700       0.810674
    19065.776900       0.808780
    19102.196800       0.806832
    19138.756000       0.804827
    19175.455400       0.802766
    19212.295900       0.800648
    19249.278200       0.798472
    19286.403100       0.796237
    19323.671500       0.793943
    19361.084200       0.791589
    19398.642100       0.789175
    19436.346000       0.786700
    19474.196700       0.784163
    19512.195100       0.781564
    19550.342100       0.778903
    19588.638600       0.776178
    19627.085400       0.773389
    19665.683400       0.770536
    19704.433500       0.767618
    19743.336600       0.764634
    19782.393700       0.761585
    19821.605600       0.758469
    19860.973200       0.755287
    19900.497500       0.752037
    19940.179500       0.748720
    19980.020000       0.745335
    20020.020000       0.741881
    20060.180500       0.738358
    20100.502500       0.734767
    20140.986900       0.731106
    20181.634700       0.727375
    20222.446900       0.723574
    20263.424500       0.719703
    20304.568500       0.715761
    20345.880000       0.711748
    20387.359800       0.707665
    20429.009200       0.703510
    20470.829100       0.699284
    20512.820500       0.694987
    20554.984600       0.690618
    20597.322300       0.686178
    20639.834900       0.681666
    20682.523300       0.677082
    20725.388600       0.672426
    20768.432000       0.667699
    20811.654500       0.662901
    20855.057400       0.658031
    20898.641600       0.653089
    20942.408400       0.648076
    20986.358900       0.642993
    21030.494200       0.637838
    21074.815600       0.632613
    21119.324200       0.627318
    21164.021200       0.621952
    21208.907700       0.616517
    21253.985100       0.611013
    21299.254500       0.605439
    21344.717200       0.599797
    21390.374300       0.594088
    21436.227200       0.588311
    21482.277100       0.582467
    21528.525300       0.576557
    21574.973000       0.570581
    21621.621600       0.564540
    21668.472400       0.558435
    21715.526600       0.552267
    21762.785600       0.546036
    21810.250800       0.539743
    21857.923500       0.533389
    21905.805000       0.526975
    21953.896800       0.520502
    22002.200200       0.513971
    22050.716600       0.507384
    22099.447500       0.500740
    22148.394200       0.494042
    22197.558300       0.487291
    22246.941000       0.480487
    22296.544000       0.473633
    22346.368700       0.466729
    22396.416600       0.459777
    22446.689100       0.452779
    22497.187900       0.445736
    22547.914300       0.438649
    22598.870100       0.431520
    22650.056600       0.424352
    22701.475600       0.417145
    22753.128600       0.409902
    22805.017100       0.402624
    22857.142900       0.395313
    22909.507400       0.387972
    22962.112500       0.380602
    23014.959700       0.373206
    23068.050700       0.365785
    23121.387300       0.358343
    23174.971000       0.350880
    23228.803700       0.343401
    23282.887100       0.335906
    23337.222900       0.328399
    23391.812900       0.320882
    23446.658900       0.313359
    23501.762600       0.305831
    23557.126000       0.298301
    23612.750900       0.290773
    23668.639100       0.283249
    23724.792400       0.275732
    23781.212800       0.268226
    23837.902300       0.260733
    23894.862600       0.253258
    23952.095800       0.245802
    24009.603800       0.238370
    24067.388700       0.230966
    24125.452400       0.223592
    24183.796900       0.216253
    24242.424200       0.208952
    24301.336600       0.201693
    24360.535900       0.194480
    24420.024400       0.187318
    24479.804200       0.180209
    24539.877300       0.173159
    24600.246000       0.166171
    24660.912500       0.159251
    24721.878900       0.152402
    24783.147500       0.145630
    24844.720500       0.138938
    24906.600200       0.132332
    24968.789000       0.125817
    25031.289100       0.119397
    25094.102900       0.113077
    25157.232700       0.106864
    25220.681000       0.100762
    25284.450100       0.094776
    25348.542500       0.088912
    25412.960600       0.083176
    25477.707000       0.077573
