29,   29, MVIRI VIS channel from srf_MET2_1985258_1985259_1801-Release_S10EL_10.dat
Number of data points:
730
Wavenumber (cm-1)   Filter response
     8916.629500       0.000000
     8924.587200       0.000000
     8932.559200       0.000002
     8940.545400       0.000011
     8948.545900       0.000032
     8956.560700       0.000069
     8964.589900       0.000126
     8972.633500       0.000207
     8980.691500       0.000317
     8988.764000       0.000459
     8996.851100       0.000637
     9004.952700       0.000855
     9013.068900       0.001115
     9021.199800       0.001421
     9029.345400       0.001776
     9037.505600       0.002183
     9045.680700       0.002644
     9053.870500       0.003163
     9062.075200       0.003741
     9070.294800       0.004382
     9078.529300       0.005086
     9086.778700       0.005857
     9095.043200       0.006696
     9103.322700       0.007606
     9111.617300       0.008587
     9119.927000       0.009642
     9128.251900       0.010772
     9136.592100       0.011978
     9144.947400       0.013262
     9153.318100       0.014625
     9161.704100       0.016069
     9170.105500       0.017593
     9178.522300       0.019199
     9186.954500       0.020888
     9195.402300       0.022660
     9203.865600       0.024517
     9212.344500       0.026458
     9220.839100       0.028485
     9229.349300       0.030596
     9237.875300       0.032794
     9246.417000       0.035078
     9254.974500       0.037449
     9263.547900       0.039905
     9272.137200       0.042448
     9280.742500       0.045077
     9289.363700       0.047793
     9298.000900       0.050595
     9306.654300       0.053482
     9315.323700       0.056455
     9324.009300       0.059514
     9332.711200       0.062657
     9341.429200       0.065884
     9350.163600       0.069195
     9358.914400       0.072590
     9367.681500       0.076067
     9376.465100       0.079626
     9385.265100       0.083267
     9394.081700       0.086988
     9402.914900       0.090788
     9411.764700       0.094669
     9420.631200       0.098627
     9429.514400       0.102662
     9438.414300       0.106774
     9447.331100       0.110960
     9456.264800       0.115222
     9465.215300       0.119557
     9474.182900       0.123963
     9483.167400       0.128442
     9492.169000       0.132989
     9501.187600       0.137607
     9510.223500       0.142292
     9519.276500       0.147043
     9528.346800       0.151860
     9537.434400       0.156741
     9546.539400       0.161685
     9555.661700       0.166690
     9564.801500       0.171756
     9573.958800       0.176881
     9583.133700       0.182064
     9592.326100       0.187303
     9601.536200       0.192598
     9610.764100       0.197945
     9620.009600       0.203346
     9629.273000       0.208798
     9638.554200       0.214298
     9647.853400       0.219848
     9657.170400       0.225444
     9666.505600       0.231086
     9675.858700       0.236772
     9685.230000       0.242500
     9694.619500       0.248270
     9704.027200       0.254078
     9713.453100       0.259926
     9722.897400       0.265811
     9732.360100       0.271731
     9741.841200       0.277686
     9751.340800       0.283672
     9760.859000       0.289691
     9770.395700       0.295739
     9779.951100       0.301815
     9789.525200       0.307919
     9799.118100       0.314049
     9808.729800       0.320202
     9818.360300       0.326378
     9828.009800       0.332575
     9837.678300       0.338793
     9847.365800       0.345030
     9857.072400       0.351282
     9866.798200       0.357552
     9876.543200       0.363835
     9886.307500       0.370133
     9896.091000       0.376442
     9905.894000       0.382761
     9915.716400       0.389089
     9925.558300       0.395425
     9935.419800       0.401768
     9945.300800       0.408117
     9955.201600       0.414468
     9965.122100       0.420823
     9975.062300       0.427179
     9985.022500       0.433536
     9995.002500       0.439891
    10005.002500       0.446244
    10015.022500       0.452593
    10025.062700       0.458938
    10035.122900       0.465277
    10045.203400       0.471609
    10055.304200       0.477933
    10065.425300       0.484247
    10075.566800       0.490551
    10085.728700       0.496843
    10095.911200       0.503123
    10106.114200       0.509389
    10116.337900       0.515640
    10126.582300       0.521875
    10136.847400       0.528094
    10147.133400       0.534294
    10157.440300       0.540476
    10167.768200       0.546637
    10178.117000       0.552778
    10188.487000       0.558897
    10198.878100       0.564993
    10209.290500       0.571065
    10219.724100       0.577113
    10230.179000       0.583135
    10240.655400       0.589130
    10251.153300       0.595099
    10261.672700       0.601039
    10272.213700       0.606950
    10282.776300       0.612832
    10293.360800       0.618683
    10303.967000       0.624503
    10314.595200       0.630290
    10325.245200       0.636045
    10335.917300       0.641767
    10346.611500       0.647454
    10357.327800       0.653106
    10368.066400       0.658722
    10378.827200       0.664302
    10389.610400       0.669845
    10400.416000       0.675351
    10411.244100       0.680818
    10422.094800       0.686247
    10432.968200       0.691636
    10443.864200       0.696985
    10454.783100       0.702294
    10465.724800       0.707561
    10476.689400       0.712788
    10487.677000       0.717972
    10498.687700       0.723114
    10509.721500       0.728212
    10520.778500       0.733267
    10531.858900       0.738278
    10542.962600       0.743246
    10554.089700       0.748168
    10565.240400       0.753045
    10576.414600       0.757876
    10587.612500       0.762662
    10598.834100       0.767402
    10610.079600       0.772095
    10621.348900       0.776741
    10632.642200       0.781340
    10643.959600       0.785892
    10655.301000       0.790396
    10666.666700       0.794852
    10678.056600       0.799259
    10689.470900       0.803618
    10700.909600       0.807929
    10712.372800       0.812191
    10723.860600       0.816403
    10735.373100       0.820566
    10746.910300       0.824680
    10758.472300       0.828745
    10770.059200       0.832759
    10781.671200       0.836724
    10793.308100       0.840638
    10804.970300       0.844503
    10816.657700       0.848317
    10828.370300       0.852081
    10840.108400       0.855795
    10851.871900       0.859458
    10863.661100       0.863071
    10875.475800       0.866634
    10887.316300       0.870145
    10899.182600       0.873607
    10911.074700       0.877018
    10922.992900       0.880378
    10934.937100       0.883688
    10946.907500       0.886947
    10958.904100       0.890156
    10970.927000       0.893315
    10982.976400       0.896423
    10995.052200       0.899481
    11007.154700       0.902488
    11019.283700       0.905446
    11031.439600       0.908354
    11043.622300       0.911211
    11055.832000       0.914019
    11068.068600       0.916777
    11080.332400       0.919486
    11092.623400       0.922145
    11104.941700       0.924755
    11117.287400       0.927316
    11129.660500       0.929827
    11142.061300       0.932290
    11154.489700       0.934705
    11166.945800       0.937070
    11179.429800       0.939388
    11191.941800       0.941657
    11204.481800       0.943879
    11217.049900       0.946053
    11229.646300       0.948179
    11242.270900       0.950258
    11254.924000       0.952290
    11267.605600       0.954275
    11280.315800       0.956214
    11293.054800       0.958106
    11305.822500       0.959952
    11318.619100       0.961753
    11331.444800       0.963508
    11344.299500       0.965217
    11357.183400       0.966881
    11370.096600       0.968501
    11383.039300       0.970076
    11396.011400       0.971606
    11409.013100       0.973093
    11422.044500       0.974536
    11435.105800       0.975936
    11448.196900       0.977292
    11461.318100       0.978606
    11474.469300       0.979877
    11487.650800       0.981105
    11500.862600       0.982292
    11514.104800       0.983437
    11527.377500       0.984541
    11540.680900       0.985604
    11554.015000       0.986626
    11567.380000       0.987607
    11580.775900       0.988549
    11594.202900       0.989450
    11607.661100       0.990313
    11621.150500       0.991136
    11634.671300       0.991920
    11648.223600       0.992665
    11661.807600       0.993373
    11675.423200       0.994042
    11689.070700       0.994674
    11702.750100       0.995269
    11716.461600       0.995827
    11730.205300       0.996348
    11743.981200       0.996834
    11757.789500       0.997283
    11771.630400       0.997696
    11785.503800       0.998074
    11799.410000       0.998418
    11813.349100       0.998726
    11827.321100       0.999001
    11841.326200       0.999241
    11855.364600       0.999448
    11869.436200       0.999621
    11883.541300       0.999762
    11897.680000       0.999870
    11911.852300       0.999945
    11926.058400       0.999988
    11940.298500       1.000000
    11954.572600       0.999980
    11968.880900       0.999929
    11983.223500       0.999848
    11997.600500       0.999736
    12012.012000       0.999594
    12026.458200       0.999422
    12040.939200       0.999220
    12055.455100       0.998990
    12070.006000       0.998730
    12084.592100       0.998442
    12099.213600       0.998126
    12113.870400       0.997781
    12128.562800       0.997409
    12143.290800       0.997010
    12158.054700       0.996583
    12172.854500       0.996130
    12187.690400       0.995650
    12202.562500       0.995144
    12217.471000       0.994612
    12232.415900       0.994054
    12247.397400       0.993472
    12262.415700       0.992864
    12277.470800       0.992231
    12292.563000       0.991573
    12307.692300       0.990892
    12322.858900       0.990186
    12338.062900       0.989457
    12353.304500       0.988704
    12368.583800       0.987928
    12383.900900       0.987129
    12399.256000       0.986308
    12414.649300       0.985464
    12430.080800       0.984598
    12445.550700       0.983710
    12461.059200       0.982800
    12476.606400       0.981869
    12492.192400       0.980916
    12507.817400       0.979943
    12523.481500       0.978949
    12539.185000       0.977935
    12554.927800       0.976900
    12570.710200       0.975845
    12586.532400       0.974770
    12602.394500       0.973676
    12618.296500       0.972562
    12634.238800       0.971430
    12650.221400       0.970278
    12666.244500       0.969107
    12682.308200       0.967918
    12698.412700       0.966711
    12714.558200       0.965485
    12730.744700       0.964241
    12746.972600       0.962980
    12763.241900       0.961701
    12779.552700       0.960405
    12795.905300       0.959091
    12812.299800       0.957761
    12828.736400       0.956413
    12845.215200       0.955049
    12861.736300       0.953668
    12878.300100       0.952271
    12894.906500       0.950858
    12911.555800       0.949429
    12928.248200       0.947984
    12944.983800       0.946523
    12961.762800       0.945047
    12978.585300       0.943555
    12995.451600       0.942048
    13012.361700       0.940526
    13029.316000       0.938989
    13046.314400       0.937437
    13063.357300       0.935871
    13080.444700       0.934290
    13097.576900       0.932695
    13114.754100       0.931085
    13131.976400       0.929461
    13149.243900       0.927823
    13166.556900       0.926172
    13183.915600       0.924506
    13201.320100       0.922827
    13218.770700       0.921134
    13236.267400       0.919428
    13253.810500       0.917709
    13271.400100       0.915976
    13289.036500       0.914230
    13306.719900       0.912472
    13324.450400       0.910700
    13342.228200       0.908915
    13360.053400       0.907118
    13377.926400       0.905309
    13395.847300       0.903487
    13413.816200       0.901652
    13431.833400       0.899805
    13449.899100       0.897946
    13468.013500       0.896075
    13486.176700       0.894192
    13504.388900       0.892296
    13522.650400       0.890389
    13540.961400       0.888471
    13559.322000       0.886540
    13577.732500       0.884598
    13596.193100       0.882644
    13614.703900       0.880679
    13633.265200       0.878702
    13651.877100       0.876714
    13670.540000       0.874715
    13689.253900       0.872705
    13708.019200       0.870683
    13726.836000       0.868651
    13745.704500       0.866608
    13764.624900       0.864553
    13783.597500       0.862488
    13802.622500       0.860412
    13821.700100       0.858325
    13840.830400       0.856228
    13860.013900       0.854120
    13879.250500       0.852002
    13898.540700       0.849873
    13917.884500       0.847734
    13937.282200       0.845584
    13956.734100       0.843425
    13976.240400       0.841255
    13995.801300       0.839075
    14015.417000       0.836884
    14035.087700       0.834684
    14054.813800       0.832474
    14074.595400       0.830254
    14094.432700       0.828024
    14114.326000       0.825784
    14134.275600       0.823535
    14154.281700       0.821276
    14174.344400       0.819007
    14194.464200       0.816729
    14214.641100       0.814441
    14234.875400       0.812144
    14255.167500       0.809838
    14275.517500       0.807522
    14295.925700       0.805197
    14316.392300       0.802863
    14336.917600       0.800519
    14357.501800       0.798167
    14378.145200       0.795806
    14398.848100       0.793435
    14419.610700       0.791056
    14440.433200       0.788668
    14461.316000       0.786271
    14482.259200       0.783866
    14503.263200       0.781452
    14524.328200       0.779029
    14545.454500       0.776598
    14566.642400       0.774159
    14587.892000       0.771711
    14609.203800       0.769255
    14630.577900       0.766791
    14652.014700       0.764318
    14673.514300       0.761838
    14695.077100       0.759350
    14716.703500       0.756853
    14738.393500       0.754349
    14760.147600       0.751837
    14781.966000       0.749318
    14803.849000       0.746790
    14825.796900       0.744256
    14847.809900       0.741714
    14869.888500       0.739164
    14892.032800       0.736607
    14914.243100       0.734043
    14936.519800       0.731472
    14958.863100       0.728894
    14981.273400       0.726309
    15003.750900       0.723718
    15026.296000       0.721119
    15048.909000       0.718514
    15071.590100       0.715902
    15094.339600       0.713284
    15117.158000       0.710659
    15140.045400       0.708028
    15163.002300       0.705391
    15186.028900       0.702748
    15209.125500       0.700099
    15232.292500       0.697444
    15255.530100       0.694784
    15278.838800       0.692117
    15302.218800       0.689445
    15325.670500       0.686768
    15349.194200       0.684085
    15372.790200       0.681397
    15396.458800       0.678704
    15420.200500       0.676006
    15444.015400       0.673303
    15467.904100       0.670596
    15491.866800       0.667884
    15515.903800       0.665167
    15540.015500       0.662445
    15564.202300       0.659720
    15588.464500       0.656990
    15612.802500       0.654257
    15637.216600       0.651519
    15661.707100       0.648777
    15686.274500       0.646032
    15710.919100       0.643284
    15735.641200       0.640532
    15760.441300       0.637776
    15785.319700       0.635018
    15810.276700       0.632256
    15835.312700       0.629492
    15860.428200       0.626725
    15885.623500       0.623955
    15910.899000       0.621183
    15936.255000       0.618409
    15961.691900       0.615632
    15987.210200       0.612853
    16012.810200       0.610072
    16038.492400       0.607290
    16064.257000       0.604506
    16090.104600       0.601721
    16116.035500       0.598934
    16142.050000       0.596146
    16168.148700       0.593357
    16194.332000       0.590567
    16220.600200       0.587776
    16246.953700       0.584984
    16273.393000       0.582192
    16299.918500       0.579400
    16326.530600       0.576608
    16353.229800       0.573816
    16380.016400       0.571023
    16406.890900       0.568231
    16433.853700       0.565440
    16460.905300       0.562649
    16488.046200       0.559859
    16515.276600       0.557069
    16542.597200       0.554281
    16570.008300       0.551494
    16597.510400       0.548708
    16625.103900       0.545923
    16652.789300       0.543141
    16680.567100       0.540360
    16708.437800       0.537580
    16736.401700       0.534803
    16764.459300       0.532028
    16792.611300       0.529256
    16820.857900       0.526486
    16849.199700       0.523718
    16877.637100       0.520954
    16906.170800       0.518192
    16934.801000       0.515433
    16963.528400       0.512678
    16992.353400       0.509926
    17021.276600       0.507177
    17050.298400       0.504432
    17079.419300       0.501691
    17108.639900       0.498954
    17137.960600       0.496221
    17167.382000       0.493492
    17196.904600       0.490767
    17226.528900       0.488047
    17256.255400       0.485331
    17286.084700       0.482620
    17316.017300       0.479913
    17346.053800       0.477212
    17376.194600       0.474516
    17406.440400       0.471825
    17436.791600       0.469139
    17467.248900       0.466459
    17497.812800       0.463784
    17528.483800       0.461115
    17559.262500       0.458451
    17590.149500       0.455794
    17621.145400       0.453142
    17652.250700       0.450497
    17683.466000       0.447857
    17714.791900       0.445224
    17746.228900       0.442597
    17777.777800       0.439977
    17809.439000       0.437363
    17841.213200       0.434756
    17873.101000       0.432156
    17905.103000       0.429562
    17937.219700       0.426976
    17969.451900       0.424396
    18001.800200       0.421823
    18034.265100       0.419258
    18066.847300       0.416699
    18099.547500       0.414148
    18132.366300       0.411604
    18165.304300       0.409067
    18198.362100       0.406538
    18231.540600       0.404016
    18264.840200       0.401502
    18298.261700       0.398995
    18331.805700       0.396496
    18365.472900       0.394004
    18399.264000       0.391520
    18433.179700       0.389044
    18467.220700       0.386575
    18501.387600       0.384115
    18535.681200       0.381661
    18570.102100       0.379216
    18604.651200       0.376778
    18639.329000       0.374348
    18674.136300       0.371926
    18709.073900       0.369511
    18744.142500       0.367104
    18779.342700       0.364705
    18814.675400       0.362313
    18850.141400       0.359930
    18885.741300       0.357553
    18921.475900       0.355185
    18957.346000       0.352824
    18993.352300       0.350470
    19029.495700       0.348124
    19065.776900       0.345786
    19102.196800       0.343455
    19138.756000       0.341131
    19175.455400       0.338814
    19212.295900       0.336504
    19249.278200       0.334202
    19286.403100       0.331907
    19323.671500       0.329618
    19361.084200       0.327337
    19398.642100       0.325062
    19436.346000       0.322794
    19474.196700       0.320533
    19512.195100       0.318278
    19550.342100       0.316030
    19588.638600       0.313787
    19627.085400       0.311551
    19665.683400       0.309321
    19704.433500       0.307097
    19743.336600       0.304879
    19782.393700       0.302666
    19821.605600       0.300459
    19860.973200       0.298257
    19900.497500       0.296060
    19940.179500       0.293869
    19980.020000       0.291682
    20020.020000       0.289500
    20060.180500       0.287323
    20100.502500       0.285150
    20140.986900       0.282981
    20181.634700       0.280817
    20222.446900       0.278656
    20263.424500       0.276499
    20304.568500       0.274346
    20345.880000       0.272195
    20387.359800       0.270048
    20429.009200       0.267904
    20470.829100       0.265763
    20512.820500       0.263624
    20554.984600       0.261488
    20597.322300       0.259354
    20639.834900       0.257221
    20682.523300       0.255090
    20725.388600       0.252961
    20768.432000       0.250833
    20811.654500       0.248706
    20855.057400       0.246580
    20898.641600       0.244455
    20942.408400       0.242329
    20986.358900       0.240204
    21030.494200       0.238079
    21074.815600       0.235953
    21119.324200       0.233827
    21164.021200       0.231700
    21208.907700       0.229572
    21253.985100       0.227443
    21299.254500       0.225312
    21344.717200       0.223180
    21390.374300       0.221045
    21436.227200       0.218908
    21482.277100       0.216769
    21528.525300       0.214627
    21574.973000       0.212481
    21621.621600       0.210333
    21668.472400       0.208181
    21715.526600       0.206026
    21762.785600       0.203866
    21810.250800       0.201703
    21857.923500       0.199535
    21905.805000       0.197362
    21953.896800       0.195185
    22002.200200       0.193002
    22050.716600       0.190814
    22099.447500       0.188621
    22148.394200       0.186422
    22197.558300       0.184217
    22246.941000       0.182006
    22296.544000       0.179788
    22346.368700       0.177564
    22396.416600       0.175334
    22446.689100       0.173096
    22497.187900       0.170851
    22547.914300       0.168599
    22598.870100       0.166339
    22650.056600       0.164072
    22701.475600       0.161797
    22753.128600       0.159514
    22805.017100       0.157223
    22857.142900       0.154924
    22909.507400       0.152616
    22962.112500       0.150300
    23014.959700       0.147975
    23068.050700       0.145642
    23121.387300       0.143300
    23174.971000       0.140949
    23228.803700       0.138590
    23282.887100       0.136221
    23337.222900       0.133843
    23391.812900       0.131457
    23446.658900       0.129061
    23501.762600       0.126657
    23557.126000       0.124243
    23612.750900       0.121820
    23668.639100       0.119389
    23724.792400       0.116948
    23781.212800       0.114498
    23837.902300       0.112040
    23894.862600       0.109573
    23952.095800       0.107098
    24009.603800       0.104614
    24067.388700       0.102122
    24125.452400       0.099622
    24183.796900       0.097114
    24242.424200       0.094598
    24301.336600       0.092075
    24360.535900       0.089544
    24420.024400       0.087007
    24479.804200       0.084463
    24539.877300       0.081912
    24600.246000       0.079356
    24660.912500       0.076794
    24721.878900       0.074227
    24783.147500       0.071655
    24844.720500       0.069078
    24906.600200       0.066498
    24968.789000       0.063914
    25031.289100       0.061327
    25094.102900       0.058738
    25157.232700       0.056147
    25220.681000       0.053554
    25284.450100       0.050961
    25348.542500       0.048369
    25412.960600       0.045777
    25477.707000       0.043186
