   6  ,metop_02_hirs_06.flt
Number of data points:
397
Wavenumber (cm-1)   Filter response
      711.200000       0.000000
      711.300000       0.003795
      711.400000       0.003841
      711.500000       0.003968
      711.600000       0.004172
      711.700000       0.004444
      711.800000       0.004774
      711.900000       0.005145
      712.000000       0.005541
      712.100000       0.005944
      712.200000       0.006336
      712.300000       0.006701
      712.400000       0.007024
      712.500000       0.007296
      712.600000       0.007510
      712.700000       0.007662
      712.800000       0.007753
      712.900000       0.007789
      713.000000       0.007777
      713.100000       0.007728
      713.200000       0.007654
      713.300000       0.007570
      713.400000       0.007487
      713.500000       0.007417
      713.600000       0.007371
      713.700000       0.007355
      713.800000       0.007374
      713.900000       0.007429
      714.000000       0.007517
      714.100000       0.007632
      714.200000       0.007768
      714.300000       0.007916
      714.400000       0.008067
      714.500000       0.008212
      714.600000       0.008342
      714.700000       0.008451
      714.800000       0.008535
      714.900000       0.008596
      715.000000       0.008634
      715.100000       0.008657
      715.200000       0.008674
      715.300000       0.008696
      715.400000       0.008738
      715.500000       0.008814
      715.600000       0.008939
      715.700000       0.009127
      715.800000       0.009391
      715.900000       0.009741
      716.000000       0.010184
      716.100000       0.010721
      716.200000       0.011354
      716.300000       0.012078
      716.400000       0.012887
      716.500000       0.013438
      716.600000       0.014471
      716.700000       0.015554
      716.800000       0.016667
      716.900000       0.017794
      717.000000       0.018919
      717.100000       0.020030
      717.200000       0.021120
      717.300000       0.022187
      717.400000       0.023234
      717.500000       0.024268
      717.600000       0.025304
      717.700000       0.026359
      717.800000       0.027452
      717.900000       0.028605
      718.000000       0.029841
      718.100000       0.031197
      718.200000       0.032682
      718.300000       0.034314
      718.400000       0.036109
      718.500000       0.038080
      718.600000       0.040237
      718.700000       0.042585
      718.800000       0.045129
      718.900000       0.047873
      719.000000       0.050818
      719.100000       0.053968
      719.200000       0.057328
      719.300000       0.060905
      719.400000       0.064709
      719.500000       0.068754
      719.600000       0.073066
      719.700000       0.077659
      719.800000       0.082558
      719.900000       0.087792
      720.000000       0.093390
      720.100000       0.099337
      720.200000       0.105700
      720.300000       0.112520
      720.400000       0.119810
      720.500000       0.127590
      720.600000       0.135880
      720.700000       0.144700
      720.800000       0.154050
      720.900000       0.163930
      721.000000       0.174330
      721.100000       0.185250
      721.200000       0.196670
      721.300000       0.208570
      721.400000       0.220940
      721.500000       0.233770
      721.600000       0.247030
      721.700000       0.260690
      721.800000       0.274750
      721.900000       0.289190
      722.000000       0.303980
      722.100000       0.319090
      722.200000       0.334520
      722.300000       0.350260
      722.400000       0.366290
      722.500000       0.382610
      722.600000       0.399170
      722.700000       0.415970
      722.800000       0.432960
      722.900000       0.450110
      723.000000       0.467370
      723.100000       0.484710
      723.200000       0.502060
      723.300000       0.519370
      723.400000       0.536590
      723.500000       0.553660
      723.600000       0.570500
      723.700000       0.587050
      723.800000       0.603260
      723.900000       0.619070
      724.000000       0.634420
      724.100000       0.649450
      724.200000       0.663970
      724.300000       0.677930
      724.400000       0.691330
      724.500000       0.704150
      724.600000       0.716390
      724.700000       0.728050
      724.800000       0.739150
      724.900000       0.749700
      725.000000       0.759710
      725.100000       0.769230
      725.200000       0.778260
      725.300000       0.786840
      725.400000       0.795010
      725.500000       0.802780
      725.600000       0.810170
      725.700000       0.817210
      725.800000       0.823920
      725.900000       0.830330
      726.000000       0.836440
      726.100000       0.842310
      726.200000       0.847930
      726.300000       0.853310
      726.400000       0.858470
      726.500000       0.863410
      726.600000       0.868160
      726.700000       0.872730
      726.800000       0.877130
      726.900000       0.881370
      727.000000       0.885480
      727.100000       0.889440
      727.200000       0.893290
      727.300000       0.897040
      727.400000       0.900690
      727.500000       0.904250
      727.600000       0.907730
      727.700000       0.911130
      727.800000       0.914470
      727.900000       0.917750
      728.000000       0.920970
      728.100000       0.924030
      728.200000       0.927040
      728.300000       0.930010
      728.400000       0.932940
      728.500000       0.935840
      728.600000       0.938700
      728.700000       0.941550
      728.800000       0.944370
      728.900000       0.947170
      729.000000       0.949950
      729.100000       0.952690
      729.200000       0.955400
      729.300000       0.958060
      729.400000       0.960680
      729.500000       0.963240
      729.600000       0.965740
      729.700000       0.968150
      729.800000       0.970470
      729.900000       0.972680
      730.000000       0.974770
      730.100000       0.976480
      730.200000       0.978060
      730.300000       0.979480
      730.400000       0.980740
      730.500000       0.981850
      730.600000       0.982820
      730.700000       0.983650
      730.800000       0.984360
      730.900000       0.984970
      731.000000       0.985490
      731.100000       0.985950
      731.200000       0.986370
      731.300000       0.986770
      731.400000       0.987170
      731.500000       0.987580
      731.600000       0.988010
      731.700000       0.988470
      731.800000       0.988970
      731.900000       0.989510
      732.000000       0.990060
      732.100000       0.991060
      732.200000       0.992050
      732.300000       0.993040
      732.400000       0.993990
      732.500000       0.994900
      732.600000       0.995750
      732.700000       0.996520
      732.800000       0.997200
      732.900000       0.997790
      733.000000       0.998270
      733.100000       0.998700
      733.200000       0.999030
      733.300000       0.999280
      733.400000       0.999470
      733.500000       0.999590
      733.600000       0.999690
      733.700000       0.999760
      733.800000       0.999820
      733.900000       0.999900
      734.000000       1.000000
      734.100000       0.999800
      734.200000       0.999630
      734.300000       0.999490
      734.400000       0.999380
      734.500000       0.999280
      734.600000       0.999190
      734.700000       0.999100
      734.800000       0.998970
      734.900000       0.998810
      735.000000       0.998590
      735.100000       0.998270
      735.200000       0.997860
      735.300000       0.997330
      735.400000       0.996680
      735.500000       0.995870
      735.600000       0.994910
      735.700000       0.993790
      735.800000       0.992480
      735.900000       0.990970
      736.000000       0.989260
      736.100000       0.987210
      736.200000       0.984920
      736.300000       0.982360
      736.400000       0.979500
      736.500000       0.976330
      736.600000       0.972790
      736.700000       0.968860
      736.800000       0.964500
      736.900000       0.959680
      737.000000       0.954340
      737.100000       0.948450
      737.200000       0.941970
      737.300000       0.934850
      737.400000       0.927060
      737.500000       0.918580
      737.600000       0.909390
      737.700000       0.899460
      737.800000       0.888790
      737.900000       0.877380
      738.000000       0.865220
      738.100000       0.852590
      738.200000       0.839230
      738.300000       0.825160
      738.400000       0.810410
      738.500000       0.795000
      738.600000       0.778960
      738.700000       0.762320
      738.800000       0.745130
      738.900000       0.727420
      739.000000       0.709240
      739.100000       0.690630
      739.200000       0.671630
      739.300000       0.652300
      739.400000       0.632670
      739.500000       0.612800
      739.600000       0.592750
      739.700000       0.572570
      739.800000       0.552310
      739.900000       0.532030
      740.000000       0.511790
      740.100000       0.491650
      740.200000       0.471670
      740.300000       0.451890
      740.400000       0.432370
      740.500000       0.413150
      740.600000       0.394290
      740.700000       0.375830
      740.800000       0.357800
      740.900000       0.340240
      741.000000       0.323170
      741.100000       0.306620
      741.200000       0.290610
      741.300000       0.275160
      741.400000       0.260270
      741.500000       0.245960
      741.600000       0.232240
      741.700000       0.219100
      741.800000       0.206560
      741.900000       0.194610
      742.000000       0.183250
      742.100000       0.172490
      742.200000       0.162320
      742.300000       0.152730
      742.400000       0.143710
      742.500000       0.135250
      742.600000       0.127340
      742.700000       0.119960
      742.800000       0.113090
      742.900000       0.106710
      743.000000       0.100780
      743.100000       0.095281
      743.200000       0.090175
      743.300000       0.085425
      743.400000       0.080995
      743.500000       0.076848
      743.600000       0.072947
      743.700000       0.069257
      743.800000       0.065750
      743.900000       0.062396
      744.000000       0.059174
      744.100000       0.056072
      744.200000       0.053073
      744.300000       0.050171
      744.400000       0.047366
      744.500000       0.044659
      744.600000       0.042060
      744.700000       0.039578
      744.800000       0.037224
      744.900000       0.035011
      745.000000       0.032952
      745.100000       0.031054
      745.200000       0.029327
      745.300000       0.027774
      745.400000       0.026395
      745.500000       0.025184
      745.600000       0.024132
      745.700000       0.023227
      745.800000       0.022452
      745.900000       0.021789
      746.000000       0.021217
      746.100000       0.020710
      746.200000       0.020255
      746.300000       0.019831
      746.400000       0.019421
      746.500000       0.019010
      746.600000       0.018587
      746.700000       0.018142
      746.800000       0.017670
      746.900000       0.017166
      747.000000       0.016633
      747.100000       0.016072
      747.200000       0.015489
      747.300000       0.014888
      747.400000       0.014277
      747.500000       0.013663
      747.600000       0.013050
      747.700000       0.012443
      747.800000       0.011844
      747.900000       0.011255
      748.000000       0.010676
      748.100000       0.010111
      748.200000       0.009554
      748.300000       0.009006
      748.400000       0.008466
      748.500000       0.007936
      748.600000       0.007417
      748.700000       0.006913
      748.800000       0.006425
      748.900000       0.005956
      749.000000       0.005509
      749.100000       0.005086
      749.200000       0.004690
      749.300000       0.004324
      749.400000       0.003990
      749.500000       0.003692
      749.600000       0.003433
      749.700000       0.003214
      749.800000       0.003035
      749.900000       0.002893
      750.000000       0.002780
      750.100000       0.002739
      750.200000       0.002616
      750.300000       0.002502
      750.400000       0.002394
      750.500000       0.002289
      750.600000       0.002188
      750.700000       0.002090
      750.800000       0.000000
