7,   7, MVIRI VIS channel from srf_MET2_1982348_1982349_1801-Release_S10EL_10.dat
Number of data points:
730
Wavenumber (cm-1)   Filter response
     8916.629500       0.000000
     8924.587200       0.000000
     8932.559200       0.000002
     8940.545400       0.000011
     8948.545900       0.000032
     8956.560700       0.000068
     8964.589900       0.000124
     8972.633500       0.000205
     8980.691500       0.000314
     8988.764000       0.000455
     8996.851100       0.000631
     9004.952700       0.000846
     9013.068900       0.001104
     9021.199800       0.001407
     9029.345400       0.001759
     9037.505600       0.002161
     9045.680700       0.002618
     9053.870500       0.003132
     9062.075200       0.003705
     9070.294800       0.004339
     9078.529300       0.005037
     9086.778700       0.005801
     9095.043200       0.006632
     9103.322700       0.007533
     9111.617300       0.008505
     9119.927000       0.009550
     9128.251900       0.010669
     9136.592100       0.011864
     9144.947400       0.013136
     9153.318100       0.014486
     9161.704100       0.015916
     9170.105500       0.017426
     9178.522300       0.019018
     9186.954500       0.020691
     9195.402300       0.022447
     9203.865600       0.024286
     9212.344500       0.026210
     9220.839100       0.028218
     9229.349300       0.030311
     9237.875300       0.032489
     9246.417000       0.034752
     9254.974500       0.037101
     9263.547900       0.039536
     9272.137200       0.042056
     9280.742500       0.044662
     9289.363700       0.047353
     9298.000900       0.050131
     9306.654300       0.052993
     9315.323700       0.055940
     9324.009300       0.058971
     9332.711200       0.062087
     9341.429200       0.065286
     9350.163600       0.068569
     9358.914400       0.071934
     9367.681500       0.075382
     9376.465100       0.078911
     9385.265100       0.082520
     9394.081700       0.086210
     9402.914900       0.089979
     9411.764700       0.093826
     9420.631200       0.097752
     9429.514400       0.101753
     9438.414300       0.105831
     9447.331100       0.109983
     9456.264800       0.114209
     9465.215300       0.118509
     9474.182900       0.122880
     9483.167400       0.127322
     9492.169000       0.131833
     9501.187600       0.136413
     9510.223500       0.141061
     9519.276500       0.145774
     9528.346800       0.150553
     9537.434400       0.155396
     9546.539400       0.160301
     9555.661700       0.165268
     9564.801500       0.170294
     9573.958800       0.175380
     9583.133700       0.180524
     9592.326100       0.185722
     9601.536200       0.190977
     9610.764100       0.196284
     9620.009600       0.201645
     9629.273000       0.207056
     9638.554200       0.212516
     9647.853400       0.218025
     9657.170400       0.223580
     9666.505600       0.229181
     9675.858700       0.234826
     9685.230000       0.240513
     9694.619500       0.246242
     9704.027200       0.252010
     9713.453100       0.257817
     9722.897400       0.263661
     9732.360100       0.269540
     9741.841200       0.275453
     9751.340800       0.281399
     9760.859000       0.287377
     9770.395700       0.293385
     9779.951100       0.299421
     9789.525200       0.305484
     9799.118100       0.311574
     9808.729800       0.317687
     9818.360300       0.323823
     9828.009800       0.329981
     9837.678300       0.336159
     9847.365800       0.342357
     9857.072400       0.348571
     9866.798200       0.354802
     9876.543200       0.361047
     9886.307500       0.367306
     9896.091000       0.373578
     9905.894000       0.379859
     9915.716400       0.386151
     9925.558300       0.392450
     9935.419800       0.398757
     9945.300800       0.405070
     9955.201600       0.411386
     9965.122100       0.417706
     9975.062300       0.424027
     9985.022500       0.430349
     9995.002500       0.436671
    10005.002500       0.442990
    10015.022500       0.449307
    10025.062700       0.455619
    10035.122900       0.461926
    10045.203400       0.468226
    10055.304200       0.474520
    10065.425300       0.480803
    10075.566800       0.487077
    10085.728700       0.493340
    10095.911200       0.499592
    10106.114200       0.505829
    10116.337900       0.512053
    10126.582300       0.518261
    10136.847400       0.524452
    10147.133400       0.530627
    10157.440300       0.536783
    10167.768200       0.542920
    10178.117000       0.549036
    10188.487000       0.555132
    10198.878100       0.561205
    10209.290500       0.567255
    10219.724100       0.573281
    10230.179000       0.579282
    10240.655400       0.585258
    10251.153300       0.591207
    10261.672700       0.597128
    10272.213700       0.603021
    10282.776300       0.608885
    10293.360800       0.614720
    10303.967000       0.620523
    10314.595200       0.626295
    10325.245200       0.632035
    10335.917300       0.637743
    10346.611500       0.643416
    10357.327800       0.649056
    10368.066400       0.654660
    10378.827200       0.660229
    10389.610400       0.665762
    10400.416000       0.671258
    10411.244100       0.676716
    10422.094800       0.682136
    10432.968200       0.687518
    10443.864200       0.692861
    10454.783100       0.698163
    10465.724800       0.703426
    10476.689400       0.708647
    10487.677000       0.713828
    10498.687700       0.718966
    10509.721500       0.724063
    10520.778500       0.729116
    10531.858900       0.734127
    10542.962600       0.739094
    10554.089700       0.744017
    10565.240400       0.748896
    10576.414600       0.753730
    10587.612500       0.758518
    10598.834100       0.763262
    10610.079600       0.767960
    10621.348900       0.772611
    10632.642200       0.777216
    10643.959600       0.781775
    10655.301000       0.786286
    10666.666700       0.790750
    10678.056600       0.795167
    10689.470900       0.799536
    10700.909600       0.803857
    10712.372800       0.808130
    10723.860600       0.812355
    10735.373100       0.816531
    10746.910300       0.820658
    10758.472300       0.824737
    10770.059200       0.828766
    10781.671200       0.832747
    10793.308100       0.836678
    10804.970300       0.840560
    10816.657700       0.844392
    10828.370300       0.848175
    10840.108400       0.851908
    10851.871900       0.855591
    10863.661100       0.859225
    10875.475800       0.862809
    10887.316300       0.866343
    10899.182600       0.869828
    10911.074700       0.873263
    10922.992900       0.876647
    10934.937100       0.879982
    10946.907500       0.883267
    10958.904100       0.886503
    10970.927000       0.889688
    10982.976400       0.892824
    10995.052200       0.895911
    11007.154700       0.898948
    11019.283700       0.901935
    11031.439600       0.904873
    11043.622300       0.907762
    11055.832000       0.910602
    11068.068600       0.913392
    11080.332400       0.916134
    11092.623400       0.918827
    11104.941700       0.921471
    11117.287400       0.924067
    11129.660500       0.926614
    11142.061300       0.929114
    11154.489700       0.931565
    11166.945800       0.933968
    11179.429800       0.936323
    11191.941800       0.938632
    11204.481800       0.940893
    11217.049900       0.943106
    11229.646300       0.945273
    11242.270900       0.947393
    11254.924000       0.949467
    11267.605600       0.951494
    11280.315800       0.953476
    11293.054800       0.955411
    11305.822500       0.957301
    11318.619100       0.959146
    11331.444800       0.960946
    11344.299500       0.962701
    11357.183400       0.964411
    11370.096600       0.966077
    11383.039300       0.967699
    11396.011400       0.969278
    11409.013100       0.970813
    11422.044500       0.972304
    11435.105800       0.973753
    11448.196900       0.975159
    11461.318100       0.976523
    11474.469300       0.977844
    11487.650800       0.979124
    11500.862600       0.980362
    11514.104800       0.981560
    11527.377500       0.982716
    11540.680900       0.983832
    11554.015000       0.984907
    11567.380000       0.985943
    11580.775900       0.986938
    11594.202900       0.987895
    11607.661100       0.988812
    11621.150500       0.989691
    11634.671300       0.990531
    11648.223600       0.991333
    11661.807600       0.992097
    11675.423200       0.992824
    11689.070700       0.993514
    11702.750100       0.994167
    11716.461600       0.994783
    11730.205300       0.995363
    11743.981200       0.995908
    11757.789500       0.996417
    11771.630400       0.996890
    11785.503800       0.997329
    11799.410000       0.997733
    11813.349100       0.998103
    11827.321100       0.998438
    11841.326200       0.998741
    11855.364600       0.999009
    11869.436200       0.999245
    11883.541300       0.999449
    11897.680000       0.999620
    11911.852300       0.999758
    11926.058400       0.999866
    11940.298500       0.999941
    11954.572600       0.999986
    11968.880900       1.000000
    11983.223500       0.999983
    11997.600500       0.999937
    12012.012000       0.999860
    12026.458200       0.999754
    12040.939200       0.999619
    12055.455100       0.999455
    12070.006000       0.999262
    12084.592100       0.999041
    12099.213600       0.998792
    12113.870400       0.998515
    12128.562800       0.998211
    12143.290800       0.997879
    12158.054700       0.997521
    12172.854500       0.997136
    12187.690400       0.996725
    12202.562500       0.996288
    12217.471000       0.995826
    12232.415900       0.995338
    12247.397400       0.994824
    12262.415700       0.994286
    12277.470800       0.993724
    12292.563000       0.993137
    12307.692300       0.992526
    12322.858900       0.991891
    12338.062900       0.991233
    12353.304500       0.990551
    12368.583800       0.989847
    12383.900900       0.989119
    12399.256000       0.988370
    12414.649300       0.987597
    12430.080800       0.986804
    12445.550700       0.985988
    12461.059200       0.985151
    12476.606400       0.984292
    12492.192400       0.983413
    12507.817400       0.982512
    12523.481500       0.981591
    12539.185000       0.980650
    12554.927800       0.979689
    12570.710200       0.978708
    12586.532400       0.977707
    12602.394500       0.976686
    12618.296500       0.975647
    12634.238800       0.974588
    12650.221400       0.973511
    12666.244500       0.972414
    12682.308200       0.971300
    12698.412700       0.970167
    12714.558200       0.969016
    12730.744700       0.967848
    12746.972600       0.966661
    12763.241900       0.965457
    12779.552700       0.964236
    12795.905300       0.962998
    12812.299800       0.961743
    12828.736400       0.960471
    12845.215200       0.959182
    12861.736300       0.957877
    12878.300100       0.956556
    12894.906500       0.955219
    12911.555800       0.953866
    12928.248200       0.952497
    12944.983800       0.951112
    12961.762800       0.949712
    12978.585300       0.948297
    12995.451600       0.946866
    13012.361700       0.945420
    13029.316000       0.943960
    13046.314400       0.942485
    13063.357300       0.940995
    13080.444700       0.939490
    13097.576900       0.937971
    13114.754100       0.936438
    13131.976400       0.934891
    13149.243900       0.933330
    13166.556900       0.931755
    13183.915600       0.930166
    13201.320100       0.928564
    13218.770700       0.926948
    13236.267400       0.925319
    13253.810500       0.923676
    13271.400100       0.922021
    13289.036500       0.920352
    13306.719900       0.918670
    13324.450400       0.916975
    13342.228200       0.915268
    13360.053400       0.913548
    13377.926400       0.911815
    13395.847300       0.910069
    13413.816200       0.908312
    13431.833400       0.906542
    13449.899100       0.904759
    13468.013500       0.902965
    13486.176700       0.901158
    13504.388900       0.899340
    13522.650400       0.897509
    13540.961400       0.895667
    13559.322000       0.893813
    13577.732500       0.891948
    13596.193100       0.890070
    13614.703900       0.888182
    13633.265200       0.886281
    13651.877100       0.884370
    13670.540000       0.882447
    13689.253900       0.880512
    13708.019200       0.878567
    13726.836000       0.876611
    13745.704500       0.874643
    13764.624900       0.872664
    13783.597500       0.870675
    13802.622500       0.868675
    13821.700100       0.866664
    13840.830400       0.864642
    13860.013900       0.862609
    13879.250500       0.860566
    13898.540700       0.858512
    13917.884500       0.856448
    13937.282200       0.854373
    13956.734100       0.852288
    13976.240400       0.850193
    13995.801300       0.848087
    14015.417000       0.845971
    14035.087700       0.843845
    14054.813800       0.841709
    14074.595400       0.839563
    14094.432700       0.837407
    14114.326000       0.835241
    14134.275600       0.833064
    14154.281700       0.830879
    14174.344400       0.828683
    14194.464200       0.826478
    14214.641100       0.824262
    14234.875400       0.822038
    14255.167500       0.819804
    14275.517500       0.817560
    14295.925700       0.815307
    14316.392300       0.813044
    14336.917600       0.810772
    14357.501800       0.808491
    14378.145200       0.806201
    14398.848100       0.803901
    14419.610700       0.801593
    14440.433200       0.799275
    14461.316000       0.796948
    14482.259200       0.794613
    14503.263200       0.792268
    14524.328200       0.789915
    14545.454500       0.787553
    14566.642400       0.785182
    14587.892000       0.782803
    14609.203800       0.780415
    14630.577900       0.778019
    14652.014700       0.775615
    14673.514300       0.773202
    14695.077100       0.770780
    14716.703500       0.768351
    14738.393500       0.765913
    14760.147600       0.763468
    14781.966000       0.761014
    14803.849000       0.758552
    14825.796900       0.756083
    14847.809900       0.753606
    14869.888500       0.751121
    14892.032800       0.748629
    14914.243100       0.746129
    14936.519800       0.743621
    14958.863100       0.741107
    14981.273400       0.738585
    15003.750900       0.736055
    15026.296000       0.733519
    15048.909000       0.730976
    15071.590100       0.728426
    15094.339600       0.725869
    15117.158000       0.723305
    15140.045400       0.720734
    15163.002300       0.718157
    15186.028900       0.715574
    15209.125500       0.712984
    15232.292500       0.710388
    15255.530100       0.707786
    15278.838800       0.705177
    15302.218800       0.702563
    15325.670500       0.699943
    15349.194200       0.697317
    15372.790200       0.694686
    15396.458800       0.692049
    15420.200500       0.689406
    15444.015400       0.686758
    15467.904100       0.684105
    15491.866800       0.681447
    15515.903800       0.678784
    15540.015500       0.676116
    15564.202300       0.673444
    15588.464500       0.670767
    15612.802500       0.668085
    15637.216600       0.665399
    15661.707100       0.662708
    15686.274500       0.660014
    15710.919100       0.657315
    15735.641200       0.654613
    15760.441300       0.651907
    15785.319700       0.649197
    15810.276700       0.646484
    15835.312700       0.643767
    15860.428200       0.641047
    15885.623500       0.638324
    15910.899000       0.635598
    15936.255000       0.632870
    15961.691900       0.630138
    15987.210200       0.627404
    16012.810200       0.624668
    16038.492400       0.621929
    16064.257000       0.619188
    16090.104600       0.616446
    16116.035500       0.613701
    16142.050000       0.610955
    16168.148700       0.608207
    16194.332000       0.605457
    16220.600200       0.602707
    16246.953700       0.599955
    16273.393000       0.597202
    16299.918500       0.594449
    16326.530600       0.591695
    16353.229800       0.588940
    16380.016400       0.586184
    16406.890900       0.583429
    16433.853700       0.580673
    16460.905300       0.577918
    16488.046200       0.575163
    16515.276600       0.572407
    16542.597200       0.569653
    16570.008300       0.566899
    16597.510400       0.564146
    16625.103900       0.561394
    16652.789300       0.558643
    16680.567100       0.555893
    16708.437800       0.553144
    16736.401700       0.550397
    16764.459300       0.547652
    16792.611300       0.544908
    16820.857900       0.542167
    16849.199700       0.539427
    16877.637100       0.536690
    16906.170800       0.533955
    16934.801000       0.531223
    16963.528400       0.528493
    16992.353400       0.525767
    17021.276600       0.523043
    17050.298400       0.520322
    17079.419300       0.517604
    17108.639900       0.514890
    17137.960600       0.512180
    17167.382000       0.509473
    17196.904600       0.506769
    17226.528900       0.504070
    17256.255400       0.501375
    17286.084700       0.498684
    17316.017300       0.495997
    17346.053800       0.493314
    17376.194600       0.490636
    17406.440400       0.487963
    17436.791600       0.485295
    17467.248900       0.482631
    17497.812800       0.479973
    17528.483800       0.477319
    17559.262500       0.474671
    17590.149500       0.472028
    17621.145400       0.469391
    17652.250700       0.466759
    17683.466000       0.464133
    17714.791900       0.461512
    17746.228900       0.458898
    17777.777800       0.456289
    17809.439000       0.453687
    17841.213200       0.451091
    17873.101000       0.448500
    17905.103000       0.445916
    17937.219700       0.443339
    17969.451900       0.440768
    18001.800200       0.438203
    18034.265100       0.435645
    18066.847300       0.433094
    18099.547500       0.430549
    18132.366300       0.428012
    18165.304300       0.425481
    18198.362100       0.422957
    18231.540600       0.420440
    18264.840200       0.417930
    18298.261700       0.415427
    18331.805700       0.412930
    18365.472900       0.410442
    18399.264000       0.407960
    18433.179700       0.405485
    18467.220700       0.403018
    18501.387600       0.400558
    18535.681200       0.398105
    18570.102100       0.395659
    18604.651200       0.393221
    18639.329000       0.390789
    18674.136300       0.388365
    18709.073900       0.385949
    18744.142500       0.383539
    18779.342700       0.381137
    18814.675400       0.378741
    18850.141400       0.376353
    18885.741300       0.373973
    18921.475900       0.371599
    18957.346000       0.369232
    18993.352300       0.366872
    19029.495700       0.364519
    19065.776900       0.362174
    19102.196800       0.359835
    19138.756000       0.357502
    19175.455400       0.355177
    19212.295900       0.352858
    19249.278200       0.350546
    19286.403100       0.348240
    19323.671500       0.345941
    19361.084200       0.343648
    19398.642100       0.341361
    19436.346000       0.339080
    19474.196700       0.336805
    19512.195100       0.334537
    19550.342100       0.332274
    19588.638600       0.330016
    19627.085400       0.327765
    19665.683400       0.325518
    19704.433500       0.323277
    19743.336600       0.321041
    19782.393700       0.318811
    19821.605600       0.316584
    19860.973200       0.314363
    19900.497500       0.312146
    19940.179500       0.309934
    19980.020000       0.307726
    20020.020000       0.305521
    20060.180500       0.303321
    20100.502500       0.301124
    20140.986900       0.298931
    20181.634700       0.296741
    20222.446900       0.294555
    20263.424500       0.292371
    20304.568500       0.290190
    20345.880000       0.288011
    20387.359800       0.285835
    20429.009200       0.283661
    20470.829100       0.281488
    20512.820500       0.279318
    20554.984600       0.277148
    20597.322300       0.274980
    20639.834900       0.272813
    20682.523300       0.270647
    20725.388600       0.268481
    20768.432000       0.266315
    20811.654500       0.264149
    20855.057400       0.261983
    20898.641600       0.259817
    20942.408400       0.257649
    20986.358900       0.255481
    21030.494200       0.253312
    21074.815600       0.251140
    21119.324200       0.248968
    21164.021200       0.246793
    21208.907700       0.244616
    21253.985100       0.242436
    21299.254500       0.240253
    21344.717200       0.238067
    21390.374300       0.235878
    21436.227200       0.233685
    21482.277100       0.231488
    21528.525300       0.229288
    21574.973000       0.227082
    21621.621600       0.224872
    21668.472400       0.222657
    21715.526600       0.220436
    21762.785600       0.218210
    21810.250800       0.215978
    21857.923500       0.213740
    21905.805000       0.211496
    21953.896800       0.209245
    22002.200200       0.206988
    22050.716600       0.204723
    22099.447500       0.202451
    22148.394200       0.200171
    22197.558300       0.197883
    22246.941000       0.195587
    22296.544000       0.193283
    22346.368700       0.190970
    22396.416600       0.188649
    22446.689100       0.186318
    22497.187900       0.183978
    22547.914300       0.181629
    22598.870100       0.179270
    22650.056600       0.176901
    22701.475600       0.174522
    22753.128600       0.172132
    22805.017100       0.169733
    22857.142900       0.167322
    22909.507400       0.164901
    22962.112500       0.162469
    23014.959700       0.160026
    23068.050700       0.157572
    23121.387300       0.155106
    23174.971000       0.152629
    23228.803700       0.150141
    23282.887100       0.147641
    23337.222900       0.145129
    23391.812900       0.142605
    23446.658900       0.140070
    23501.762600       0.137523
    23557.126000       0.134964
    23612.750900       0.132393
    23668.639100       0.129810
    23724.792400       0.127215
    23781.212800       0.124609
    23837.902300       0.121990
    23894.862600       0.119361
    23952.095800       0.116719
    24009.603800       0.114066
    24067.388700       0.111402
    24125.452400       0.108727
    24183.796900       0.106041
    24242.424200       0.103344
    24301.336600       0.100636
    24360.535900       0.097918
    24420.024400       0.095190
    24479.804200       0.092453
    24539.877300       0.089705
    24600.246000       0.086949
    24660.912500       0.084184
    24721.878900       0.081411
    24783.147500       0.078629
    24844.720500       0.075840
    24906.600200       0.073044
    24968.789000       0.070242
    25031.289100       0.067434
    25094.102900       0.064620
    25157.232700       0.061802
    25220.681000       0.058979
    25284.450100       0.056153
    25348.542500       0.053324
    25412.960600       0.050493
    25477.707000       0.047662
