 4    ,ATSR-2 Flight Model FPA 1.6um
Number of data points:
227
Wavenumber (cm-1)   Filter response
     5622.409100       0.000740
     5627.329000       0.000130
     5632.260700       0.000730
     5637.197800       0.000730
     5642.143700       0.000720
     5647.101300       0.000330
     5652.064600       0.000930
     5657.036500       0.000720
     5662.020400       0.000910
     5667.009900       0.000910
     5672.008200       0.000910
     5677.018500       0.000900
     5682.034500       0.000910
     5687.059300       0.000970
     5692.096300       0.001030
     5697.139000       0.000970
     5702.190600       0.001010
     5707.254400       0.001030
     5712.323900       0.001160
     5717.402500       0.001160
     5722.493400       0.001160
     5727.590100       0.001220
     5732.695900       0.001150
     5737.814000       0.001280
     5742.938100       0.001349
     5748.071200       0.001409
     5753.216900       0.001389
     5758.368500       0.001379
     5763.529300       0.001499
     5768.702700       0.001859
     5773.882100       0.001979
     5779.070700       0.001849
     5784.268800       0.002199
     5789.479500       0.002389
     5794.696200       0.002549
     5799.922400       0.003069
     5805.161400       0.003069
     5810.406400       0.003249
     5815.661000       0.003509
     5820.928400       0.004108
     5826.202100       0.004458
     5831.485200       0.004498
     5836.781400       0.004658
     5842.083800       0.005508
     5847.395800       0.005878
     5852.721000       0.006028
     5858.052400       0.006797
     5863.393500       0.007297
     5868.747800       0.008147
     5874.108500       0.008687
     5879.478900       0.009466
     5884.862700       0.010146
     5890.252800       0.011386
     5895.652800       0.012535
     5901.066300       0.013795
     5906.486100       0.015264
     5911.916000       0.017024
     5917.359300       0.018993
     5922.809200       0.021032
     5928.269100       0.023171
     5933.742600       0.025960
     5939.222700       0.028859
     5944.713000       0.032438
     5950.216900       0.035866
     5955.727500       0.040365
     5961.248300       0.044953
     5966.779400       0.050871
     5972.324200       0.056499
     5977.875900       0.063566
     5983.437800       0.072053
     5989.013800       0.080779
     5994.596500       0.091375
     6000.189600       0.102221
     6005.796800       0.114037
     6011.410900       0.128791
     6017.035400       0.142626
     6022.674200       0.161639
     6028.319800       0.179622
     6033.976100       0.201623
     6039.646700       0.223955
     6045.324200       0.245647
     6051.012500       0.273126
     6056.715100       0.300566
     6062.424800       0.331194
     6068.145300       0.360983
     6073.880200       0.395790
     6079.622400       0.427618
     6085.375400       0.460615
     6091.143000       0.497351
     6096.917800       0.529669
     6102.703600       0.560317
     6108.504100       0.589896
     6114.312000       0.618185
     6120.130800       0.636308
     6125.964500       0.653372
     6131.805600       0.665837
     6137.657800       0.684370
     6143.525000       0.704402
     6149.399700       0.717767
     6155.285500       0.728993
     6161.182700       0.743717
     6167.095000       0.750965
     6173.014800       0.765069
     6178.946000       0.776525
     6184.892400       0.782583
     6190.846500       0.804144
     6196.812000       0.814001
     6202.792900       0.837952
     6208.781500       0.849407
     6214.781600       0.864072
     6220.797200       0.872838
     6226.820700       0.883204
     6232.855800       0.902197
     6238.906400       0.917421
     6244.965000       0.936954
     6251.035300       0.958116
     6257.121400       0.970081
     6263.215400       0.975859
     6269.321300       0.993782
     6275.443000       0.994512
     6281.572800       1.000000
     6287.714500       0.983796
     6293.872200       0.962414
     6300.038100       0.934535
     6306.216000       0.908885
     6312.410000       0.862292
     6318.612200       0.806863
     6324.826700       0.764569
     6331.057300       0.669306
     6337.296300       0.620364
     6343.547500       0.560307
     6349.815100       0.504348
     6356.091100       0.448200
     6362.379500       0.401198
     6368.680400       0.353846
     6374.997800       0.316950
     6381.323700       0.277575
     6387.662100       0.243937
     6394.017200       0.214978
     6400.381000       0.189488
     6406.757300       0.167136
     6413.150500       0.146035
     6419.552400       0.125732
     6425.967100       0.109518
     6432.398700       0.094474
     6438.839100       0.082898
     6445.292400       0.072033
     6451.762800       0.062716
     6458.242000       0.053340
     6464.734200       0.045693
     6471.243700       0.039165
     6477.762200       0.033437
     6484.293700       0.028769
     6490.842700       0.024441
     6497.400700       0.020942
     6503.972000       0.018223
     6510.560800       0.015784
     6517.158700       0.013935
     6523.770000       0.012055
     6530.399000       0.010616
     6537.037200       0.009416
     6543.688900       0.008267
     6550.358500       0.007327
     6557.037400       0.006697
     6563.729900       0.005918
     6570.440400       0.005198
     6577.160300       0.004598
     6583.894000       0.003879
     6590.641400       0.003869
     6597.407100       0.003719
     6604.182300       0.003299
     6610.971400       0.002989
     6617.778900       0.002579
     6624.596100       0.002649
     6631.427300       0.002519
     6638.277000       0.002049
     6645.136400       0.001939
     6652.010100       0.001839
     6658.902400       0.001719
     6665.804600       0.001509
     6672.721000       0.001200
     6679.656400       0.001140
     6686.601700       0.001140
     6693.561400       0.001160
     6700.540100       0.001130
     6707.528900       0.000940
     6714.532300       0.000950
     6721.554900       0.000870
     6728.587600       0.000730
     6735.635100       0.000750
     6742.701900       0.000800
     6749.778900       0.000760
     6756.870900       0.000780
     6763.982300       0.000760
     6771.104200       0.000600
     6778.241000       0.000620
     6785.397600       0.000590
     6792.564600       0.000470
     6799.746800       0.000790
     6806.948800       0.000590
     6814.161500       0.000410
     6821.389400       0.000120
     6828.632700       0.000460
     6835.896100       0.000280
     6843.170300       0.000460
     6850.459900       0.000280
     6857.769900       0.000290
     6865.090700       0.000270
     6872.427100       0.000120
     6879.784000       0.000310
     6887.151900       0.000280
     6894.535700       0.000120
     6901.940000       0.000300
     6909.355500       0.000290
     6916.786900       0.000050
     6924.239100       0.000120
     6931.702600       0.000120
     6939.182200       0.000120
     6946.682800       0.000130
     6954.194800       0.000320
     6961.723100       0.000120
     6969.272500       0.000060
     6976.833400       0.000130
     6984.410800       0.000130
     6992.009500       0.000070
     6999.619900       0.000070
     7014.895400       0.000000
