147,   147, MVIRI VIS channel from srf_MET7_2015348_2015349_1801-Release_S10EE_10.dat
Number of data points:
793
Wavenumber (cm-1)   Filter response
     8442.380800       0.000000
     8449.514200       0.000000
     8456.659600       0.000004
     8463.817200       0.000057
     8470.986900       0.000169
     8478.168700       0.000338
     8485.362700       0.000562
     8492.569000       0.000840
     8499.787500       0.001171
     8507.018300       0.001552
     8514.261400       0.001982
     8521.516800       0.002461
     8528.784600       0.002985
     8536.064900       0.003556
     8543.357500       0.004169
     8550.662700       0.004826
     8557.980300       0.005524
     8565.310500       0.006263
     8572.653200       0.007041
     8580.008600       0.007857
     8587.376600       0.008710
     8594.757200       0.009600
     8602.150500       0.010525
     8609.556600       0.011484
     8616.975400       0.012478
     8624.407100       0.013503
     8631.851500       0.014562
     8639.308900       0.015651
     8646.779100       0.016771
     8654.262200       0.017921
     8661.758300       0.019100
     8669.267400       0.020308
     8676.789600       0.021544
     8684.324800       0.022807
     8691.873100       0.024098
     8699.434500       0.025415
     8707.009100       0.026758
     8714.596900       0.028126
     8722.198000       0.029520
     8729.812300       0.030939
     8737.439900       0.032382
     8745.080900       0.033849
     8752.735200       0.035340
     8760.403000       0.036854
     8768.084200       0.038392
     8775.778900       0.039952
     8783.487000       0.041535
     8791.208800       0.043140
     8798.944100       0.044768
     8806.693100       0.046418
     8814.455700       0.048090
     8822.232000       0.049783
     8830.022100       0.051498
     8837.825900       0.053234
     8845.643500       0.054991
     8853.475000       0.056770
     8861.320300       0.058570
     8869.179600       0.060391
     8877.052800       0.062233
     8884.940000       0.064096
     8892.841300       0.065979
     8900.756600       0.067884
     8908.686000       0.069810
     8916.629500       0.071756
     8924.587200       0.073723
     8932.559200       0.075711
     8940.545400       0.077720
     8948.545900       0.079750
     8956.560700       0.081801
     8964.589900       0.083872
     8972.633500       0.085965
     8980.691500       0.088079
     8988.764000       0.090213
     8996.851100       0.092369
     9004.952700       0.094546
     9013.068900       0.096744
     9021.199800       0.098964
     9029.345400       0.101206
     9037.505600       0.103468
     9045.680700       0.105752
     9053.870500       0.108058
     9062.075200       0.110386
     9070.294800       0.112735
     9078.529300       0.115106
     9086.778700       0.117500
     9095.043200       0.119915
     9103.322700       0.122353
     9111.617300       0.124813
     9119.927000       0.127295
     9128.251900       0.129799
     9136.592100       0.132327
     9144.947400       0.134876
     9153.318100       0.137449
     9161.704100       0.140044
     9170.105500       0.142662
     9178.522300       0.145303
     9186.954500       0.147967
     9195.402300       0.150654
     9203.865600       0.153364
     9212.344500       0.156097
     9220.839100       0.158854
     9229.349300       0.161634
     9237.875300       0.164437
     9246.417000       0.167264
     9254.974500       0.170115
     9263.547900       0.172989
     9272.137200       0.175886
     9280.742500       0.178807
     9289.363700       0.181752
     9298.000900       0.184721
     9306.654300       0.187713
     9315.323700       0.190729
     9324.009300       0.193769
     9332.711200       0.196833
     9341.429200       0.199920
     9350.163600       0.203031
     9358.914400       0.206166
     9367.681500       0.209325
     9376.465100       0.212508
     9385.265100       0.215714
     9394.081700       0.218944
     9402.914900       0.222197
     9411.764700       0.225475
     9420.631200       0.228776
     9429.514400       0.232100
     9438.414300       0.235448
     9447.331100       0.238819
     9456.264800       0.242214
     9465.215300       0.245632
     9474.182900       0.249072
     9483.167400       0.252537
     9492.169000       0.256024
     9501.187600       0.259534
     9510.223500       0.263067
     9519.276500       0.266622
     9528.346800       0.270201
     9537.434400       0.273801
     9546.539400       0.277424
     9555.661700       0.281069
     9564.801500       0.284736
     9573.958800       0.288425
     9583.133700       0.292135
     9592.326100       0.295867
     9601.536200       0.299621
     9610.764100       0.303395
     9620.009600       0.307191
     9629.273000       0.311007
     9638.554200       0.314844
     9647.853400       0.318702
     9657.170400       0.322579
     9666.505600       0.326476
     9675.858700       0.330394
     9685.230000       0.334330
     9694.619500       0.338286
     9704.027200       0.342261
     9713.453100       0.346255
     9722.897400       0.350267
     9732.360100       0.354297
     9741.841200       0.358346
     9751.340800       0.362412
     9760.859000       0.366496
     9770.395700       0.370596
     9779.951100       0.374714
     9789.525200       0.378848
     9799.118100       0.382998
     9808.729800       0.387164
     9818.360300       0.391346
     9828.009800       0.395543
     9837.678300       0.399756
     9847.365800       0.403983
     9857.072400       0.408223
     9866.798200       0.412479
     9876.543200       0.416747
     9886.307500       0.421029
     9896.091000       0.425324
     9905.894000       0.429631
     9915.716400       0.433951
     9925.558300       0.438281
     9935.419800       0.442624
     9945.300800       0.446978
     9955.201600       0.451342
     9965.122100       0.455717
     9975.062300       0.460101
     9985.022500       0.464496
     9995.002500       0.468899
    10005.002500       0.473311
    10015.022500       0.477731
    10025.062700       0.482158
    10035.122900       0.486594
    10045.203400       0.491036
    10055.304200       0.495485
    10065.425300       0.499940
    10075.566800       0.504400
    10085.728700       0.508866
    10095.911200       0.513337
    10106.114200       0.517813
    10116.337900       0.522292
    10126.582300       0.526774
    10136.847400       0.531260
    10147.133400       0.535749
    10157.440300       0.540239
    10167.768200       0.544732
    10178.117000       0.549225
    10188.487000       0.553719
    10198.878100       0.558214
    10209.290500       0.562709
    10219.724100       0.567203
    10230.179000       0.571695
    10240.655400       0.576187
    10251.153300       0.580676
    10261.672700       0.585163
    10272.213700       0.589647
    10282.776300       0.594127
    10293.360800       0.598604
    10303.967000       0.603076
    10314.595200       0.607543
    10325.245200       0.612005
    10335.917300       0.616462
    10346.611500       0.620912
    10357.327800       0.625355
    10368.066400       0.629790
    10378.827200       0.634219
    10389.610400       0.638639
    10400.416000       0.643050
    10411.244100       0.647452
    10422.094800       0.651845
    10432.968200       0.656227
    10443.864200       0.660599
    10454.783100       0.664960
    10465.724800       0.669309
    10476.689400       0.673646
    10487.677000       0.677971
    10498.687700       0.682283
    10509.721500       0.686581
    10520.778500       0.690866
    10531.858900       0.695136
    10542.962600       0.699391
    10554.089700       0.703631
    10565.240400       0.707855
    10576.414600       0.712063
    10587.612500       0.716254
    10598.834100       0.720429
    10610.079600       0.724585
    10621.348900       0.728724
    10632.642200       0.732844
    10643.959600       0.736945
    10655.301000       0.741027
    10666.666700       0.745089
    10678.056600       0.749130
    10689.470900       0.753151
    10700.909600       0.757151
    10712.372800       0.761129
    10723.860600       0.765086
    10735.373100       0.769019
    10746.910300       0.772931
    10758.472300       0.776818
    10770.059200       0.780682
    10781.671200       0.784522
    10793.308100       0.788338
    10804.970300       0.792129
    10816.657700       0.795894
    10828.370300       0.799634
    10840.108400       0.803347
    10851.871900       0.807034
    10863.661100       0.810695
    10875.475800       0.814328
    10887.316300       0.817934
    10899.182600       0.821511
    10911.074700       0.825060
    10922.992900       0.828581
    10934.937100       0.832073
    10946.907500       0.835535
    10958.904100       0.838967
    10970.927000       0.842370
    10982.976400       0.845742
    10995.052200       0.849083
    11007.154700       0.852393
    11019.283700       0.855672
    11031.439600       0.858919
    11043.622300       0.862134
    11055.832000       0.865317
    11068.068600       0.868467
    11080.332400       0.871584
    11092.623400       0.874668
    11104.941700       0.877719
    11117.287400       0.880736
    11129.660500       0.883719
    11142.061300       0.886668
    11154.489700       0.889582
    11166.945800       0.892461
    11179.429800       0.895305
    11191.941800       0.898114
    11204.481800       0.900888
    11217.049900       0.903625
    11229.646300       0.906327
    11242.270900       0.908993
    11254.924000       0.911622
    11267.605600       0.914215
    11280.315800       0.916771
    11293.054800       0.919289
    11305.822500       0.921771
    11318.619100       0.924216
    11331.444800       0.926623
    11344.299500       0.928992
    11357.183400       0.931323
    11370.096600       0.933617
    11383.039300       0.935872
    11396.011400       0.938089
    11409.013100       0.940267
    11422.044500       0.942408
    11435.105800       0.944509
    11448.196900       0.946572
    11461.318100       0.948596
    11474.469300       0.950580
    11487.650800       0.952526
    11500.862600       0.954433
    11514.104800       0.956301
    11527.377500       0.958129
    11540.680900       0.959918
    11554.015000       0.961667
    11567.380000       0.963377
    11580.775900       0.965048
    11594.202900       0.966679
    11607.661100       0.968270
    11621.150500       0.969822
    11634.671300       0.971334
    11648.223600       0.972807
    11661.807600       0.974240
    11675.423200       0.975633
    11689.070700       0.976987
    11702.750100       0.978301
    11716.461600       0.979576
    11730.205300       0.980811
    11743.981200       0.982006
    11757.789500       0.983162
    11771.630400       0.984279
    11785.503800       0.985357
    11799.410000       0.986395
    11813.349100       0.987394
    11827.321100       0.988354
    11841.326200       0.989274
    11855.364600       0.990156
    11869.436200       0.990999
    11883.541300       0.991803
    11897.680000       0.992569
    11911.852300       0.993296
    11926.058400       0.993985
    11940.298500       0.994636
    11954.572600       0.995248
    11968.880900       0.995822
    11983.223500       0.996359
    11997.600500       0.996858
    12012.012000       0.997319
    12026.458200       0.997743
    12040.939200       0.998130
    12055.455100       0.998480
    12070.006000       0.998794
    12084.592100       0.999070
    12099.213600       0.999311
    12113.870400       0.999515
    12128.562800       0.999683
    12143.290800       0.999815
    12158.054700       0.999912
    12172.854500       0.999973
    12187.690400       1.000000
    12202.562500       0.999992
    12217.471000       0.999949
    12232.415900       0.999872
    12247.397400       0.999760
    12262.415700       0.999615
    12277.470800       0.999437
    12292.563000       0.999225
    12307.692300       0.998980
    12322.858900       0.998703
    12338.062900       0.998393
    12353.304500       0.998051
    12368.583800       0.997678
    12383.900900       0.997272
    12399.256000       0.996836
    12414.649300       0.996369
    12430.080800       0.995871
    12445.550700       0.995343
    12461.059200       0.994785
    12476.606400       0.994198
    12492.192400       0.993582
    12507.817400       0.992936
    12523.481500       0.992262
    12539.185000       0.991560
    12554.927800       0.990831
    12570.710200       0.990073
    12586.532400       0.989289
    12602.394500       0.988478
    12618.296500       0.987640
    12634.238800       0.986777
    12650.221400       0.985888
    12666.244500       0.984974
    12682.308200       0.984035
    12698.412700       0.983072
    12714.558200       0.982085
    12730.744700       0.981074
    12746.972600       0.980040
    12763.241900       0.978983
    12779.552700       0.977903
    12795.905300       0.976802
    12812.299800       0.975679
    12828.736400       0.974535
    12845.215200       0.973370
    12861.736300       0.972185
    12878.300100       0.970980
    12894.906500       0.969755
    12911.555800       0.968512
    12928.248200       0.967250
    12944.983800       0.965969
    12961.762800       0.964671
    12978.585300       0.963356
    12995.451600       0.962023
    13012.361700       0.960674
    13029.316000       0.959310
    13046.314400       0.957929
    13063.357300       0.956534
    13080.444700       0.955124
    13097.576900       0.953699
    13114.754100       0.952261
    13131.976400       0.950810
    13149.243900       0.949346
    13166.556900       0.947869
    13183.915600       0.946380
    13201.320100       0.944880
    13218.770700       0.943369
    13236.267400       0.941847
    13253.810500       0.940315
    13271.400100       0.938773
    13289.036500       0.937222
    13306.719900       0.935662
    13324.450400       0.934094
    13342.228200       0.932518
    13360.053400       0.930935
    13377.926400       0.929344
    13395.847300       0.927747
    13413.816200       0.926144
    13431.833400       0.924535
    13449.899100       0.922921
    13468.013500       0.921302
    13486.176700       0.919679
    13504.388900       0.918052
    13522.650400       0.916422
    13540.961400       0.914789
    13559.322000       0.913153
    13577.732500       0.911515
    13596.193100       0.909876
    13614.703900       0.908235
    13633.265200       0.906593
    13651.877100       0.904951
    13670.540000       0.903309
    13689.253900       0.901668
    13708.019200       0.900028
    13726.836000       0.898389
    13745.704500       0.896751
    13764.624900       0.895116
    13783.597500       0.893483
    13802.622500       0.891854
    13821.700100       0.890228
    13840.830400       0.888606
    13860.013900       0.886987
    13879.250500       0.885374
    13898.540700       0.883765
    13917.884500       0.882162
    13937.282200       0.880565
    13956.734100       0.878974
    13976.240400       0.877389
    13995.801300       0.875812
    14015.417000       0.874241
    14035.087700       0.872679
    14054.813800       0.871124
    14074.595400       0.869578
    14094.432700       0.868040
    14114.326000       0.866512
    14134.275600       0.864993
    14154.281700       0.863483
    14174.344400       0.861984
    14194.464200       0.860495
    14214.641100       0.859017
    14234.875400       0.857550
    14255.167500       0.856095
    14275.517500       0.854651
    14295.925700       0.853219
    14316.392300       0.851800
    14336.917600       0.850393
    14357.501800       0.848999
    14378.145200       0.847618
    14398.848100       0.846250
    14419.610700       0.844897
    14440.433200       0.843557
    14461.316000       0.842231
    14482.259200       0.840920
    14503.263200       0.839624
    14524.328200       0.838342
    14545.454500       0.837076
    14566.642400       0.835825
    14587.892000       0.834590
    14609.203800       0.833371
    14630.577900       0.832167
    14652.014700       0.830980
    14673.514300       0.829809
    14695.077100       0.828655
    14716.703500       0.827518
    14738.393500       0.826398
    14760.147600       0.825294
    14781.966000       0.824208
    14803.849000       0.823140
    14825.796900       0.822089
    14847.809900       0.821055
    14869.888500       0.820040
    14892.032800       0.819042
    14914.243100       0.818062
    14936.519800       0.817101
    14958.863100       0.816157
    14981.273400       0.815232
    15003.750900       0.814326
    15026.296000       0.813438
    15048.909000       0.812568
    15071.590100       0.811717
    15094.339600       0.810884
    15117.158000       0.810070
    15140.045400       0.809275
    15163.002300       0.808499
    15186.028900       0.807741
    15209.125500       0.807002
    15232.292500       0.806281
    15255.530100       0.805579
    15278.838800       0.804896
    15302.218800       0.804232
    15325.670500       0.803586
    15349.194200       0.802958
    15372.790200       0.802349
    15396.458800       0.801759
    15420.200500       0.801186
    15444.015400       0.800632
    15467.904100       0.800097
    15491.866800       0.799579
    15515.903800       0.799079
    15540.015500       0.798597
    15564.202300       0.798132
    15588.464500       0.797685
    15612.802500       0.797256
    15637.216600       0.796844
    15661.707100       0.796448
    15686.274500       0.796070
    15710.919100       0.795708
    15735.641200       0.795363
    15760.441300       0.795035
    15785.319700       0.794722
    15810.276700       0.794425
    15835.312700       0.794144
    15860.428200       0.793878
    15885.623500       0.793628
    15910.899000       0.793392
    15936.255000       0.793171
    15961.691900       0.792965
    15987.210200       0.792772
    16012.810200       0.792594
    16038.492400       0.792428
    16064.257000       0.792276
    16090.104600       0.792137
    16116.035500       0.792011
    16142.050000       0.791897
    16168.148700       0.791794
    16194.332000       0.791703
    16220.600200       0.791623
    16246.953700       0.791555
    16273.393000       0.791496
    16299.918500       0.791447
    16326.530600       0.791409
    16353.229800       0.791379
    16380.016400       0.791358
    16406.890900       0.791346
    16433.853700       0.791341
    16460.905300       0.791344
    16488.046200       0.791354
    16515.276600       0.791371
    16542.597200       0.791394
    16570.008300       0.791422
    16597.510400       0.791456
    16625.103900       0.791494
    16652.789300       0.791537
    16680.567100       0.791583
    16708.437800       0.791633
    16736.401700       0.791685
    16764.459300       0.791740
    16792.611300       0.791796
    16820.857900       0.791853
    16849.199700       0.791911
    16877.637100       0.791969
    16906.170800       0.792026
    16934.801000       0.792082
    16963.528400       0.792136
    16992.353400       0.792188
    17021.276600       0.792238
    17050.298400       0.792283
    17079.419300       0.792325
    17108.639900       0.792362
    17137.960600       0.792394
    17167.382000       0.792420
    17196.904600       0.792439
    17226.528900       0.792451
    17256.255400       0.792455
    17286.084700       0.792451
    17316.017300       0.792438
    17346.053800       0.792415
    17376.194600       0.792382
    17406.440400       0.792337
    17436.791600       0.792281
    17467.248900       0.792212
    17497.812800       0.792131
    17528.483800       0.792035
    17559.262500       0.791925
    17590.149500       0.791801
    17621.145400       0.791660
    17652.250700       0.791502
    17683.466000       0.791328
    17714.791900       0.791135
    17746.228900       0.790924
    17777.777800       0.790694
    17809.439000       0.790443
    17841.213200       0.790172
    17873.101000       0.789879
    17905.103000       0.789564
    17937.219700       0.789226
    17969.451900       0.788865
    18001.800200       0.788479
    18034.265100       0.788068
    18066.847300       0.787631
    18099.547500       0.787167
    18132.366300       0.786677
    18165.304300       0.786158
    18198.362100       0.785610
    18231.540600       0.785033
    18264.840200       0.784426
    18298.261700       0.783788
    18331.805700       0.783118
    18365.472900       0.782416
    18399.264000       0.781680
    18433.179700       0.780911
    18467.220700       0.780107
    18501.387600       0.779268
    18535.681200       0.778393
    18570.102100       0.777481
    18604.651200       0.776531
    18639.329000       0.775543
    18674.136300       0.774517
    18709.073900       0.773451
    18744.142500       0.772344
    18779.342700       0.771197
    18814.675400       0.770007
    18850.141400       0.768776
    18885.741300       0.767501
    18921.475900       0.766182
    18957.346000       0.764819
    18993.352300       0.763411
    19029.495700       0.761957
    19065.776900       0.760457
    19102.196800       0.758909
    19138.756000       0.757314
    19175.455400       0.755670
    19212.295900       0.753978
    19249.278200       0.752235
    19286.403100       0.750442
    19323.671500       0.748599
    19361.084200       0.746704
    19398.642100       0.744757
    19436.346000       0.742757
    19474.196700       0.740703
    19512.195100       0.738596
    19550.342100       0.736435
    19588.638600       0.734219
    19627.085400       0.731947
    19665.683400       0.729619
    19704.433500       0.727235
    19743.336600       0.724794
    19782.393700       0.722295
    19821.605600       0.719738
    19860.973200       0.717123
    19900.497500       0.714449
    19940.179500       0.711716
    19980.020000       0.708923
    20020.020000       0.706070
    20060.180500       0.703156
    20100.502500       0.700182
    20140.986900       0.697146
    20181.634700       0.694048
    20222.446900       0.690889
    20263.424500       0.687667
    20304.568500       0.684383
    20345.880000       0.681036
    20387.359800       0.677626
    20429.009200       0.674152
    20470.829100       0.670615
    20512.820500       0.667015
    20554.984600       0.663350
    20597.322300       0.659621
    20639.834900       0.655827
    20682.523300       0.651970
    20725.388600       0.648048
    20768.432000       0.644061
    20811.654500       0.640010
    20855.057400       0.635893
    20898.641600       0.631713
    20942.408400       0.627467
    20986.358900       0.623157
    21030.494200       0.618782
    21074.815600       0.614342
    21119.324200       0.609839
    21164.021200       0.605270
    21208.907700       0.600638
    21253.985100       0.595941
    21299.254500       0.591181
    21344.717200       0.586357
    21390.374300       0.581470
    21436.227200       0.576520
    21482.277100       0.571507
    21528.525300       0.566432
    21574.973000       0.561295
    21621.621600       0.556096
    21668.472400       0.550836
    21715.526600       0.545515
    21762.785600       0.540135
    21810.250800       0.534694
    21857.923500       0.529194
    21905.805000       0.523636
    21953.896800       0.518020
    22002.200200       0.512347
    22050.716600       0.506617
    22099.447500       0.500831
    22148.394200       0.494990
    22197.558300       0.489095
    22246.941000       0.483147
    22296.544000       0.477146
    22346.368700       0.471093
    22396.416600       0.464989
    22446.689100       0.458836
    22497.187900       0.452634
    22547.914300       0.446384
    22598.870100       0.440088
    22650.056600       0.433746
    22701.475600       0.427360
    22753.128600       0.420931
    22805.017100       0.414460
    22857.142900       0.407949
    22909.507400       0.401398
    22962.112500       0.394810
    23014.959700       0.388185
    23068.050700       0.381526
    23121.387300       0.374833
    23174.971000       0.368108
    23228.803700       0.361353
    23282.887100       0.354570
    23337.222900       0.347760
    23391.812900       0.340925
    23446.658900       0.334066
    23501.762600       0.327186
    23557.126000       0.320286
    23612.750900       0.313369
    23668.639100       0.306436
    23724.792400       0.299489
    23781.212800       0.292531
    23837.902300       0.285564
    23894.862600       0.278590
    23952.095800       0.271610
    24009.603800       0.264628
    24067.388700       0.257645
    24125.452400       0.250665
    24183.796900       0.243690
    24242.424200       0.236721
    24301.336600       0.229762
    24360.535900       0.222815
    24420.024400       0.215884
    24479.804200       0.208970
    24539.877300       0.202076
    24600.246000       0.195206
    24660.912500       0.188362
    24721.878900       0.181548
    24783.147500       0.174765
    24844.720500       0.168018
    24906.600200       0.161310
    24968.789000       0.154643
    25031.289100       0.148022
    25094.102900       0.141448
    25157.232700       0.134927
    25220.681000       0.128460
    25284.450100       0.122053
    25348.542500       0.115707
    25412.960600       0.109428
    25477.707000       0.103219
