 5    ,Original SRF for METOP-B AVHRR A307 channel 5 file METOPB_A307C005.txt
Number of data points:
83
Wavenumber (cm-1)   Filter response
      788.643500       0.000256
      789.889400       0.001740
      791.139200       0.002873
      792.393000       0.005302
      793.650800       0.008907
      794.912600       0.014847
      796.178300       0.029610
      797.448200       0.053708
      798.722000       0.081039
      800.000000       0.118320
      801.282100       0.178100
      802.568200       0.271940
      803.858500       0.399310
      805.153000       0.525510
      806.451600       0.668430
      807.754400       0.769890
      809.061500       0.809950
      810.372800       0.855280
      811.688300       0.871980
      813.008100       0.874230
      814.332200       0.887540
      815.660700       0.899250
      816.993500       0.874900
      818.330600       0.909530
      819.672100       0.896870
      821.018100       0.920770
      822.368400       0.914250
      823.723200       0.933530
      825.082500       0.929450
      826.446300       0.949650
      827.814600       0.943360
      829.187400       0.965060
      830.564800       0.940030
      831.946800       0.983980
      833.333300       0.998700
      834.724500       1.000000
      836.120400       0.992540
      837.520900       0.968660
      838.926200       0.998550
      840.336100       0.950970
      841.750800       0.970670
      843.170300       0.948550
      844.594600       0.939950
      846.023700       0.919090
      847.457600       0.909590
      848.896400       0.905690
      850.340100       0.903450
      851.788800       0.871380
      853.242300       0.894250
      854.700900       0.875660
      856.164400       0.865890
      857.632900       0.817870
      859.106500       0.828300
      860.585200       0.796040
      862.069000       0.802050
      863.557900       0.783780
      865.051900       0.774080
      866.551100       0.760080
      868.055600       0.757370
      869.565200       0.749710
      871.080100       0.715380
      872.600300       0.672400
      874.125900       0.486050
      875.656700       0.337330
      877.193000       0.203870
      878.734600       0.129170
      880.281700       0.075103
      881.834200       0.047614
      883.392200       0.031244
      884.955800       0.019300
      886.524800       0.010231
      888.099500       0.007854
      889.679700       0.005445
      891.265600       0.004571
      892.857100       0.003542
      894.454400       0.002893
      896.057300       0.002574
      897.666100       0.002224
      899.280600       0.002111
      900.900900       0.001828
      902.527100       0.001018
      904.159100       0.000568
      905.797100       0.000101
