3,   3, MVIRI VIS channel from srf_MET7_1997348_1997349_1801-Release_S10EE_10.dat
Number of data points:
793
Wavenumber (cm-1)   Filter response
     8442.380800       0.000000
     8449.514200       0.000000
     8456.659600       0.000004
     8463.817200       0.000051
     8470.986900       0.000152
     8478.168700       0.000303
     8485.362700       0.000505
     8492.569000       0.000755
     8499.787500       0.001053
     8507.018300       0.001396
     8514.261400       0.001783
     8521.516800       0.002214
     8528.784600       0.002686
     8536.064900       0.003200
     8543.357500       0.003753
     8550.662700       0.004345
     8557.980300       0.004974
     8565.310500       0.005641
     8572.653200       0.006342
     8580.008600       0.007079
     8587.376600       0.007849
     8594.757200       0.008653
     8602.150500       0.009488
     8609.556600       0.010355
     8616.975400       0.011253
     8624.407100       0.012181
     8631.851500       0.013137
     8639.308900       0.014123
     8646.779100       0.015137
     8654.262200       0.016177
     8661.758300       0.017245
     8669.267400       0.018340
     8676.789600       0.019459
     8684.324800       0.020605
     8691.873100       0.021775
     8699.434500       0.022970
     8707.009100       0.024188
     8714.596900       0.025430
     8722.198000       0.026696
     8729.812300       0.027984
     8737.439900       0.029296
     8745.080900       0.030629
     8752.735200       0.031984
     8760.403000       0.033362
     8768.084200       0.034761
     8775.778900       0.036181
     8783.487000       0.037622
     8791.208800       0.039084
     8798.944100       0.040567
     8806.693100       0.042071
     8814.455700       0.043594
     8822.232000       0.045139
     8830.022100       0.046703
     8837.825900       0.048288
     8845.643500       0.049892
     8853.475000       0.051517
     8861.320300       0.053161
     8869.179600       0.054825
     8877.052800       0.056509
     8884.940000       0.058213
     8892.841300       0.059936
     8900.756600       0.061680
     8908.686000       0.063443
     8916.629500       0.065225
     8924.587200       0.067027
     8932.559200       0.068849
     8940.545400       0.070691
     8948.545900       0.072553
     8956.560700       0.074434
     8964.589900       0.076336
     8972.633500       0.078257
     8980.691500       0.080199
     8988.764000       0.082160
     8996.851100       0.084142
     9004.952700       0.086144
     9013.068900       0.088166
     9021.199800       0.090208
     9029.345400       0.092271
     9037.505600       0.094355
     9045.680700       0.096459
     9053.870500       0.098584
     9062.075200       0.100729
     9070.294800       0.102896
     9078.529300       0.105084
     9086.778700       0.107292
     9095.043200       0.109522
     9103.322700       0.111774
     9111.617300       0.114046
     9119.927000       0.116340
     9128.251900       0.118656
     9136.592100       0.120993
     9144.947400       0.123352
     9153.318100       0.125734
     9161.704100       0.128136
     9170.105500       0.130562
     9178.522300       0.133009
     9186.954500       0.135478
     9195.402300       0.137970
     9203.865600       0.140484
     9212.344500       0.143021
     9220.839100       0.145580
     9229.349300       0.148162
     9237.875300       0.150767
     9246.417000       0.153394
     9254.974500       0.156044
     9263.547900       0.158718
     9272.137200       0.161414
     9280.742500       0.164133
     9289.363700       0.166875
     9298.000900       0.169641
     9306.654300       0.172430
     9315.323700       0.175242
     9324.009300       0.178077
     9332.711200       0.180935
     9341.429200       0.183817
     9350.163600       0.186722
     9358.914400       0.189651
     9367.681500       0.192603
     9376.465100       0.195578
     9385.265100       0.198576
     9394.081700       0.201599
     9402.914900       0.204644
     9411.764700       0.207713
     9420.631200       0.210805
     9429.514400       0.213920
     9438.414300       0.217059
     9447.331100       0.220220
     9456.264800       0.223406
     9465.215300       0.226614
     9474.182900       0.229845
     9483.167400       0.233099
     9492.169000       0.236377
     9501.187600       0.239677
     9510.223500       0.243000
     9519.276500       0.246346
     9528.346800       0.249714
     9537.434400       0.253105
     9546.539400       0.256519
     9555.661700       0.259954
     9564.801500       0.263412
     9573.958800       0.266892
     9583.133700       0.270395
     9592.326100       0.273918
     9601.536200       0.277464
     9610.764100       0.281031
     9620.009600       0.284620
     9629.273000       0.288230
     9638.554200       0.291861
     9647.853400       0.295513
     9657.170400       0.299185
     9666.505600       0.302879
     9675.858700       0.306592
     9685.230000       0.310326
     9694.619500       0.314080
     9704.027200       0.317853
     9713.453100       0.321647
     9722.897400       0.325459
     9732.360100       0.329291
     9741.841200       0.333141
     9751.340800       0.337010
     9760.859000       0.340898
     9770.395700       0.344804
     9779.951100       0.348728
     9789.525200       0.352670
     9799.118100       0.356629
     9808.729800       0.360605
     9818.360300       0.364598
     9828.009800       0.368607
     9837.678300       0.372633
     9847.365800       0.376675
     9857.072400       0.380733
     9866.798200       0.384806
     9876.543200       0.388894
     9886.307500       0.392998
     9896.091000       0.397115
     9905.894000       0.401247
     9915.716400       0.405393
     9925.558300       0.409552
     9935.419800       0.413724
     9945.300800       0.417910
     9955.201600       0.422107
     9965.122100       0.426318
     9975.062300       0.430539
     9985.022500       0.434773
     9995.002500       0.439017
    10005.002500       0.443272
    10015.022500       0.447538
    10025.062700       0.451814
    10035.122900       0.456099
    10045.203400       0.460393
    10055.304200       0.464697
    10065.425300       0.469009
    10075.566800       0.473329
    10085.728700       0.477656
    10095.911200       0.481992
    10106.114200       0.486333
    10116.337900       0.490682
    10126.582300       0.495036
    10136.847400       0.499397
    10147.133400       0.503762
    10157.440300       0.508133
    10167.768200       0.512508
    10178.117000       0.516887
    10188.487000       0.521269
    10198.878100       0.525655
    10209.290500       0.530044
    10219.724100       0.534434
    10230.179000       0.538827
    10240.655400       0.543222
    10251.153300       0.547617
    10261.672700       0.552013
    10272.213700       0.556409
    10282.776300       0.560805
    10293.360800       0.565200
    10303.967000       0.569594
    10314.595200       0.573987
    10325.245200       0.578377
    10335.917300       0.582765
    10346.611500       0.587150
    10357.327800       0.591532
    10368.066400       0.595910
    10378.827200       0.600283
    10389.610400       0.604652
    10400.416000       0.609016
    10411.244100       0.613374
    10422.094800       0.617726
    10432.968200       0.622072
    10443.864200       0.626411
    10454.783100       0.630742
    10465.724800       0.635065
    10476.689400       0.639380
    10487.677000       0.643687
    10498.687700       0.647984
    10509.721500       0.652271
    10520.778500       0.656549
    10531.858900       0.660816
    10542.962600       0.665072
    10554.089700       0.669316
    10565.240400       0.673549
    10576.414600       0.677769
    10587.612500       0.681977
    10598.834100       0.686171
    10610.079600       0.690352
    10621.348900       0.694519
    10632.642200       0.698671
    10643.959600       0.702809
    10655.301000       0.706931
    10666.666700       0.711037
    10678.056600       0.715127
    10689.470900       0.719200
    10700.909600       0.723257
    10712.372800       0.727296
    10723.860600       0.731317
    10735.373100       0.735319
    10746.910300       0.739304
    10758.472300       0.743268
    10770.059200       0.747214
    10781.671200       0.751139
    10793.308100       0.755044
    10804.970300       0.758929
    10816.657700       0.762792
    10828.370300       0.766634
    10840.108400       0.770454
    10851.871900       0.774251
    10863.661100       0.778026
    10875.475800       0.781778
    10887.316300       0.785507
    10899.182600       0.789212
    10911.074700       0.792892
    10922.992900       0.796548
    10934.937100       0.800180
    10946.907500       0.803785
    10958.904100       0.807366
    10970.927000       0.810921
    10982.976400       0.814449
    10995.052200       0.817950
    11007.154700       0.821425
    11019.283700       0.824873
    11031.439600       0.828293
    11043.622300       0.831685
    11055.832000       0.835048
    11068.068600       0.838384
    11080.332400       0.841690
    11092.623400       0.844968
    11104.941700       0.848216
    11117.287400       0.851434
    11129.660500       0.854622
    11142.061300       0.857780
    11154.489700       0.860907
    11166.945800       0.864004
    11179.429800       0.867069
    11191.941800       0.870104
    11204.481800       0.873106
    11217.049900       0.876077
    11229.646300       0.879016
    11242.270900       0.881922
    11254.924000       0.884796
    11267.605600       0.887637
    11280.315800       0.890445
    11293.054800       0.893219
    11305.822500       0.895961
    11318.619100       0.898669
    11331.444800       0.901342
    11344.299500       0.903982
    11357.183400       0.906588
    11370.096600       0.909159
    11383.039300       0.911696
    11396.011400       0.914198
    11409.013100       0.916665
    11422.044500       0.919097
    11435.105800       0.921494
    11448.196900       0.923856
    11461.318100       0.926182
    11474.469300       0.928472
    11487.650800       0.930727
    11500.862600       0.932946
    11514.104800       0.935129
    11527.377500       0.937276
    11540.680900       0.939387
    11554.015000       0.941462
    11567.380000       0.943500
    11580.775900       0.945502
    11594.202900       0.947467
    11607.661100       0.949396
    11621.150500       0.951288
    11634.671300       0.953144
    11648.223600       0.954963
    11661.807600       0.956745
    11675.423200       0.958490
    11689.070700       0.960199
    11702.750100       0.961871
    11716.461600       0.963505
    11730.205300       0.965103
    11743.981200       0.966665
    11757.789500       0.968189
    11771.630400       0.969676
    11785.503800       0.971127
    11799.410000       0.972541
    11813.349100       0.973918
    11827.321100       0.975258
    11841.326200       0.976562
    11855.364600       0.977829
    11869.436200       0.979059
    11883.541300       0.980253
    11897.680000       0.981411
    11911.852300       0.982532
    11926.058400       0.983617
    11940.298500       0.984666
    11954.572600       0.985678
    11968.880900       0.986655
    11983.223500       0.987596
    11997.600500       0.988500
    12012.012000       0.989370
    12026.458200       0.990204
    12040.939200       0.991002
    12055.455100       0.991765
    12070.006000       0.992493
    12084.592100       0.993186
    12099.213600       0.993844
    12113.870400       0.994468
    12128.562800       0.995057
    12143.290800       0.995612
    12158.054700       0.996133
    12172.854500       0.996620
    12187.690400       0.997073
    12202.562500       0.997493
    12217.471000       0.997879
    12232.415900       0.998232
    12247.397400       0.998553
    12262.415700       0.998840
    12277.470800       0.999096
    12292.563000       0.999319
    12307.692300       0.999510
    12322.858900       0.999669
    12338.062900       0.999797
    12353.304500       0.999894
    12368.583800       0.999960
    12383.900900       0.999995
    12399.256000       1.000000
    12414.649300       0.999975
    12430.080800       0.999920
    12445.550700       0.999835
    12461.059200       0.999721
    12476.606400       0.999578
    12492.192400       0.999407
    12507.817400       0.999207
    12523.481500       0.998979
    12539.185000       0.998723
    12554.927800       0.998440
    12570.710200       0.998130
    12586.532400       0.997793
    12602.394500       0.997430
    12618.296500       0.997041
    12634.238800       0.996626
    12650.221400       0.996186
    12666.244500       0.995721
    12682.308200       0.995231
    12698.412700       0.994717
    12714.558200       0.994178
    12730.744700       0.993617
    12746.972600       0.993032
    12763.241900       0.992424
    12779.552700       0.991794
    12795.905300       0.991142
    12812.299800       0.990468
    12828.736400       0.989773
    12845.215200       0.989058
    12861.736300       0.988321
    12878.300100       0.987565
    12894.906500       0.986789
    12911.555800       0.985994
    12928.248200       0.985180
    12944.983800       0.984347
    12961.762800       0.983496
    12978.585300       0.982628
    12995.451600       0.981743
    13012.361700       0.980841
    13029.316000       0.979922
    13046.314400       0.978988
    13063.357300       0.978038
    13080.444700       0.977073
    13097.576900       0.976094
    13114.754100       0.975100
    13131.976400       0.974093
    13149.243900       0.973072
    13166.556900       0.972039
    13183.915600       0.970993
    13201.320100       0.969935
    13218.770700       0.968866
    13236.267400       0.967785
    13253.810500       0.966694
    13271.400100       0.965593
    13289.036500       0.964482
    13306.719900       0.963361
    13324.450400       0.962232
    13342.228200       0.961095
    13360.053400       0.959949
    13377.926400       0.958796
    13395.847300       0.957636
    13413.816200       0.956470
    13431.833400       0.955297
    13449.899100       0.954119
    13468.013500       0.952935
    13486.176700       0.951747
    13504.388900       0.950554
    13522.650400       0.949357
    13540.961400       0.948157
    13559.322000       0.946954
    13577.732500       0.945749
    13596.193100       0.944541
    13614.703900       0.943332
    13633.265200       0.942122
    13651.877100       0.940911
    13670.540000       0.939699
    13689.253900       0.938488
    13708.019200       0.937277
    13726.836000       0.936068
    13745.704500       0.934859
    13764.624900       0.933653
    13783.597500       0.932449
    13802.622500       0.931248
    13821.700100       0.930050
    13840.830400       0.928855
    13860.013900       0.927665
    13879.250500       0.926479
    13898.540700       0.925298
    13917.884500       0.924122
    13937.282200       0.922952
    13956.734100       0.921788
    13976.240400       0.920630
    13995.801300       0.919480
    14015.417000       0.918336
    14035.087700       0.917201
    14054.813800       0.916073
    14074.595400       0.914954
    14094.432700       0.913844
    14114.326000       0.912743
    14134.275600       0.911652
    14154.281700       0.910570
    14174.344400       0.909499
    14194.464200       0.908439
    14214.641100       0.907390
    14234.875400       0.906352
    14255.167500       0.905326
    14275.517500       0.904312
    14295.925700       0.903311
    14316.392300       0.902322
    14336.917600       0.901347
    14357.501800       0.900385
    14378.145200       0.899437
    14398.848100       0.898503
    14419.610700       0.897583
    14440.433200       0.896678
    14461.316000       0.895788
    14482.259200       0.894913
    14503.263200       0.894054
    14524.328200       0.893211
    14545.454500       0.892384
    14566.642400       0.891573
    14587.892000       0.890779
    14609.203800       0.890002
    14630.577900       0.889241
    14652.014700       0.888499
    14673.514300       0.887774
    14695.077100       0.887066
    14716.703500       0.886377
    14738.393500       0.885706
    14760.147600       0.885054
    14781.966000       0.884420
    14803.849000       0.883805
    14825.796900       0.883209
    14847.809900       0.882632
    14869.888500       0.882075
    14892.032800       0.881537
    14914.243100       0.881019
    14936.519800       0.880521
    14958.863100       0.880042
    14981.273400       0.879584
    15003.750900       0.879146
    15026.296000       0.878729
    15048.909000       0.878331
    15071.590100       0.877955
    15094.339600       0.877599
    15117.158000       0.877263
    15140.045400       0.876948
    15163.002300       0.876655
    15186.028900       0.876382
    15209.125500       0.876129
    15232.292500       0.875898
    15255.530100       0.875688
    15278.838800       0.875499
    15302.218800       0.875330
    15325.670500       0.875183
    15349.194200       0.875057
    15372.790200       0.874951
    15396.458800       0.874867
    15420.200500       0.874803
    15444.015400       0.874760
    15467.904100       0.874738
    15491.866800       0.874736
    15515.903800       0.874755
    15540.015500       0.874795
    15564.202300       0.874855
    15588.464500       0.874935
    15612.802500       0.875036
    15637.216600       0.875156
    15661.707100       0.875296
    15686.274500       0.875457
    15710.919100       0.875636
    15735.641200       0.875835
    15760.441300       0.876054
    15785.319700       0.876291
    15810.276700       0.876547
    15835.312700       0.876822
    15860.428200       0.877115
    15885.623500       0.877426
    15910.899000       0.877755
    15936.255000       0.878102
    15961.691900       0.878466
    15987.210200       0.878848
    16012.810200       0.879246
    16038.492400       0.879661
    16064.257000       0.880092
    16090.104600       0.880539
    16116.035500       0.881001
    16142.050000       0.881479
    16168.148700       0.881971
    16194.332000       0.882478
    16220.600200       0.883000
    16246.953700       0.883535
    16273.393000       0.884083
    16299.918500       0.884645
    16326.530600       0.885219
    16353.229800       0.885805
    16380.016400       0.886403
    16406.890900       0.887012
    16433.853700       0.887632
    16460.905300       0.888262
    16488.046200       0.888902
    16515.276600       0.889551
    16542.597200       0.890210
    16570.008300       0.890877
    16597.510400       0.891551
    16625.103900       0.892233
    16652.789300       0.892922
    16680.567100       0.893617
    16708.437800       0.894317
    16736.401700       0.895023
    16764.459300       0.895734
    16792.611300       0.896448
    16820.857900       0.897165
    16849.199700       0.897886
    16877.637100       0.898608
    16906.170800       0.899332
    16934.801000       0.900057
    16963.528400       0.900782
    16992.353400       0.901506
    17021.276600       0.902230
    17050.298400       0.902951
    17079.419300       0.903670
    17108.639900       0.904386
    17137.960600       0.905098
    17167.382000       0.905806
    17196.904600       0.906508
    17226.528900       0.907204
    17256.255400       0.907893
    17286.084700       0.908575
    17316.017300       0.909248
    17346.053800       0.909912
    17376.194600       0.910567
    17406.440400       0.911211
    17436.791600       0.911843
    17467.248900       0.912463
    17497.812800       0.913070
    17528.483800       0.913664
    17559.262500       0.914243
    17590.149500       0.914806
    17621.145400       0.915353
    17652.250700       0.915883
    17683.466000       0.916394
    17714.791900       0.916887
    17746.228900       0.917361
    17777.777800       0.917813
    17809.439000       0.918244
    17841.213200       0.918653
    17873.101000       0.919039
    17905.103000       0.919400
    17937.219700       0.919737
    17969.451900       0.920047
    18001.800200       0.920331
    18034.265100       0.920587
    18066.847300       0.920814
    18099.547500       0.921012
    18132.366300       0.921179
    18165.304300       0.921315
    18198.362100       0.921419
    18231.540600       0.921489
    18264.840200       0.921525
    18298.261700       0.921526
    18331.805700       0.921490
    18365.472900       0.921418
    18399.264000       0.921307
    18433.179700       0.921158
    18467.220700       0.920969
    18501.387600       0.920738
    18535.681200       0.920466
    18570.102100       0.920151
    18604.651200       0.919793
    18639.329000       0.919390
    18674.136300       0.918941
    18709.073900       0.918445
    18744.142500       0.917902
    18779.342700       0.917310
    18814.675400       0.916669
    18850.141400       0.915977
    18885.741300       0.915234
    18921.475900       0.914439
    18957.346000       0.913590
    18993.352300       0.912687
    19029.495700       0.911729
    19065.776900       0.910714
    19102.196800       0.909643
    19138.756000       0.908514
    19175.455400       0.907325
    19212.295900       0.906077
    19249.278200       0.904768
    19286.403100       0.903398
    19323.671500       0.901965
    19361.084200       0.900468
    19398.642100       0.898908
    19436.346000       0.897281
    19474.196700       0.895589
    19512.195100       0.893830
    19550.342100       0.892003
    19588.638600       0.890108
    19627.085400       0.888142
    19665.683400       0.886107
    19704.433500       0.884000
    19743.336600       0.881822
    19782.393700       0.879570
    19821.605600       0.877245
    19860.973200       0.874846
    19900.497500       0.872372
    19940.179500       0.869822
    19980.020000       0.867195
    20020.020000       0.864491
    20060.180500       0.861709
    20100.502500       0.858849
    20140.986900       0.855909
    20181.634700       0.852889
    20222.446900       0.849789
    20263.424500       0.846607
    20304.568500       0.843343
    20345.880000       0.839997
    20387.359800       0.836568
    20429.009200       0.833055
    20470.829100       0.829459
    20512.820500       0.825777
    20554.984600       0.822011
    20597.322300       0.818159
    20639.834900       0.814221
    20682.523300       0.810197
    20725.388600       0.806086
    20768.432000       0.801887
    20811.654500       0.797602
    20855.057400       0.793228
    20898.641600       0.788766
    20942.408400       0.784216
    20986.358900       0.779578
    21030.494200       0.774850
    21074.815600       0.770033
    21119.324200       0.765128
    21164.021200       0.760133
    21208.907700       0.755048
    21253.985100       0.749875
    21299.254500       0.744611
    21344.717200       0.739259
    21390.374300       0.733817
    21436.227200       0.728285
    21482.277100       0.722665
    21528.525300       0.716955
    21574.973000       0.711156
    21621.621600       0.705269
    21668.472400       0.699293
    21715.526600       0.693230
    21762.785600       0.687078
    21810.250800       0.680839
    21857.923500       0.674513
    21905.805000       0.668101
    21953.896800       0.661603
    22002.200200       0.655019
    22050.716600       0.648350
    22099.447500       0.641597
    22148.394200       0.634761
    22197.558300       0.627842
    22246.941000       0.620841
    22296.544000       0.613759
    22346.368700       0.606596
    22396.416600       0.599354
    22446.689100       0.592034
    22497.187900       0.584637
    22547.914300       0.577163
    22598.870100       0.569614
    22650.056600       0.561992
    22701.475600       0.554296
    22753.128600       0.546530
    22805.017100       0.538693
    22857.142900       0.530789
    22909.507400       0.522817
    22962.112500       0.514780
    23014.959700       0.506679
    23068.050700       0.498516
    23121.387300       0.490293
    23174.971000       0.482011
    23228.803700       0.473672
    23282.887100       0.465279
    23337.222900       0.456833
    23391.812900       0.448337
    23446.658900       0.439792
    23501.762600       0.431201
    23557.126000       0.422566
    23612.750900       0.413890
    23668.639100       0.405175
    23724.792400       0.396423
    23781.212800       0.387637
    23837.902300       0.378820
    23894.862600       0.369975
    23952.095800       0.361104
    24009.603800       0.352211
    24067.388700       0.343297
    24125.452400       0.334368
    24183.796900       0.325425
    24242.424200       0.316472
    24301.336600       0.307513
    24360.535900       0.298550
    24420.024400       0.289587
    24479.804200       0.280629
    24539.877300       0.271678
    24600.246000       0.262739
    24660.912500       0.253815
    24721.878900       0.244911
    24783.147500       0.236030
    24844.720500       0.227178
    24906.600200       0.218357
    24968.789000       0.209573
    25031.289100       0.200831
    25094.102900       0.192134
    25157.232700       0.183487
    25220.681000       0.174896
    25284.450100       0.166365
    25348.542500       0.157900
    25412.960600       0.149505
    25477.707000       0.141187
