36,   36, MVIRI VIS channel from srf_MET2_1986213_1986214_1801-Release_S10EL_10.dat
Number of data points:
730
Wavenumber (cm-1)   Filter response
     8916.629500       0.000000
     8924.587200       0.000000
     8932.559200       0.000002
     8940.545400       0.000011
     8948.545900       0.000032
     8956.560700       0.000069
     8964.589900       0.000126
     8972.633500       0.000208
     8980.691500       0.000318
     8988.764000       0.000461
     8996.851100       0.000639
     9004.952700       0.000857
     9013.068900       0.001118
     9021.199800       0.001425
     9029.345400       0.001781
     9037.505600       0.002190
     9045.680700       0.002652
     9053.870500       0.003173
     9062.075200       0.003753
     9070.294800       0.004395
     9078.529300       0.005102
     9086.778700       0.005875
     9095.043200       0.006717
     9103.322700       0.007629
     9111.617300       0.008613
     9119.927000       0.009671
     9128.251900       0.010805
     9136.592100       0.012015
     9144.947400       0.013303
     9153.318100       0.014670
     9161.704100       0.016117
     9170.105500       0.017646
     9178.522300       0.019257
     9186.954500       0.020950
     9195.402300       0.022728
     9203.865600       0.024590
     9212.344500       0.026537
     9220.839100       0.028569
     9229.349300       0.030687
     9237.875300       0.032891
     9246.417000       0.035182
     9254.974500       0.037559
     9263.547900       0.040022
     9272.137200       0.042572
     9280.742500       0.045209
     9289.363700       0.047932
     9298.000900       0.050742
     9306.654300       0.053637
     9315.323700       0.056619
     9324.009300       0.059685
     9332.711200       0.062837
     9341.429200       0.066073
     9350.163600       0.069394
     9358.914400       0.072797
     9367.681500       0.076284
     9376.465100       0.079853
     9385.265100       0.083503
     9394.081700       0.087234
     9402.914900       0.091045
     9411.764700       0.094936
     9420.631200       0.098904
     9429.514400       0.102950
     9438.414300       0.107072
     9447.331100       0.111270
     9456.264800       0.115543
     9465.215300       0.119889
     9474.182900       0.124307
     9483.167400       0.128796
     9492.169000       0.133356
     9501.187600       0.137985
     9510.223500       0.142682
     9519.276500       0.147445
     9528.346800       0.152274
     9537.434400       0.157167
     9546.539400       0.162123
     9555.661700       0.167141
     9564.801500       0.172219
     9573.958800       0.177357
     9583.133700       0.182552
     9592.326100       0.187804
     9601.536200       0.193111
     9610.764100       0.198471
     9620.009600       0.203885
     9629.273000       0.209349
     9638.554200       0.214863
     9647.853400       0.220425
     9657.170400       0.226034
     9666.505600       0.231689
     9675.858700       0.237388
     9685.230000       0.243128
     9694.619500       0.248911
     9704.027200       0.254733
     9713.453100       0.260594
     9722.897400       0.266492
     9732.360100       0.272425
     9741.841200       0.278392
     9751.340800       0.284392
     9760.859000       0.290423
     9770.395700       0.296484
     9779.951100       0.302573
     9789.525200       0.308689
     9799.118100       0.314832
     9808.729800       0.320997
     9818.360300       0.327186
     9828.009800       0.333396
     9837.678300       0.339626
     9847.365800       0.345875
     9857.072400       0.352140
     9866.798200       0.358421
     9876.543200       0.364717
     9886.307500       0.371026
     9896.091000       0.377347
     9905.894000       0.383678
     9915.716400       0.390018
     9925.558300       0.396365
     9935.419800       0.402720
     9945.300800       0.409079
     9955.201600       0.415442
     9965.122100       0.421808
     9975.062300       0.428175
     9985.022500       0.434542
     9995.002500       0.440908
    10005.002500       0.447272
    10015.022500       0.453632
    10025.062700       0.459986
    10035.122900       0.466335
    10045.203400       0.472677
    10055.304200       0.479011
    10065.425300       0.485335
    10075.566800       0.491648
    10085.728700       0.497949
    10095.911200       0.504238
    10106.114200       0.510513
    10116.337900       0.516773
    10126.582300       0.523016
    10136.847400       0.529243
    10147.133400       0.535452
    10157.440300       0.541641
    10167.768200       0.547810
    10178.117000       0.553958
    10188.487000       0.560084
    10198.878100       0.566188
    10209.290500       0.572267
    10219.724100       0.578321
    10230.179000       0.584349
    10240.655400       0.590352
    10251.153300       0.596326
    10261.672700       0.602272
    10272.213700       0.608189
    10282.776300       0.614076
    10293.360800       0.619932
    10303.967000       0.625757
    10314.595200       0.631549
    10325.245200       0.637309
    10335.917300       0.643035
    10346.611500       0.648726
    10357.327800       0.654381
    10368.066400       0.660001
    10378.827200       0.665585
    10389.610400       0.671131
    10400.416000       0.676640
    10411.244100       0.682109
    10422.094800       0.687540
    10432.968200       0.692932
    10443.864200       0.698283
    10454.783100       0.703594
    10465.724800       0.708863
    10476.689400       0.714090
    10487.677000       0.719276
    10498.687700       0.724418
    10509.721500       0.729517
    10520.778500       0.734572
    10531.858900       0.739584
    10542.962600       0.744551
    10554.089700       0.749472
    10565.240400       0.754349
    10576.414600       0.759180
    10587.612500       0.763964
    10598.834100       0.768703
    10610.079600       0.773394
    10621.348900       0.778038
    10632.642200       0.782635
    10643.959600       0.787185
    10655.301000       0.791686
    10666.666700       0.796139
    10678.056600       0.800544
    10689.470900       0.804899
    10700.909600       0.809207
    10712.372800       0.813464
    10723.860600       0.817673
    10735.373100       0.821832
    10746.910300       0.825941
    10758.472300       0.830001
    10770.059200       0.834010
    10781.671200       0.837970
    10793.308100       0.841879
    10804.970300       0.845738
    10816.657700       0.849546
    10828.370300       0.853304
    10840.108400       0.857012
    10851.871900       0.860668
    10863.661100       0.864275
    10875.475800       0.867830
    10887.316300       0.871334
    10899.182600       0.874788
    10911.074700       0.878192
    10922.992900       0.881544
    10934.937100       0.884846
    10946.907500       0.888097
    10958.904100       0.891297
    10970.927000       0.894447
    10982.976400       0.897546
    10995.052200       0.900595
    11007.154700       0.903593
    11019.283700       0.906541
    11031.439600       0.909439
    11043.622300       0.912286
    11055.832000       0.915084
    11068.068600       0.917832
    11080.332400       0.920530
    11092.623400       0.923178
    11104.941700       0.925777
    11117.287400       0.928326
    11129.660500       0.930826
    11142.061300       0.933278
    11154.489700       0.935680
    11166.945800       0.938034
    11179.429800       0.940339
    11191.941800       0.942596
    11204.481800       0.944805
    11217.049900       0.946966
    11229.646300       0.949079
    11242.270900       0.951145
    11254.924000       0.953164
    11267.605600       0.955136
    11280.315800       0.957060
    11293.054800       0.958939
    11305.822500       0.960771
    11318.619100       0.962557
    11331.444800       0.964297
    11344.299500       0.965992
    11357.183400       0.967642
    11370.096600       0.969246
    11383.039300       0.970806
    11396.011400       0.972322
    11409.013100       0.973793
    11422.044500       0.975220
    11435.105800       0.976604
    11448.196900       0.977945
    11461.318100       0.979242
    11474.469300       0.980497
    11487.650800       0.981709
    11500.862600       0.982880
    11514.104800       0.984008
    11527.377500       0.985095
    11540.680900       0.986141
    11554.015000       0.987146
    11567.380000       0.988110
    11580.775900       0.989034
    11594.202900       0.989919
    11607.661100       0.990763
    11621.150500       0.991568
    11634.671300       0.992335
    11648.223600       0.993062
    11661.807600       0.993752
    11675.423200       0.994403
    11689.070700       0.995017
    11702.750100       0.995593
    11716.461600       0.996132
    11730.205300       0.996635
    11743.981200       0.997101
    11757.789500       0.997531
    11771.630400       0.997925
    11785.503800       0.998284
    11799.410000       0.998608
    11813.349100       0.998898
    11827.321100       0.999152
    11841.326200       0.999373
    11855.364600       0.999560
    11869.436200       0.999714
    11883.541300       0.999834
    11897.680000       0.999922
    11911.852300       0.999977
    11926.058400       1.000000
    11940.298500       0.999991
    11954.572600       0.999951
    11968.880900       0.999880
    11983.223500       0.999777
    11997.600500       0.999645
    12012.012000       0.999482
    12026.458200       0.999289
    12040.939200       0.999066
    12055.455100       0.998814
    12070.006000       0.998534
    12084.592100       0.998224
    12099.213600       0.997886
    12113.870400       0.997521
    12128.562800       0.997127
    12143.290800       0.996706
    12158.054700       0.996258
    12172.854500       0.995783
    12187.690400       0.995281
    12202.562500       0.994753
    12217.471000       0.994199
    12232.415900       0.993619
    12247.397400       0.993014
    12262.415700       0.992384
    12277.470800       0.991729
    12292.563000       0.991049
    12307.692300       0.990345
    12322.858900       0.989617
    12338.062900       0.988866
    12353.304500       0.988090
    12368.583800       0.987292
    12383.900900       0.986470
    12399.256000       0.985626
    12414.649300       0.984759
    12430.080800       0.983870
    12445.550700       0.982959
    12461.059200       0.982027
    12476.606400       0.981072
    12492.192400       0.980097
    12507.817400       0.979101
    12523.481500       0.978083
    12539.185000       0.977046
    12554.927800       0.975988
    12570.710200       0.974909
    12586.532400       0.973811
    12602.394500       0.972694
    12618.296500       0.971557
    12634.238800       0.970400
    12650.221400       0.969225
    12666.244500       0.968031
    12682.308200       0.966818
    12698.412700       0.965587
    12714.558200       0.964338
    12730.744700       0.963071
    12746.972600       0.961786
    12763.241900       0.960483
    12779.552700       0.959163
    12795.905300       0.957825
    12812.299800       0.956471
    12828.736400       0.955100
    12845.215200       0.953712
    12861.736300       0.952307
    12878.300100       0.950886
    12894.906500       0.949449
    12911.555800       0.947996
    12928.248200       0.946527
    12944.983800       0.945042
    12961.762800       0.943542
    12978.585300       0.942026
    12995.451600       0.940495
    13012.361700       0.938949
    13029.316000       0.937388
    13046.314400       0.935812
    13063.357300       0.934222
    13080.444700       0.932616
    13097.576900       0.930997
    13114.754100       0.929363
    13131.976400       0.927715
    13149.243900       0.926053
    13166.556900       0.924377
    13183.915600       0.922687
    13201.320100       0.920984
    13218.770700       0.919267
    13236.267400       0.917537
    13253.810500       0.915793
    13271.400100       0.914036
    13289.036500       0.912267
    13306.719900       0.910484
    13324.450400       0.908688
    13342.228200       0.906879
    13360.053400       0.905058
    13377.926400       0.903224
    13395.847300       0.901378
    13413.816200       0.899519
    13431.833400       0.897648
    13449.899100       0.895765
    13468.013500       0.893870
    13486.176700       0.891963
    13504.388900       0.890043
    13522.650400       0.888112
    13540.961400       0.886169
    13559.322000       0.884215
    13577.732500       0.882249
    13596.193100       0.880271
    13614.703900       0.878282
    13633.265200       0.876281
    13651.877100       0.874269
    13670.540000       0.872246
    13689.253900       0.870212
    13708.019200       0.868167
    13726.836000       0.866111
    13745.704500       0.864043
    13764.624900       0.861965
    13783.597500       0.859876
    13802.622500       0.857777
    13821.700100       0.855667
    13840.830400       0.853546
    13860.013900       0.851414
    13879.250500       0.849272
    13898.540700       0.847120
    13917.884500       0.844958
    13937.282200       0.842785
    13956.734100       0.840601
    13976.240400       0.838408
    13995.801300       0.836205
    14015.417000       0.833992
    14035.087700       0.831768
    14054.813800       0.829535
    14074.595400       0.827292
    14094.432700       0.825039
    14114.326000       0.822776
    14134.275600       0.820504
    14154.281700       0.818222
    14174.344400       0.815931
    14194.464200       0.813630
    14214.641100       0.811320
    14234.875400       0.809000
    14255.167500       0.806671
    14275.517500       0.804333
    14295.925700       0.801986
    14316.392300       0.799629
    14336.917600       0.797263
    14357.501800       0.794889
    14378.145200       0.792506
    14398.848100       0.790113
    14419.610700       0.787712
    14440.433200       0.785302
    14461.316000       0.782884
    14482.259200       0.780457
    14503.263200       0.778021
    14524.328200       0.775577
    14545.454500       0.773125
    14566.642400       0.770664
    14587.892000       0.768195
    14609.203800       0.765718
    14630.577900       0.763232
    14652.014700       0.760739
    14673.514300       0.758238
    14695.077100       0.755728
    14716.703500       0.753212
    14738.393500       0.750687
    14760.147600       0.748155
    14781.966000       0.745615
    14803.849000       0.743067
    14825.796900       0.740512
    14847.809900       0.737950
    14869.888500       0.735381
    14892.032800       0.732804
    14914.243100       0.730220
    14936.519800       0.727630
    14958.863100       0.725032
    14981.273400       0.722428
    15003.750900       0.719817
    15026.296000       0.717199
    15048.909000       0.714575
    15071.590100       0.711944
    15094.339600       0.709307
    15117.158000       0.706664
    15140.045400       0.704015
    15163.002300       0.701359
    15186.028900       0.698698
    15209.125500       0.696031
    15232.292500       0.693358
    15255.530100       0.690679
    15278.838800       0.687995
    15302.218800       0.685306
    15325.670500       0.682611
    15349.194200       0.679911
    15372.790200       0.677206
    15396.458800       0.674495
    15420.200500       0.671781
    15444.015400       0.669061
    15467.904100       0.666337
    15491.866800       0.663608
    15515.903800       0.660875
    15540.015500       0.658137
    15564.202300       0.655395
    15588.464500       0.652650
    15612.802500       0.649900
    15637.216600       0.647147
    15661.707100       0.644390
    15686.274500       0.641630
    15710.919100       0.638866
    15735.641200       0.636099
    15760.441300       0.633329
    15785.319700       0.630556
    15810.276700       0.627780
    15835.312700       0.625001
    15860.428200       0.622220
    15885.623500       0.619436
    15910.899000       0.616650
    15936.255000       0.613861
    15961.691900       0.611071
    15987.210200       0.608279
    16012.810200       0.605485
    16038.492400       0.602690
    16064.257000       0.599893
    16090.104600       0.597094
    16116.035500       0.594295
    16142.050000       0.591494
    16168.148700       0.588693
    16194.332000       0.585891
    16220.600200       0.583088
    16246.953700       0.580285
    16273.393000       0.577482
    16299.918500       0.574678
    16326.530600       0.571875
    16353.229800       0.569071
    16380.016400       0.566268
    16406.890900       0.563465
    16433.853700       0.560663
    16460.905300       0.557862
    16488.046200       0.555061
    16515.276600       0.552262
    16542.597200       0.549464
    16570.008300       0.546667
    16597.510400       0.543871
    16625.103900       0.541077
    16652.789300       0.538285
    16680.567100       0.535495
    16708.437800       0.532707
    16736.401700       0.529922
    16764.459300       0.527138
    16792.611300       0.524357
    16820.857900       0.521579
    16849.199700       0.518804
    16877.637100       0.516031
    16906.170800       0.513262
    16934.801000       0.510496
    16963.528400       0.507733
    16992.353400       0.504974
    17021.276600       0.502219
    17050.298400       0.499467
    17079.419300       0.496719
    17108.639900       0.493975
    17137.960600       0.491236
    17167.382000       0.488501
    17196.904600       0.485770
    17226.528900       0.483044
    17256.255400       0.480323
    17286.084700       0.477606
    17316.017300       0.474895
    17346.053800       0.472188
    17376.194600       0.469487
    17406.440400       0.466791
    17436.791600       0.464101
    17467.248900       0.461416
    17497.812800       0.458737
    17528.483800       0.456064
    17559.262500       0.453397
    17590.149500       0.450735
    17621.145400       0.448080
    17652.250700       0.445431
    17683.466000       0.442788
    17714.791900       0.440152
    17746.228900       0.437523
    17777.777800       0.434900
    17809.439000       0.432283
    17841.213200       0.429674
    17873.101000       0.427071
    17905.103000       0.424475
    17937.219700       0.421887
    17969.451900       0.419305
    18001.800200       0.416731
    18034.265100       0.414164
    18066.847300       0.411604
    18099.547500       0.409052
    18132.366300       0.406507
    18165.304300       0.403969
    18198.362100       0.401439
    18231.540600       0.398917
    18264.840200       0.396402
    18298.261700       0.393895
    18331.805700       0.391396
    18365.472900       0.388905
    18399.264000       0.386421
    18433.179700       0.383945
    18467.220700       0.381477
    18501.387600       0.379017
    18535.681200       0.376564
    18570.102100       0.374120
    18604.651200       0.371683
    18639.329000       0.369254
    18674.136300       0.366834
    18709.073900       0.364421
    18744.142500       0.362016
    18779.342700       0.359618
    18814.675400       0.357229
    18850.141400       0.354847
    18885.741300       0.352474
    18921.475900       0.350108
    18957.346000       0.347749
    18993.352300       0.345399
    19029.495700       0.343056
    19065.776900       0.340721
    19102.196800       0.338393
    19138.756000       0.336072
    19175.455400       0.333760
    19212.295900       0.331454
    19249.278200       0.329156
    19286.403100       0.326865
    19323.671500       0.324581
    19361.084200       0.322304
    19398.642100       0.320034
    19436.346000       0.317771
    19474.196700       0.315515
    19512.195100       0.313265
    19550.342100       0.311022
    19588.638600       0.308786
    19627.085400       0.306556
    19665.683400       0.304332
    19704.433500       0.302114
    19743.336600       0.299902
    19782.393700       0.297696
    19821.605600       0.295495
    19860.973200       0.293301
    19900.497500       0.291111
    19940.179500       0.288927
    19980.020000       0.286748
    20020.020000       0.284574
    20060.180500       0.282405
    20100.502500       0.280241
    20140.986900       0.278081
    20181.634700       0.275925
    20222.446900       0.273773
    20263.424500       0.271626
    20304.568500       0.269482
    20345.880000       0.267342
    20387.359800       0.265205
    20429.009200       0.263071
    20470.829100       0.260940
    20512.820500       0.258813
    20554.984600       0.256687
    20597.322300       0.254564
    20639.834900       0.252444
    20682.523300       0.250325
    20725.388600       0.248208
    20768.432000       0.246093
    20811.654500       0.243979
    20855.057400       0.241866
    20898.641600       0.239754
    20942.408400       0.237643
    20986.358900       0.235532
    21030.494200       0.233422
    21074.815600       0.231311
    21119.324200       0.229201
    21164.021200       0.227090
    21208.907700       0.224978
    21253.985100       0.222865
    21299.254500       0.220751
    21344.717200       0.218636
    21390.374300       0.216519
    21436.227200       0.214400
    21482.277100       0.212280
    21528.525300       0.210157
    21574.973000       0.208031
    21621.621600       0.205903
    21668.472400       0.203771
    21715.526600       0.201637
    21762.785600       0.199499
    21810.250800       0.197357
    21857.923500       0.195212
    21905.805000       0.193062
    21953.896800       0.190908
    22002.200200       0.188750
    22050.716600       0.186587
    22099.447500       0.184418
    22148.394200       0.182245
    22197.558300       0.180066
    22246.941000       0.177882
    22296.544000       0.175692
    22346.368700       0.173496
    22396.416600       0.171294
    22446.689100       0.169085
    22497.187900       0.166870
    22547.914300       0.164649
    22598.870100       0.162420
    22650.056600       0.160185
    22701.475600       0.157943
    22753.128600       0.155693
    22805.017100       0.153436
    22857.142900       0.151171
    22909.507400       0.148899
    22962.112500       0.146619
    23014.959700       0.144332
    23068.050700       0.142036
    23121.387300       0.139733
    23174.971000       0.137421
    23228.803700       0.135101
    23282.887100       0.132774
    23337.222900       0.130437
    23391.812900       0.128093
    23446.658900       0.125741
    23501.762600       0.123380
    23557.126000       0.121011
    23612.750900       0.118634
    23668.639100       0.116249
    23724.792400       0.113856
    23781.212800       0.111455
    23837.902300       0.109046
    23894.862600       0.106629
    23952.095800       0.104204
    24009.603800       0.101772
    24067.388700       0.099333
    24125.452400       0.096886
    24183.796900       0.094432
    24242.424200       0.091972
    24301.336600       0.089505
    24360.535900       0.087031
    24420.024400       0.084552
    24479.804200       0.082067
    24539.877300       0.079576
    24600.246000       0.077081
    24660.912500       0.074580
    24721.878900       0.072075
    24783.147500       0.069567
    24844.720500       0.067054
    24906.600200       0.064539
    24968.789000       0.062021
    25031.289100       0.059501
    25094.102900       0.056980
    25157.232700       0.054457
    25220.681000       0.051934
    25284.450100       0.049411
    25348.542500       0.046890
    25412.960600       0.044369
    25477.707000       0.041851
