57,   57, MVIRI VIS channel from srf_MET2_1989078_1989079_1801-Release_S10EL_10.dat
Number of data points:
730
Wavenumber (cm-1)   Filter response
     8916.629500       0.000000
     8924.587200       0.000000
     8932.559200       0.000002
     8940.545400       0.000012
     8948.545900       0.000032
     8956.560700       0.000070
     8964.589900       0.000127
     8972.633500       0.000210
     8980.691500       0.000321
     8988.764000       0.000465
     8996.851100       0.000645
     9004.952700       0.000865
     9013.068900       0.001129
     9021.199800       0.001439
     9029.345400       0.001798
     9037.505600       0.002210
     9045.680700       0.002677
     9053.870500       0.003202
     9062.075200       0.003787
     9070.294800       0.004435
     9078.529300       0.005148
     9086.778700       0.005929
     9095.043200       0.006778
     9103.322700       0.007699
     9111.617300       0.008692
     9119.927000       0.009759
     9128.251900       0.010903
     9136.592100       0.012123
     9144.947400       0.013423
     9153.318100       0.014802
     9161.704100       0.016262
     9170.105500       0.017804
     9178.522300       0.019429
     9186.954500       0.021137
     9195.402300       0.022931
     9203.865600       0.024809
     9212.344500       0.026772
     9220.839100       0.028822
     9229.349300       0.030958
     9237.875300       0.033181
     9246.417000       0.035491
     9254.974500       0.037888
     9263.547900       0.040373
     9272.137200       0.042944
     9280.742500       0.045603
     9289.363700       0.048349
     9298.000900       0.051182
     9306.654300       0.054102
     9315.323700       0.057108
     9324.009300       0.060200
     9332.711200       0.063378
     9341.429200       0.066640
     9350.163600       0.069988
     9358.914400       0.073419
     9367.681500       0.076934
     9376.465100       0.080532
     9385.265100       0.084211
     9394.081700       0.087972
     9402.914900       0.091813
     9411.764700       0.095734
     9420.631200       0.099734
     9429.514400       0.103812
     9438.414300       0.107966
     9447.331100       0.112197
     9456.264800       0.116502
     9465.215300       0.120882
     9474.182900       0.125333
     9483.167400       0.129857
     9492.169000       0.134452
     9501.187600       0.139115
     9510.223500       0.143848
     9519.276500       0.148646
     9528.346800       0.153511
     9537.434400       0.158441
     9546.539400       0.163433
     9555.661700       0.168488
     9564.801500       0.173603
     9573.958800       0.178778
     9583.133700       0.184011
     9592.326100       0.189300
     9601.536200       0.194645
     9610.764100       0.200043
     9620.009600       0.205495
     9629.273000       0.210997
     9638.554200       0.216549
     9647.853400       0.222150
     9657.170400       0.227797
     9666.505600       0.233490
     9675.858700       0.239228
     9685.230000       0.245007
     9694.619500       0.250829
     9704.027200       0.256689
     9713.453100       0.262589
     9722.897400       0.268525
     9732.360100       0.274496
     9741.841200       0.280502
     9751.340800       0.286540
     9760.859000       0.292609
     9770.395700       0.298708
     9779.951100       0.304835
     9789.525200       0.310990
     9799.118100       0.317169
     9808.729800       0.323372
     9818.360300       0.329598
     9828.009800       0.335845
     9837.678300       0.342112
     9847.365800       0.348397
     9857.072400       0.354699
     9866.798200       0.361017
     9876.543200       0.367348
     9886.307500       0.373693
     9896.091000       0.380049
     9905.894000       0.386414
     9915.716400       0.392789
     9925.558300       0.399171
     9935.419800       0.405559
     9945.300800       0.411952
     9955.201600       0.418348
     9965.122100       0.424747
     9975.062300       0.431146
     9985.022500       0.437545
     9995.002500       0.443943
    10005.002500       0.450337
    10015.022500       0.456728
    10025.062700       0.463113
    10035.122900       0.469491
    10045.203400       0.475862
    10055.304200       0.482224
    10065.425300       0.488576
    10075.566800       0.494917
    10085.728700       0.501246
    10095.911200       0.507561
    10106.114200       0.513862
    10116.337900       0.520147
    10126.582300       0.526416
    10136.847400       0.532667
    10147.133400       0.538900
    10157.440300       0.545112
    10167.768200       0.551304
    10178.117000       0.557474
    10188.487000       0.563622
    10198.878100       0.569746
    10209.290500       0.575845
    10219.724100       0.581919
    10230.179000       0.587967
    10240.655400       0.593987
    10251.153300       0.599979
    10261.672700       0.605942
    10272.213700       0.611876
    10282.776300       0.617779
    10293.360800       0.623650
    10303.967000       0.629489
    10314.595200       0.635295
    10325.245200       0.641068
    10335.917300       0.646806
    10346.611500       0.652509
    10357.327800       0.658176
    10368.066400       0.663806
    10378.827200       0.669399
    10389.610400       0.674954
    10400.416000       0.680471
    10411.244100       0.685949
    10422.094800       0.691386
    10432.968200       0.696784
    10443.864200       0.702141
    10454.783100       0.707456
    10465.724800       0.712729
    10476.689400       0.717960
    10487.677000       0.723148
    10498.687700       0.728292
    10509.721500       0.733392
    10520.778500       0.738448
    10531.858900       0.743459
    10542.962600       0.748425
    10554.089700       0.753345
    10565.240400       0.758219
    10576.414600       0.763047
    10587.612500       0.767827
    10598.834100       0.772561
    10610.079600       0.777247
    10621.348900       0.781885
    10632.642200       0.786476
    10643.959600       0.791018
    10655.301000       0.795511
    10666.666700       0.799955
    10678.056600       0.804350
    10689.470900       0.808695
    10700.909600       0.812991
    10712.372800       0.817237
    10723.860600       0.821433
    10735.373100       0.825579
    10746.910300       0.829674
    10758.472300       0.833719
    10770.059200       0.837713
    10781.671200       0.841657
    10793.308100       0.845549
    10804.970300       0.849391
    10816.657700       0.853181
    10828.370300       0.856920
    10840.108400       0.860608
    10851.871900       0.864245
    10863.661100       0.867830
    10875.475800       0.871364
    10887.316300       0.874847
    10899.182600       0.878278
    10911.074700       0.881657
    10922.992900       0.884986
    10934.937100       0.888262
    10946.907500       0.891488
    10958.904100       0.894662
    10970.927000       0.897785
    10982.976400       0.900857
    10995.052200       0.903877
    11007.154700       0.906847
    11019.283700       0.909766
    11031.439600       0.912634
    11043.622300       0.915450
    11055.832000       0.918217
    11068.068600       0.920933
    11080.332400       0.923598
    11092.623400       0.926214
    11104.941700       0.928779
    11117.287400       0.931294
    11129.660500       0.933759
    11142.061300       0.936175
    11154.489700       0.938542
    11166.945800       0.940859
    11179.429800       0.943127
    11191.941800       0.945347
    11204.481800       0.947517
    11217.049900       0.949639
    11229.646300       0.951713
    11242.270900       0.953739
    11254.924000       0.955718
    11267.605600       0.957648
    11280.315800       0.959532
    11293.054800       0.961368
    11305.822500       0.963158
    11318.619100       0.964901
    11331.444800       0.966598
    11344.299500       0.968248
    11357.183400       0.969853
    11370.096600       0.971413
    11383.039300       0.972927
    11396.011400       0.974397
    11409.013100       0.975821
    11422.044500       0.977202
    11435.105800       0.978538
    11448.196900       0.979831
    11461.318100       0.981080
    11474.469300       0.982286
    11487.650800       0.983449
    11500.862600       0.984570
    11514.104800       0.985648
    11527.377500       0.986684
    11540.680900       0.987679
    11554.015000       0.988633
    11567.380000       0.989545
    11580.775900       0.990417
    11594.202900       0.991249
    11607.661100       0.992040
    11621.150500       0.992792
    11634.671300       0.993504
    11648.223600       0.994178
    11661.807600       0.994812
    11675.423200       0.995409
    11689.070700       0.995967
    11702.750100       0.996487
    11716.461600       0.996971
    11730.205300       0.997417
    11743.981200       0.997826
    11757.789500       0.998199
    11771.630400       0.998536
    11785.503800       0.998837
    11799.410000       0.999103
    11813.349100       0.999333
    11827.321100       0.999529
    11841.326200       0.999691
    11855.364600       0.999819
    11869.436200       0.999912
    11883.541300       0.999973
    11897.680000       1.000000
    11911.852300       0.999995
    11926.058400       0.999957
    11940.298500       0.999887
    11954.572600       0.999785
    11968.880900       0.999652
    11983.223500       0.999487
    11997.600500       0.999292
    12012.012000       0.999067
    12026.458200       0.998811
    12040.939200       0.998525
    12055.455100       0.998210
    12070.006000       0.997866
    12084.592100       0.997492
    12099.213600       0.997091
    12113.870400       0.996660
    12128.562800       0.996202
    12143.290800       0.995716
    12158.054700       0.995203
    12172.854500       0.994663
    12187.690400       0.994096
    12202.562500       0.993502
    12217.471000       0.992882
    12232.415900       0.992237
    12247.397400       0.991565
    12262.415700       0.990869
    12277.470800       0.990147
    12292.563000       0.989400
    12307.692300       0.988629
    12322.858900       0.987834
    12338.062900       0.987015
    12353.304500       0.986172
    12368.583800       0.985306
    12383.900900       0.984416
    12399.256000       0.983504
    12414.649300       0.982569
    12430.080800       0.981612
    12445.550700       0.980632
    12461.059200       0.979631
    12476.606400       0.978608
    12492.192400       0.977564
    12507.817400       0.976498
    12523.481500       0.975412
    12539.185000       0.974305
    12554.927800       0.973177
    12570.710200       0.972029
    12586.532400       0.970862
    12602.394500       0.969674
    12618.296500       0.968467
    12634.238800       0.967241
    12650.221400       0.965995
    12666.244500       0.964731
    12682.308200       0.963448
    12698.412700       0.962146
    12714.558200       0.960826
    12730.744700       0.959489
    12746.972600       0.958133
    12763.241900       0.956759
    12779.552700       0.955368
    12795.905300       0.953960
    12812.299800       0.952534
    12828.736400       0.951092
    12845.215200       0.949633
    12861.736300       0.948157
    12878.300100       0.946665
    12894.906500       0.945156
    12911.555800       0.943632
    12928.248200       0.942091
    12944.983800       0.940535
    12961.762800       0.938963
    12978.585300       0.937376
    12995.451600       0.935773
    13012.361700       0.934155
    13029.316000       0.932522
    13046.314400       0.930875
    13063.357300       0.929213
    13080.444700       0.927536
    13097.576900       0.925844
    13114.754100       0.924139
    13131.976400       0.922419
    13149.243900       0.920685
    13166.556900       0.918937
    13183.915600       0.917176
    13201.320100       0.915400
    13218.770700       0.913612
    13236.267400       0.911810
    13253.810500       0.909994
    13271.400100       0.908166
    13289.036500       0.906324
    13306.719900       0.904469
    13324.450400       0.902602
    13342.228200       0.900721
    13360.053400       0.898828
    13377.926400       0.896923
    13395.847300       0.895005
    13413.816200       0.893075
    13431.833400       0.891132
    13449.899100       0.889177
    13468.013500       0.887211
    13486.176700       0.885232
    13504.388900       0.883241
    13522.650400       0.881239
    13540.961400       0.879225
    13559.322000       0.877199
    13577.732500       0.875162
    13596.193100       0.873113
    13614.703900       0.871053
    13633.265200       0.868982
    13651.877100       0.866899
    13670.540000       0.864806
    13689.253900       0.862701
    13708.019200       0.860585
    13726.836000       0.858459
    13745.704500       0.856321
    13764.624900       0.854173
    13783.597500       0.852014
    13802.622500       0.849845
    13821.700100       0.847665
    13840.830400       0.845474
    13860.013900       0.843273
    13879.250500       0.841062
    13898.540700       0.838840
    13917.884500       0.836609
    13937.282200       0.834367
    13956.734100       0.832115
    13976.240400       0.829853
    13995.801300       0.827581
    14015.417000       0.825299
    14035.087700       0.823008
    14054.813800       0.820707
    14074.595400       0.818396
    14094.432700       0.816075
    14114.326000       0.813745
    14134.275600       0.811405
    14154.281700       0.809057
    14174.344400       0.806698
    14194.464200       0.804331
    14214.641100       0.801954
    14234.875400       0.799568
    14255.167500       0.797173
    14275.517500       0.794769
    14295.925700       0.792356
    14316.392300       0.789934
    14336.917600       0.787503
    14357.501800       0.785064
    14378.145200       0.782616
    14398.848100       0.780159
    14419.610700       0.777693
    14440.433200       0.775220
    14461.316000       0.772737
    14482.259200       0.770247
    14503.263200       0.767748
    14524.328200       0.765241
    14545.454500       0.762726
    14566.642400       0.760203
    14587.892000       0.757672
    14609.203800       0.755133
    14630.577900       0.752586
    14652.014700       0.750031
    14673.514300       0.747469
    14695.077100       0.744899
    14716.703500       0.742322
    14738.393500       0.739737
    14760.147600       0.737145
    14781.966000       0.734546
    14803.849000       0.731939
    14825.796900       0.729326
    14847.809900       0.726705
    14869.888500       0.724078
    14892.032800       0.721443
    14914.243100       0.718802
    14936.519800       0.716155
    14958.863100       0.713501
    14981.273400       0.710840
    15003.750900       0.708173
    15026.296000       0.705500
    15048.909000       0.702820
    15071.590100       0.700135
    15094.339600       0.697443
    15117.158000       0.694746
    15140.045400       0.692043
    15163.002300       0.689334
    15186.028900       0.686620
    15209.125500       0.683900
    15232.292500       0.681175
    15255.530100       0.678445
    15278.838800       0.675709
    15302.218800       0.672969
    15325.670500       0.670224
    15349.194200       0.667474
    15372.790200       0.664719
    15396.458800       0.661960
    15420.200500       0.659196
    15444.015400       0.656428
    15467.904100       0.653656
    15491.866800       0.650880
    15515.903800       0.648100
    15540.015500       0.645315
    15564.202300       0.642528
    15588.464500       0.639737
    15612.802500       0.636942
    15637.216600       0.634144
    15661.707100       0.631343
    15686.274500       0.628539
    15710.919100       0.625732
    15735.641200       0.622922
    15760.441300       0.620109
    15785.319700       0.617294
    15810.276700       0.614477
    15835.312700       0.611657
    15860.428200       0.608835
    15885.623500       0.606012
    15910.899000       0.603186
    15936.255000       0.600359
    15961.691900       0.597530
    15987.210200       0.594700
    16012.810200       0.591869
    16038.492400       0.589036
    16064.257000       0.586203
    16090.104600       0.583369
    16116.035500       0.580534
    16142.050000       0.577698
    16168.148700       0.574862
    16194.332000       0.572026
    16220.600200       0.569190
    16246.953700       0.566354
    16273.393000       0.563518
    16299.918500       0.560683
    16326.530600       0.557848
    16353.229800       0.555014
    16380.016400       0.552180
    16406.890900       0.549348
    16433.853700       0.546516
    16460.905300       0.543686
    16488.046200       0.540858
    16515.276600       0.538030
    16542.597200       0.535205
    16570.008300       0.532381
    16597.510400       0.529560
    16625.103900       0.526740
    16652.789300       0.523923
    16680.567100       0.521109
    16708.437800       0.518297
    16736.401700       0.515488
    16764.459300       0.512681
    16792.611300       0.509878
    16820.857900       0.507078
    16849.199700       0.504281
    16877.637100       0.501487
    16906.170800       0.498698
    16934.801000       0.495912
    16963.528400       0.493130
    16992.353400       0.490352
    17021.276600       0.487578
    17050.298400       0.484809
    17079.419300       0.482044
    17108.639900       0.479283
    17137.960600       0.476527
    17167.382000       0.473777
    17196.904600       0.471031
    17226.528900       0.468290
    17256.255400       0.465554
    17286.084700       0.462824
    17316.017300       0.460100
    17346.053800       0.457381
    17376.194600       0.454667
    17406.440400       0.451960
    17436.791600       0.449258
    17467.248900       0.446563
    17497.812800       0.443874
    17528.483800       0.441191
    17559.262500       0.438515
    17590.149500       0.435845
    17621.145400       0.433181
    17652.250700       0.430525
    17683.466000       0.427875
    17714.791900       0.425232
    17746.228900       0.422597
    17777.777800       0.419968
    17809.439000       0.417346
    17841.213200       0.414732
    17873.101000       0.412125
    17905.103000       0.409526
    17937.219700       0.406934
    17969.451900       0.404350
    18001.800200       0.401773
    18034.265100       0.399204
    18066.847300       0.396643
    18099.547500       0.394090
    18132.366300       0.391545
    18165.304300       0.389007
    18198.362100       0.386478
    18231.540600       0.383957
    18264.840200       0.381443
    18298.261700       0.378939
    18331.805700       0.376442
    18365.472900       0.373953
    18399.264000       0.371473
    18433.179700       0.369001
    18467.220700       0.366537
    18501.387600       0.364081
    18535.681200       0.361634
    18570.102100       0.359195
    18604.651200       0.356765
    18639.329000       0.354343
    18674.136300       0.351929
    18709.073900       0.349524
    18744.142500       0.347127
    18779.342700       0.344738
    18814.675400       0.342358
    18850.141400       0.339986
    18885.741300       0.337622
    18921.475900       0.335266
    18957.346000       0.332919
    18993.352300       0.330580
    19029.495700       0.328249
    19065.776900       0.325926
    19102.196800       0.323611
    19138.756000       0.321304
    19175.455400       0.319005
    19212.295900       0.316713
    19249.278200       0.314430
    19286.403100       0.312154
    19323.671500       0.309886
    19361.084200       0.307626
    19398.642100       0.305373
    19436.346000       0.303127
    19474.196700       0.300889
    19512.195100       0.298658
    19550.342100       0.296434
    19588.638600       0.294217
    19627.085400       0.292007
    19665.683400       0.289803
    19704.433500       0.287607
    19743.336600       0.285417
    19782.393700       0.283233
    19821.605600       0.281056
    19860.973200       0.278884
    19900.497500       0.276719
    19940.179500       0.274560
    19980.020000       0.272407
    20020.020000       0.270259
    20060.180500       0.268116
    20100.502500       0.265979
    20140.986900       0.263847
    20181.634700       0.261720
    20222.446900       0.259598
    20263.424500       0.257481
    20304.568500       0.255368
    20345.880000       0.253259
    20387.359800       0.251155
    20429.009200       0.249054
    20470.829100       0.246958
    20512.820500       0.244865
    20554.984600       0.242775
    20597.322300       0.240689
    20639.834900       0.238605
    20682.523300       0.236525
    20725.388600       0.234447
    20768.432000       0.232371
    20811.654500       0.230298
    20855.057400       0.228227
    20898.641600       0.226158
    20942.408400       0.224090
    20986.358900       0.222024
    21030.494200       0.219960
    21074.815600       0.217896
    21119.324200       0.215833
    21164.021200       0.213771
    21208.907700       0.211709
    21253.985100       0.209647
    21299.254500       0.207585
    21344.717200       0.205523
    21390.374300       0.203461
    21436.227200       0.201398
    21482.277100       0.199334
    21528.525300       0.197270
    21574.973000       0.195204
    21621.621600       0.193136
    21668.472400       0.191067
    21715.526600       0.188996
    21762.785600       0.186923
    21810.250800       0.184848
    21857.923500       0.182770
    21905.805000       0.180689
    21953.896800       0.178606
    22002.200200       0.176520
    22050.716600       0.174431
    22099.447500       0.172338
    22148.394200       0.170241
    22197.558300       0.168141
    22246.941000       0.166037
    22296.544000       0.163929
    22346.368700       0.161817
    22396.416600       0.159700
    22446.689100       0.157579
    22497.187900       0.155453
    22547.914300       0.153322
    22598.870100       0.151186
    22650.056600       0.149046
    22701.475600       0.146900
    22753.128600       0.144749
    22805.017100       0.142592
    22857.142900       0.140430
    22909.507400       0.138262
    22962.112500       0.136089
    23014.959700       0.133909
    23068.050700       0.131725
    23121.387300       0.129534
    23174.971000       0.127337
    23228.803700       0.125135
    23282.887100       0.122926
    23337.222900       0.120711
    23391.812900       0.118491
    23446.658900       0.116265
    23501.762600       0.114032
    23557.126000       0.111794
    23612.750900       0.109550
    23668.639100       0.107300
    23724.792400       0.105045
    23781.212800       0.102784
    23837.902300       0.100517
    23894.862600       0.098245
    23952.095800       0.095968
    24009.603800       0.093685
    24067.388700       0.091398
    24125.452400       0.089106
    24183.796900       0.086809
    24242.424200       0.084509
    24301.336600       0.082203
    24360.535900       0.079895
    24420.024400       0.077582
    24479.804200       0.075266
    24539.877300       0.072948
    24600.246000       0.070626
    24660.912500       0.068303
    24721.878900       0.065977
    24783.147500       0.063650
    24844.720500       0.061321
    24906.600200       0.058992
    24968.789000       0.056663
    25031.289100       0.054334
    25094.102900       0.052006
    25157.232700       0.049679
    25220.681000       0.047354
    25284.450100       0.045031
    25348.542500       0.042711
    25412.960600       0.040395
    25477.707000       0.038083
