51,   51, MVIRI VIS channel from srf_MET2_1988168_1988169_1801-Release_S10EL_10.dat
Number of data points:
730
Wavenumber (cm-1)   Filter response
     8916.629500       0.000000
     8924.587200       0.000000
     8932.559200       0.000002
     8940.545400       0.000012
     8948.545900       0.000032
     8956.560700       0.000069
     8964.589900       0.000127
     8972.633500       0.000209
     8980.691500       0.000320
     8988.764000       0.000464
     8996.851100       0.000643
     9004.952700       0.000863
     9013.068900       0.001126
     9021.199800       0.001435
     9029.345400       0.001793
     9037.505600       0.002204
     9045.680700       0.002670
     9053.870500       0.003193
     9062.075200       0.003777
     9070.294800       0.004424
     9078.529300       0.005135
     9086.778700       0.005913
     9095.043200       0.006761
     9103.322700       0.007679
     9111.617300       0.008669
     9119.927000       0.009734
     9128.251900       0.010874
     9136.592100       0.012092
     9144.947400       0.013388
     9153.318100       0.014764
     9161.704100       0.016220
     9170.105500       0.017758
     9178.522300       0.019380
     9186.954500       0.021084
     9195.402300       0.022872
     9203.865600       0.024746
     9212.344500       0.026705
     9220.839100       0.028750
     9229.349300       0.030880
     9237.875300       0.033098
     9246.417000       0.035402
     9254.974500       0.037794
     9263.547900       0.040272
     9272.137200       0.042838
     9280.742500       0.045490
     9289.363700       0.048230
     9298.000900       0.051056
     9306.654300       0.053969
     9315.323700       0.056967
     9324.009300       0.060052
     9332.711200       0.063223
     9341.429200       0.066477
     9350.163600       0.069817
     9358.914400       0.073241
     9367.681500       0.076747
     9376.465100       0.080337
     9385.265100       0.084008
     9394.081700       0.087760
     9402.914900       0.091593
     9411.764700       0.095505
     9420.631200       0.099496
     9429.514400       0.103564
     9438.414300       0.107710
     9447.331100       0.111931
     9456.264800       0.116227
     9465.215300       0.120597
     9474.182900       0.125039
     9483.167400       0.129553
     9492.169000       0.134137
     9501.187600       0.138791
     9510.223500       0.143513
     9519.276500       0.148302
     9528.346800       0.153157
     9537.434400       0.158076
     9546.539400       0.163057
     9555.661700       0.168102
     9564.801500       0.173206
     9573.958800       0.178370
     9583.133700       0.183593
     9592.326100       0.188871
     9601.536200       0.194205
     9610.764100       0.199592
     9620.009600       0.205033
     9629.273000       0.210525
     9638.554200       0.216066
     9647.853400       0.221656
     9657.170400       0.227292
     9666.505600       0.232974
     9675.858700       0.238700
     9685.230000       0.244469
     9694.619500       0.250279
     9704.027200       0.256128
     9713.453100       0.262017
     9722.897400       0.267942
     9732.360100       0.273902
     9741.841200       0.279897
     9751.340800       0.285924
     9760.859000       0.291983
     9770.395700       0.298071
     9779.951100       0.304187
     9789.525200       0.310331
     9799.118100       0.316499
     9808.729800       0.322692
     9818.360300       0.328907
     9828.009800       0.335143
     9837.678300       0.341400
     9847.365800       0.347675
     9857.072400       0.353966
     9866.798200       0.360273
     9876.543200       0.366594
     9886.307500       0.372929
     9896.091000       0.379275
     9905.894000       0.385630
     9915.716400       0.391995
     9925.558300       0.398367
     9935.419800       0.404746
     9945.300800       0.411130
     9955.201600       0.417516
     9965.122100       0.423905
     9975.062300       0.430295
     9985.022500       0.436685
     9995.002500       0.443074
    10005.002500       0.449459
    10015.022500       0.455841
    10025.062700       0.462217
    10035.122900       0.468587
    10045.203400       0.474950
    10055.304200       0.481304
    10065.425300       0.487648
    10075.566800       0.493981
    10085.728700       0.500302
    10095.911200       0.506610
    10106.114200       0.512903
    10116.337900       0.519181
    10126.582300       0.525443
    10136.847400       0.531687
    10147.133400       0.537913
    10157.440300       0.544119
    10167.768200       0.550304
    10178.117000       0.556468
    10188.487000       0.562609
    10198.878100       0.568728
    10209.290500       0.574821
    10219.724100       0.580889
    10230.179000       0.586932
    10240.655400       0.592947
    10251.153300       0.598934
    10261.672700       0.604892
    10272.213700       0.610821
    10282.776300       0.616719
    10293.360800       0.622587
    10303.967000       0.628422
    10314.595200       0.634224
    10325.245200       0.639993
    10335.917300       0.645727
    10346.611500       0.651427
    10357.327800       0.657091
    10368.066400       0.662718
    10378.827200       0.668308
    10389.610400       0.673861
    10400.416000       0.679376
    10411.244100       0.684851
    10422.094800       0.690287
    10432.968200       0.695683
    10443.864200       0.701038
    10454.783100       0.706352
    10465.724800       0.711624
    10476.689400       0.716854
    10487.677000       0.722041
    10498.687700       0.727185
    10509.721500       0.732285
    10520.778500       0.737341
    10531.858900       0.742352
    10542.962600       0.747318
    10554.089700       0.752239
    10565.240400       0.757114
    10576.414600       0.761942
    10587.612500       0.766724
    10598.834100       0.771459
    10610.079600       0.776147
    10621.348900       0.780787
    10632.642200       0.785379
    10643.959600       0.789923
    10655.301000       0.794419
    10666.666700       0.798865
    10678.056600       0.803263
    10689.470900       0.807612
    10700.909600       0.811911
    10712.372800       0.816160
    10723.860600       0.820360
    10735.373100       0.824510
    10746.910300       0.828609
    10758.472300       0.832658
    10770.059200       0.836657
    10781.671200       0.840605
    10793.308100       0.844502
    10804.970300       0.848349
    10816.657700       0.852145
    10828.370300       0.855889
    10840.108400       0.859583
    10851.871900       0.863225
    10863.661100       0.866817
    10875.475800       0.870357
    10887.316300       0.873846
    10899.182600       0.877283
    10911.074700       0.880670
    10922.992900       0.884005
    10934.937100       0.887289
    10946.907500       0.890522
    10958.904100       0.893704
    10970.927000       0.896835
    10982.976400       0.899914
    10995.052200       0.902943
    11007.154700       0.905921
    11019.283700       0.908848
    11031.439600       0.911724
    11043.622300       0.914550
    11055.832000       0.917326
    11068.068600       0.920051
    11080.332400       0.922726
    11092.623400       0.925350
    11104.941700       0.927925
    11117.287400       0.930450
    11129.660500       0.932926
    11142.061300       0.935352
    11154.489700       0.937729
    11166.945800       0.940057
    11179.429800       0.942335
    11191.941800       0.944566
    11204.481800       0.946747
    11217.049900       0.948881
    11229.646300       0.950966
    11242.270900       0.953004
    11254.924000       0.954994
    11267.605600       0.956936
    11280.315800       0.958832
    11293.054800       0.960680
    11305.822500       0.962482
    11318.619100       0.964237
    11331.444800       0.965947
    11344.299500       0.967610
    11357.183400       0.969228
    11370.096600       0.970800
    11383.039300       0.972328
    11396.011400       0.973811
    11409.013100       0.975249
    11422.044500       0.976643
    11435.105800       0.977993
    11448.196900       0.979299
    11461.318100       0.980562
    11474.469300       0.981782
    11487.650800       0.982959
    11500.862600       0.984094
    11514.104800       0.985187
    11527.377500       0.986238
    11540.680900       0.987248
    11554.015000       0.988216
    11567.380000       0.989143
    11580.775900       0.990030
    11594.202900       0.990877
    11607.661100       0.991684
    11621.150500       0.992451
    11634.671300       0.993179
    11648.223600       0.993868
    11661.807600       0.994518
    11675.423200       0.995130
    11689.070700       0.995704
    11702.750100       0.996241
    11716.461600       0.996740
    11730.205300       0.997202
    11743.981200       0.997628
    11757.789500       0.998018
    11771.630400       0.998371
    11785.503800       0.998689
    11799.410000       0.998971
    11813.349100       0.999219
    11827.321100       0.999432
    11841.326200       0.999610
    11855.364600       0.999755
    11869.436200       0.999866
    11883.541300       0.999943
    11897.680000       0.999988
    11911.852300       1.000000
    11926.058400       0.999980
    11940.298500       0.999927
    11954.572600       0.999843
    11968.880900       0.999728
    11983.223500       0.999581
    11997.600500       0.999404
    12012.012000       0.999196
    12026.458200       0.998959
    12040.939200       0.998691
    12055.455100       0.998394
    12070.006000       0.998068
    12084.592100       0.997713
    12099.213600       0.997330
    12113.870400       0.996918
    12128.562800       0.996478
    12143.290800       0.996011
    12158.054700       0.995516
    12172.854500       0.994995
    12187.690400       0.994446
    12202.562500       0.993872
    12217.471000       0.993271
    12232.415900       0.992644
    12247.397400       0.991992
    12262.415700       0.991314
    12277.470800       0.990611
    12292.563000       0.989884
    12307.692300       0.989132
    12322.858900       0.988356
    12338.062900       0.987556
    12353.304500       0.986733
    12368.583800       0.985886
    12383.900900       0.985016
    12399.256000       0.984123
    12414.649300       0.983208
    12430.080800       0.982270
    12445.550700       0.981310
    12461.059200       0.980329
    12476.606400       0.979325
    12492.192400       0.978301
    12507.817400       0.977255
    12523.481500       0.976188
    12539.185000       0.975101
    12554.927800       0.973994
    12570.710200       0.972866
    12586.532400       0.971718
    12602.394500       0.970551
    12618.296500       0.969364
    12634.238800       0.968157
    12650.221400       0.966932
    12666.244500       0.965688
    12682.308200       0.964425
    12698.412700       0.963143
    12714.558200       0.961844
    12730.744700       0.960526
    12746.972600       0.959191
    12763.241900       0.957837
    12779.552700       0.956467
    12795.905300       0.955078
    12812.299800       0.953673
    12828.736400       0.952251
    12845.215200       0.950812
    12861.736300       0.949357
    12878.300100       0.947885
    12894.906500       0.946397
    12911.555800       0.944893
    12928.248200       0.943373
    12944.983800       0.941837
    12961.762800       0.940286
    12978.585300       0.938719
    12995.451600       0.937137
    13012.361700       0.935539
    13029.316000       0.933927
    13046.314400       0.932300
    13063.357300       0.930658
    13080.444700       0.929002
    13097.576900       0.927331
    13114.754100       0.925646
    13131.976400       0.923947
    13149.243900       0.922233
    13166.556900       0.920506
    13183.915600       0.918765
    13201.320100       0.917010
    13218.770700       0.915242
    13236.267400       0.913460
    13253.810500       0.911665
    13271.400100       0.909857
    13289.036500       0.908036
    13306.719900       0.906202
    13324.450400       0.904355
    13342.228200       0.902495
    13360.053400       0.900623
    13377.926400       0.898738
    13395.847300       0.896840
    13413.816200       0.894930
    13431.833400       0.893008
    13449.899100       0.891074
    13468.013500       0.889127
    13486.176700       0.887169
    13504.388900       0.885199
    13522.650400       0.883217
    13540.961400       0.881223
    13559.322000       0.879218
    13577.732500       0.877201
    13596.193100       0.875172
    13614.703900       0.873132
    13633.265200       0.871081
    13651.877100       0.869019
    13670.540000       0.866945
    13689.253900       0.864861
    13708.019200       0.862765
    13726.836000       0.860658
    13745.704500       0.858541
    13764.624900       0.856413
    13783.597500       0.854274
    13802.622500       0.852124
    13821.700100       0.849964
    13840.830400       0.847793
    13860.013900       0.845612
    13879.250500       0.843421
    13898.540700       0.841219
    13917.884500       0.839007
    13937.282200       0.836784
    13956.734100       0.834552
    13976.240400       0.832310
    13995.801300       0.830057
    14015.417000       0.827795
    14035.087700       0.825523
    14054.813800       0.823241
    14074.595400       0.820949
    14094.432700       0.818648
    14114.326000       0.816337
    14134.275600       0.814017
    14154.281700       0.811687
    14174.344400       0.809348
    14194.464200       0.806999
    14214.641100       0.804641
    14234.875400       0.802274
    14255.167500       0.799898
    14275.517500       0.797512
    14295.925700       0.795118
    14316.392300       0.792714
    14336.917600       0.790302
    14357.501800       0.787881
    14378.145200       0.785452
    14398.848100       0.783013
    14419.610700       0.780566
    14440.433200       0.778110
    14461.316000       0.775646
    14482.259200       0.773174
    14503.263200       0.770693
    14524.328200       0.768203
    14545.454500       0.765706
    14566.642400       0.763201
    14587.892000       0.760687
    14609.203800       0.758166
    14630.577900       0.755636
    14652.014700       0.753099
    14673.514300       0.750554
    14695.077100       0.748001
    14716.703500       0.745441
    14738.393500       0.742873
    14760.147600       0.740298
    14781.966000       0.737716
    14803.849000       0.735126
    14825.796900       0.732529
    14847.809900       0.729925
    14869.888500       0.727314
    14892.032800       0.724696
    14914.243100       0.722071
    14936.519800       0.719439
    14958.863100       0.716801
    14981.273400       0.714156
    15003.750900       0.711505
    15026.296000       0.708847
    15048.909000       0.706184
    15071.590100       0.703514
    15094.339600       0.700838
    15117.158000       0.698155
    15140.045400       0.695467
    15163.002300       0.692774
    15186.028900       0.690074
    15209.125500       0.687370
    15232.292500       0.684659
    15255.530100       0.681943
    15278.838800       0.679222
    15302.218800       0.676496
    15325.670500       0.673765
    15349.194200       0.671029
    15372.790200       0.668288
    15396.458800       0.665543
    15420.200500       0.662793
    15444.015400       0.660039
    15467.904100       0.657280
    15491.866800       0.654517
    15515.903800       0.651750
    15540.015500       0.648979
    15564.202300       0.646204
    15588.464500       0.643426
    15612.802500       0.640644
    15637.216600       0.637858
    15661.707100       0.635069
    15686.274500       0.632277
    15710.919100       0.629483
    15735.641200       0.626685
    15760.441300       0.623884
    15785.319700       0.621080
    15810.276700       0.618275
    15835.312700       0.615466
    15860.428200       0.612656
    15885.623500       0.609843
    15910.899000       0.607029
    15936.255000       0.604213
    15961.691900       0.601395
    15987.210200       0.598575
    16012.810200       0.595754
    16038.492400       0.592932
    16064.257000       0.590108
    16090.104600       0.587284
    16116.035500       0.584459
    16142.050000       0.581633
    16168.148700       0.578807
    16194.332000       0.575980
    16220.600200       0.573154
    16246.953700       0.570327
    16273.393000       0.567500
    16299.918500       0.564673
    16326.530600       0.561847
    16353.229800       0.559021
    16380.016400       0.556196
    16406.890900       0.553371
    16433.853700       0.550548
    16460.905300       0.547726
    16488.046200       0.544905
    16515.276600       0.542085
    16542.597200       0.539267
    16570.008300       0.536451
    16597.510400       0.533637
    16625.103900       0.530824
    16652.789300       0.528014
    16680.567100       0.525206
    16708.437800       0.522401
    16736.401700       0.519598
    16764.459300       0.516798
    16792.611300       0.514000
    16820.857900       0.511206
    16849.199700       0.508415
    16877.637100       0.505627
    16906.170800       0.502843
    16934.801000       0.500063
    16963.528400       0.497286
    16992.353400       0.494513
    17021.276600       0.491744
    17050.298400       0.488979
    17079.419300       0.486219
    17108.639900       0.483463
    17137.960600       0.480711
    17167.382000       0.477964
    17196.904600       0.475222
    17226.528900       0.472486
    17256.255400       0.469754
    17286.084700       0.467027
    17316.017300       0.464306
    17346.053800       0.461590
    17376.194600       0.458880
    17406.440400       0.456175
    17436.791600       0.453477
    17467.248900       0.450784
    17497.812800       0.448097
    17528.483800       0.445417
    17559.262500       0.442743
    17590.149500       0.440075
    17621.145400       0.437413
    17652.250700       0.434759
    17683.466000       0.432111
    17714.791900       0.429469
    17746.228900       0.426835
    17777.777800       0.424207
    17809.439000       0.421587
    17841.213200       0.418974
    17873.101000       0.416368
    17905.103000       0.413769
    17937.219700       0.411178
    17969.451900       0.408594
    18001.800200       0.406017
    18034.265100       0.403449
    18066.847300       0.400888
    18099.547500       0.398334
    18132.366300       0.395789
    18165.304300       0.393251
    18198.362100       0.390721
    18231.540600       0.388199
    18264.840200       0.385685
    18298.261700       0.383179
    18331.805700       0.380681
    18365.472900       0.378191
    18399.264000       0.375710
    18433.179700       0.373236
    18467.220700       0.370771
    18501.387600       0.368313
    18535.681200       0.365864
    18570.102100       0.363424
    18604.651200       0.360991
    18639.329000       0.358567
    18674.136300       0.356150
    18709.073900       0.353743
    18744.142500       0.351343
    18779.342700       0.348951
    18814.675400       0.346568
    18850.141400       0.344193
    18885.741300       0.341826
    18921.475900       0.339467
    18957.346000       0.337116
    18993.352300       0.334773
    19029.495700       0.332438
    19065.776900       0.330111
    19102.196800       0.327792
    19138.756000       0.325481
    19175.455400       0.323178
    19212.295900       0.320882
    19249.278200       0.318594
    19286.403100       0.316313
    19323.671500       0.314040
    19361.084200       0.311775
    19398.642100       0.309517
    19436.346000       0.307266
    19474.196700       0.305022
    19512.195100       0.302785
    19550.342100       0.300555
    19588.638600       0.298332
    19627.085400       0.296116
    19665.683400       0.293906
    19704.433500       0.291703
    19743.336600       0.289507
    19782.393700       0.287316
    19821.605600       0.285132
    19860.973200       0.282954
    19900.497500       0.280781
    19940.179500       0.278615
    19980.020000       0.276453
    20020.020000       0.274298
    20060.180500       0.272147
    20100.502500       0.270002
    20140.986900       0.267862
    20181.634700       0.265726
    20222.446900       0.263595
    20263.424500       0.261469
    20304.568500       0.259347
    20345.880000       0.257229
    20387.359800       0.255115
    20429.009200       0.253004
    20470.829100       0.250898
    20512.820500       0.248794
    20554.984600       0.246694
    20597.322300       0.244597
    20639.834900       0.242503
    20682.523300       0.240411
    20725.388600       0.238322
    20768.432000       0.236235
    20811.654500       0.234149
    20855.057400       0.232066
    20898.641600       0.229984
    20942.408400       0.227904
    20986.358900       0.225825
    21030.494200       0.223747
    21074.815600       0.221669
    21119.324200       0.219593
    21164.021200       0.217516
    21208.907700       0.215440
    21253.985100       0.213363
    21299.254500       0.211286
    21344.717200       0.209209
    21390.374300       0.207131
    21436.227200       0.205052
    21482.277100       0.202971
    21528.525300       0.200890
    21574.973000       0.198806
    21621.621600       0.196721
    21668.472400       0.194634
    21715.526600       0.192545
    21762.785600       0.190453
    21810.250800       0.188359
    21857.923500       0.186262
    21905.805000       0.184161
    21953.896800       0.182058
    22002.200200       0.179951
    22050.716600       0.177840
    22099.447500       0.175726
    22148.394200       0.173607
    22197.558300       0.171485
    22246.941000       0.169358
    22296.544000       0.167226
    22346.368700       0.165090
    22396.416600       0.162949
    22446.689100       0.160803
    22497.187900       0.158651
    22547.914300       0.156495
    22598.870100       0.154332
    22650.056600       0.152165
    22701.475600       0.149991
    22753.128600       0.147812
    22805.017100       0.145627
    22857.142900       0.143436
    22909.507400       0.141238
    22962.112500       0.139035
    23014.959700       0.136825
    23068.050700       0.134608
    23121.387300       0.132386
    23174.971000       0.130156
    23228.803700       0.127921
    23282.887100       0.125678
    23337.222900       0.123429
    23391.812900       0.121174
    23446.658900       0.118912
    23501.762600       0.116643
    23557.126000       0.114368
    23612.750900       0.112087
    23668.639100       0.109799
    23724.792400       0.107504
    23781.212800       0.105204
    23837.902300       0.102897
    23894.862600       0.100584
    23952.095800       0.098265
    24009.603800       0.095941
    24067.388700       0.093611
    24125.452400       0.091275
    24183.796900       0.088934
    24242.424200       0.086589
    24301.336600       0.084238
    24360.535900       0.081883
    24420.024400       0.079524
    24479.804200       0.077160
    24539.877300       0.074793
    24600.246000       0.072423
    24660.912500       0.070050
    24721.878900       0.067674
    24783.147500       0.065296
    24844.720500       0.062916
    24906.600200       0.060535
    24968.789000       0.058153
    25031.289100       0.055771
    25094.102900       0.053389
    25157.232700       0.051007
    25220.681000       0.048627
    25284.450100       0.046248
    25348.542500       0.043872
    25412.960600       0.041499
    25477.707000       0.039130
