112,   112, MVIRI VIS channel from srf_MET7_2011213_2011214_1801-Release_S10EE_10.dat
Number of data points:
793
Wavenumber (cm-1)   Filter response
     8442.380800       0.000000
     8449.514200       0.000000
     8456.659600       0.000004
     8463.817200       0.000056
     8470.986900       0.000167
     8478.168700       0.000334
     8485.362700       0.000555
     8492.569000       0.000830
     8499.787500       0.001157
     8507.018300       0.001534
     8514.261400       0.001959
     8521.516800       0.002432
     8528.784600       0.002951
     8536.064900       0.003514
     8543.357500       0.004121
     8550.662700       0.004770
     8557.980300       0.005461
     8565.310500       0.006191
     8572.653200       0.006960
     8580.008600       0.007767
     8587.376600       0.008610
     8594.757200       0.009490
     8602.150500       0.010405
     8609.556600       0.011354
     8616.975400       0.012335
     8624.407100       0.013350
     8631.851500       0.014397
     8639.308900       0.015474
     8646.779100       0.016581
     8654.262200       0.017719
     8661.758300       0.018885
     8669.267400       0.020080
     8676.789600       0.021302
     8684.324800       0.022552
     8691.873100       0.023829
     8699.434500       0.025132
     8707.009100       0.026460
     8714.596900       0.027814
     8722.198000       0.029193
     8729.812300       0.030597
     8737.439900       0.032025
     8745.080900       0.033477
     8752.735200       0.034952
     8760.403000       0.036450
     8768.084200       0.037972
     8775.778900       0.039516
     8783.487000       0.041083
     8791.208800       0.042672
     8798.944100       0.044283
     8806.693100       0.045916
     8814.455700       0.047570
     8822.232000       0.049246
     8830.022100       0.050944
     8837.825900       0.052663
     8845.643500       0.054403
     8853.475000       0.056164
     8861.320300       0.057946
     8869.179600       0.059749
     8877.052800       0.061573
     8884.940000       0.063417
     8892.841300       0.065283
     8900.756600       0.067169
     8908.686000       0.069076
     8916.629500       0.071003
     8924.587200       0.072952
     8932.559200       0.074921
     8940.545400       0.076910
     8948.545900       0.078921
     8956.560700       0.080952
     8964.589900       0.083004
     8972.633500       0.085077
     8980.691500       0.087171
     8988.764000       0.089286
     8996.851100       0.091422
     9004.952700       0.093579
     9013.068900       0.095757
     9021.199800       0.097957
     9029.345400       0.100178
     9037.505600       0.102420
     9045.680700       0.104684
     9053.870500       0.106969
     9062.075200       0.109276
     9070.294800       0.111605
     9078.529300       0.113955
     9086.778700       0.116327
     9095.043200       0.118722
     9103.322700       0.121138
     9111.617300       0.123576
     9119.927000       0.126037
     9128.251900       0.128520
     9136.592100       0.131026
     9144.947400       0.133554
     9153.318100       0.136105
     9161.704100       0.138678
     9170.105500       0.141274
     9178.522300       0.143893
     9186.954500       0.146535
     9195.402300       0.149200
     9203.865600       0.151888
     9212.344500       0.154599
     9220.839100       0.157333
     9229.349300       0.160091
     9237.875300       0.162872
     9246.417000       0.165676
     9254.974500       0.168504
     9263.547900       0.171355
     9272.137200       0.174230
     9280.742500       0.177128
     9289.363700       0.180050
     9298.000900       0.182996
     9306.654300       0.185965
     9315.323700       0.188958
     9324.009300       0.191975
     9332.711200       0.195016
     9341.429200       0.198080
     9350.163600       0.201168
     9358.914400       0.204280
     9367.681500       0.207415
     9376.465100       0.210575
     9385.265100       0.213757
     9394.081700       0.216964
     9402.914900       0.220194
     9411.764700       0.223448
     9420.631200       0.226726
     9429.514400       0.230026
     9438.414300       0.233351
     9447.331100       0.236699
     9456.264800       0.240070
     9465.215300       0.243465
     9474.182900       0.246882
     9483.167400       0.250323
     9492.169000       0.253786
     9501.187600       0.257273
     9510.223500       0.260783
     9519.276500       0.264315
     9528.346800       0.267870
     9537.434400       0.271447
     9546.539400       0.275046
     9555.661700       0.278668
     9564.801500       0.282312
     9573.958800       0.285977
     9583.133700       0.289665
     9592.326100       0.293374
     9601.536200       0.297104
     9610.764100       0.300855
     9620.009600       0.304628
     9629.273000       0.308422
     9638.554200       0.312236
     9647.853400       0.316071
     9657.170400       0.319925
     9666.505600       0.323800
     9675.858700       0.327695
     9685.230000       0.331609
     9694.619500       0.335543
     9704.027200       0.339496
     9713.453100       0.343467
     9722.897400       0.347458
     9732.360100       0.351466
     9741.841200       0.355493
     9751.340800       0.359537
     9760.859000       0.363600
     9770.395700       0.367679
     9779.951100       0.371775
     9789.525200       0.375889
     9799.118100       0.380018
     9808.729800       0.384163
     9818.360300       0.388325
     9828.009800       0.392501
     9837.678300       0.396693
     9847.365800       0.400900
     9857.072400       0.405121
     9866.798200       0.409357
     9876.543200       0.413606
     9886.307500       0.417868
     9896.091000       0.422144
     9905.894000       0.426432
     9915.716400       0.430733
     9925.558300       0.435046
     9935.419800       0.439370
     9945.300800       0.443706
     9955.201600       0.448052
     9965.122100       0.452410
     9975.062300       0.456777
     9985.022500       0.461154
     9995.002500       0.465540
    10005.002500       0.469935
    10015.022500       0.474339
    10025.062700       0.478751
    10035.122900       0.483170
    10045.203400       0.487597
    10055.304200       0.492030
    10065.425300       0.496470
    10075.566800       0.500916
    10085.728700       0.505368
    10095.911200       0.509825
    10106.114200       0.514286
    10116.337900       0.518752
    10126.582300       0.523221
    10136.847400       0.527694
    10147.133400       0.532170
    10157.440300       0.536648
    10167.768200       0.541129
    10178.117000       0.545611
    10188.487000       0.550094
    10198.878100       0.554578
    10209.290500       0.559061
    10219.724100       0.563545
    10230.179000       0.568028
    10240.655400       0.572510
    10251.153300       0.576990
    10261.672700       0.581468
    10272.213700       0.585944
    10282.776300       0.590416
    10293.360800       0.594885
    10303.967000       0.599350
    10314.595200       0.603810
    10325.245200       0.608266
    10335.917300       0.612716
    10346.611500       0.617160
    10357.327800       0.621598
    10368.066400       0.626029
    10378.827200       0.630452
    10389.610400       0.634868
    10400.416000       0.639276
    10411.244100       0.643675
    10422.094800       0.648064
    10432.968200       0.652444
    10443.864200       0.656814
    10454.783100       0.661173
    10465.724800       0.665521
    10476.689400       0.669857
    10487.677000       0.674182
    10498.687700       0.678494
    10509.721500       0.682793
    10520.778500       0.687078
    10531.858900       0.691349
    10542.962600       0.695607
    10554.089700       0.699849
    10565.240400       0.704076
    10576.414600       0.708287
    10587.612500       0.712482
    10598.834100       0.716660
    10610.079600       0.720822
    10621.348900       0.724965
    10632.642200       0.729091
    10643.959600       0.733198
    10655.301000       0.737286
    10666.666700       0.741355
    10678.056600       0.745404
    10689.470900       0.749432
    10700.909600       0.753441
    10712.372800       0.757428
    10723.860600       0.761393
    10735.373100       0.765336
    10746.910300       0.769258
    10758.472300       0.773156
    10770.059200       0.777031
    10781.671200       0.780883
    10793.308100       0.784710
    10804.970300       0.788514
    10816.657700       0.792292
    10828.370300       0.796045
    10840.108400       0.799773
    10851.871900       0.803474
    10863.661100       0.807149
    10875.475800       0.810798
    10887.316300       0.814419
    10899.182600       0.818013
    10911.074700       0.821579
    10922.992900       0.825117
    10934.937100       0.828626
    10946.907500       0.832107
    10958.904100       0.835558
    10970.927000       0.838979
    10982.976400       0.842371
    10995.052200       0.845732
    11007.154700       0.849063
    11019.283700       0.852362
    11031.439600       0.855631
    11043.622300       0.858868
    11055.832000       0.862073
    11068.068600       0.865246
    11080.332400       0.868387
    11092.623400       0.871494
    11104.941700       0.874569
    11117.287400       0.877611
    11129.660500       0.880619
    11142.061300       0.883593
    11154.489700       0.886533
    11166.945800       0.889438
    11179.429800       0.892310
    11191.941800       0.895146
    11204.481800       0.897947
    11217.049900       0.900713
    11229.646300       0.903443
    11242.270900       0.906138
    11254.924000       0.908796
    11267.605600       0.911419
    11280.315800       0.914005
    11293.054800       0.916554
    11305.822500       0.919067
    11318.619100       0.921543
    11331.444800       0.923982
    11344.299500       0.926383
    11357.183400       0.928747
    11370.096600       0.931074
    11383.039300       0.933363
    11396.011400       0.935614
    11409.013100       0.937826
    11422.044500       0.940001
    11435.105800       0.942138
    11448.196900       0.944236
    11461.318100       0.946295
    11474.469300       0.948316
    11487.650800       0.950298
    11500.862600       0.952242
    11514.104800       0.954146
    11527.377500       0.956012
    11540.680900       0.957839
    11554.015000       0.959627
    11567.380000       0.961375
    11580.775900       0.963084
    11594.202900       0.964754
    11607.661100       0.966385
    11621.150500       0.967977
    11634.671300       0.969529
    11648.223600       0.971042
    11661.807600       0.972516
    11675.423200       0.973950
    11689.070700       0.975346
    11702.750100       0.976701
    11716.461600       0.978018
    11730.205300       0.979295
    11743.981200       0.980533
    11757.789500       0.981732
    11771.630400       0.982892
    11785.503800       0.984013
    11799.410000       0.985094
    11813.349100       0.986137
    11827.321100       0.987141
    11841.326200       0.988106
    11855.364600       0.989032
    11869.436200       0.989920
    11883.541300       0.990769
    11897.680000       0.991580
    11911.852300       0.992353
    11926.058400       0.993087
    11940.298500       0.993783
    11954.572600       0.994442
    11968.880900       0.995062
    11983.223500       0.995645
    11997.600500       0.996191
    12012.012000       0.996699
    12026.458200       0.997170
    12040.939200       0.997604
    12055.455100       0.998002
    12070.006000       0.998362
    12084.592100       0.998687
    12099.213600       0.998975
    12113.870400       0.999227
    12128.562800       0.999443
    12143.290800       0.999623
    12158.054700       0.999769
    12172.854500       0.999879
    12187.690400       0.999954
    12202.562500       0.999994
    12217.471000       1.000000
    12232.415900       0.999972
    12247.397400       0.999910
    12262.415700       0.999814
    12277.470800       0.999684
    12292.563000       0.999522
    12307.692300       0.999327
    12322.858900       0.999099
    12338.062900       0.998838
    12353.304500       0.998546
    12368.583800       0.998222
    12383.900900       0.997867
    12399.256000       0.997480
    12414.649300       0.997063
    12430.080800       0.996615
    12445.550700       0.996137
    12461.059200       0.995630
    12476.606400       0.995092
    12492.192400       0.994526
    12507.817400       0.993931
    12523.481500       0.993307
    12539.185000       0.992655
    12554.927800       0.991976
    12570.710200       0.991268
    12586.532400       0.990534
    12602.394500       0.989774
    12618.296500       0.988986
    12634.238800       0.988173
    12650.221400       0.987335
    12666.244500       0.986471
    12682.308200       0.985582
    12698.412700       0.984669
    12714.558200       0.983732
    12730.744700       0.982771
    12746.972600       0.981787
    12763.241900       0.980780
    12779.552700       0.979751
    12795.905300       0.978700
    12812.299800       0.977627
    12828.736400       0.976533
    12845.215200       0.975418
    12861.736300       0.974282
    12878.300100       0.973127
    12894.906500       0.971953
    12911.555800       0.970759
    12928.248200       0.969546
    12944.983800       0.968315
    12961.762800       0.967067
    12978.585300       0.965801
    12995.451600       0.964518
    13012.361700       0.963219
    13029.316000       0.961903
    13046.314400       0.960572
    13063.357300       0.959226
    13080.444700       0.957865
    13097.576900       0.956490
    13114.754100       0.955100
    13131.976400       0.953698
    13149.243900       0.952283
    13166.556900       0.950855
    13183.915600       0.949415
    13201.320100       0.947963
    13218.770700       0.946500
    13236.267400       0.945027
    13253.810500       0.943543
    13271.400100       0.942050
    13289.036500       0.940547
    13306.719900       0.939035
    13324.450400       0.937515
    13342.228200       0.935987
    13360.053400       0.934451
    13377.926400       0.932909
    13395.847300       0.931359
    13413.816200       0.929804
    13431.833400       0.928243
    13449.899100       0.926676
    13468.013500       0.925105
    13486.176700       0.923529
    13504.388900       0.921949
    13522.650400       0.920366
    13540.961400       0.918780
    13559.322000       0.917191
    13577.732500       0.915600
    13596.193100       0.914008
    13614.703900       0.912414
    13633.265200       0.910819
    13651.877100       0.909224
    13670.540000       0.907629
    13689.253900       0.906034
    13708.019200       0.904440
    13726.836000       0.902847
    13745.704500       0.901256
    13764.624900       0.899667
    13783.597500       0.898081
    13802.622500       0.896498
    13821.700100       0.894918
    13840.830400       0.893341
    13860.013900       0.891769
    13879.250500       0.890202
    13898.540700       0.888639
    13917.884500       0.887082
    13937.282200       0.885531
    13956.734100       0.883986
    13976.240400       0.882447
    13995.801300       0.880915
    14015.417000       0.879390
    14035.087700       0.877874
    14054.813800       0.876365
    14074.595400       0.874864
    14094.432700       0.873372
    14114.326000       0.871890
    14134.275600       0.870416
    14154.281700       0.868953
    14174.344400       0.867499
    14194.464200       0.866056
    14214.641100       0.864624
    14234.875400       0.863203
    14255.167500       0.861793
    14275.517500       0.860395
    14295.925700       0.859009
    14316.392300       0.857635
    14336.917600       0.856274
    14357.501800       0.854926
    14378.145200       0.853592
    14398.848100       0.852270
    14419.610700       0.850962
    14440.433200       0.849669
    14461.316000       0.848389
    14482.259200       0.847125
    14503.263200       0.845875
    14524.328200       0.844640
    14545.454500       0.843420
    14566.642400       0.842216
    14587.892000       0.841027
    14609.203800       0.839854
    14630.577900       0.838698
    14652.014700       0.837558
    14673.514300       0.836434
    14695.077100       0.835327
    14716.703500       0.834237
    14738.393500       0.833164
    14760.147600       0.832108
    14781.966000       0.831070
    14803.849000       0.830049
    14825.796900       0.829046
    14847.809900       0.828061
    14869.888500       0.827093
    14892.032800       0.826144
    14914.243100       0.825213
    14936.519800       0.824300
    14958.863100       0.823406
    14981.273400       0.822530
    15003.750900       0.821672
    15026.296000       0.820834
    15048.909000       0.820014
    15071.590100       0.819212
    15094.339600       0.818430
    15117.158000       0.817666
    15140.045400       0.816921
    15163.002300       0.816195
    15186.028900       0.815488
    15209.125500       0.814800
    15232.292500       0.814130
    15255.530100       0.813480
    15278.838800       0.812849
    15302.218800       0.812236
    15325.670500       0.811642
    15349.194200       0.811067
    15372.790200       0.810511
    15396.458800       0.809973
    15420.200500       0.809454
    15444.015400       0.808953
    15467.904100       0.808470
    15491.866800       0.808006
    15515.903800       0.807561
    15540.015500       0.807133
    15564.202300       0.806723
    15588.464500       0.806331
    15612.802500       0.805956
    15637.216600       0.805600
    15661.707100       0.805260
    15686.274500       0.804938
    15710.919100       0.804632
    15735.641200       0.804344
    15760.441300       0.804072
    15785.319700       0.803816
    15810.276700       0.803577
    15835.312700       0.803353
    15860.428200       0.803145
    15885.623500       0.802953
    15910.899000       0.802776
    15936.255000       0.802614
    15961.691900       0.802466
    15987.210200       0.802333
    16012.810200       0.802214
    16038.492400       0.802109
    16064.257000       0.802017
    16090.104600       0.801938
    16116.035500       0.801873
    16142.050000       0.801819
    16168.148700       0.801778
    16194.332000       0.801749
    16220.600200       0.801731
    16246.953700       0.801724
    16273.393000       0.801728
    16299.918500       0.801743
    16326.530600       0.801767
    16353.229800       0.801800
    16380.016400       0.801843
    16406.890900       0.801894
    16433.853700       0.801954
    16460.905300       0.802021
    16488.046200       0.802096
    16515.276600       0.802177
    16542.597200       0.802265
    16570.008300       0.802359
    16597.510400       0.802458
    16625.103900       0.802562
    16652.789300       0.802671
    16680.567100       0.802784
    16708.437800       0.802900
    16736.401700       0.803019
    16764.459300       0.803140
    16792.611300       0.803263
    16820.857900       0.803388
    16849.199700       0.803513
    16877.637100       0.803638
    16906.170800       0.803763
    16934.801000       0.803887
    16963.528400       0.804009
    16992.353400       0.804130
    17021.276600       0.804247
    17050.298400       0.804361
    17079.419300       0.804472
    17108.639900       0.804577
    17137.960600       0.804678
    17167.382000       0.804772
    17196.904600       0.804860
    17226.528900       0.804941
    17256.255400       0.805015
    17286.084700       0.805080
    17316.017300       0.805135
    17346.053800       0.805181
    17376.194600       0.805217
    17406.440400       0.805242
    17436.791600       0.805254
    17467.248900       0.805255
    17497.812800       0.805242
    17528.483800       0.805216
    17559.262500       0.805174
    17590.149500       0.805118
    17621.145400       0.805046
    17652.250700       0.804957
    17683.466000       0.804850
    17714.791900       0.804726
    17746.228900       0.804583
    17777.777800       0.804420
    17809.439000       0.804237
    17841.213200       0.804033
    17873.101000       0.803807
    17905.103000       0.803559
    17937.219700       0.803287
    17969.451900       0.802992
    18001.800200       0.802672
    18034.265100       0.802326
    18066.847300       0.801954
    18099.547500       0.801555
    18132.366300       0.801129
    18165.304300       0.800674
    18198.362100       0.800190
    18231.540600       0.799676
    18264.840200       0.799131
    18298.261700       0.798555
    18331.805700       0.797946
    18365.472900       0.797304
    18399.264000       0.796629
    18433.179700       0.795920
    18467.220700       0.795175
    18501.387600       0.794394
    18535.681200       0.793576
    18570.102100       0.792721
    18604.651200       0.791828
    18639.329000       0.790895
    18674.136300       0.789924
    18709.073900       0.788911
    18744.142500       0.787858
    18779.342700       0.786762
    18814.675400       0.785624
    18850.141400       0.784443
    18885.741300       0.783218
    18921.475900       0.781948
    18957.346000       0.780632
    18993.352300       0.779270
    19029.495700       0.777862
    19065.776900       0.776406
    19102.196800       0.774901
    19138.756000       0.773348
    19175.455400       0.771745
    19212.295900       0.770092
    19249.278200       0.768388
    19286.403100       0.766633
    19323.671500       0.764825
    19361.084200       0.762965
    19398.642100       0.761051
    19436.346000       0.759083
    19474.196700       0.757060
    19512.195100       0.754982
    19550.342100       0.752849
    19588.638600       0.750658
    19627.085400       0.748411
    19665.683400       0.746107
    19704.433500       0.743744
    19743.336600       0.741323
    19782.393700       0.738842
    19821.605600       0.736302
    19860.973200       0.733702
    19900.497500       0.731041
    19940.179500       0.728319
    19980.020000       0.725536
    20020.020000       0.722690
    20060.180500       0.719783
    20100.502500       0.716812
    20140.986900       0.713778
    20181.634700       0.710681
    20222.446900       0.707520
    20263.424500       0.704295
    20304.568500       0.701005
    20345.880000       0.697650
    20387.359800       0.694230
    20429.009200       0.690744
    20470.829100       0.687193
    20512.820500       0.683575
    20554.984600       0.679892
    20597.322300       0.676142
    20639.834900       0.672326
    20682.523300       0.668443
    20725.388600       0.664493
    20768.432000       0.660476
    20811.654500       0.656393
    20855.057400       0.652242
    20898.641600       0.648024
    20942.408400       0.643738
    20986.358900       0.639386
    21030.494200       0.634967
    21074.815600       0.630480
    21119.324200       0.625927
    21164.021200       0.621306
    21208.907700       0.616619
    21253.985100       0.611865
    21299.254500       0.607045
    21344.717200       0.602159
    21390.374300       0.597206
    21436.227200       0.592189
    21482.277100       0.587105
    21528.525300       0.581957
    21574.973000       0.576743
    21621.621600       0.571466
    21668.472400       0.566124
    21715.526600       0.560720
    21762.785600       0.555252
    21810.250800       0.549721
    21857.923500       0.544129
    21905.805000       0.538476
    21953.896800       0.532762
    22002.200200       0.526987
    22050.716600       0.521154
    22099.447500       0.515261
    22148.394200       0.509311
    22197.558300       0.503304
    22246.941000       0.497240
    22296.544000       0.491121
    22346.368700       0.484948
    22396.416600       0.478721
    22446.689100       0.472441
    22497.187900       0.466110
    22547.914300       0.459728
    22598.870100       0.453297
    22650.056600       0.446818
    22701.475600       0.440292
    22753.128600       0.433720
    22805.017100       0.427103
    22857.142900       0.420443
    22909.507400       0.413742
    22962.112500       0.407000
    23014.959700       0.400219
    23068.050700       0.393400
    23121.387300       0.386546
    23174.971000       0.379657
    23228.803700       0.372735
    23282.887100       0.365783
    23337.222900       0.358801
    23391.812900       0.351792
    23446.658900       0.344757
    23501.762600       0.337698
    23557.126000       0.330617
    23612.750900       0.323517
    23668.639100       0.316399
    23724.792400       0.309265
    23781.212800       0.302117
    23837.902300       0.294958
    23894.862600       0.287790
    23952.095800       0.280615
    24009.603800       0.273436
    24067.388700       0.266255
    24125.452400       0.259074
    24183.796900       0.251896
    24242.424200       0.244724
    24301.336600       0.237560
    24360.535900       0.230407
    24420.024400       0.223267
    24479.804200       0.216144
    24539.877300       0.209041
    24600.246000       0.201960
    24660.912500       0.194905
    24721.878900       0.187878
    24783.147500       0.180882
    24844.720500       0.173922
    24906.600200       0.166999
    24968.789000       0.160118
    25031.289100       0.153282
    25094.102900       0.146494
    25157.232700       0.139759
    25220.681000       0.133078
    25284.450100       0.126457
    25348.542500       0.119898
    25412.960600       0.113407
    25477.707000       0.106986
