11,   channel 11 SRF from file SRF_SSH-1_Delivery_220520/SRF_DMSP-F1_SSH_Chan11.asc received June 2022 from SPASCIA
Number of data points:
285
Wavenumber (cm-1)   Filter response
      679.800000       0.001000
      679.900000       0.001100
      680.000000       0.001210
      680.100000       0.001330
      680.200000       0.001460
      680.300000       0.001610
      680.400000       0.001760
      680.500000       0.001940
      680.600000       0.002120
      680.700000       0.002330
      680.800000       0.002550
      680.900000       0.002790
      681.000000       0.003050
      681.100000       0.003330
      681.200000       0.003640
      681.300000       0.003970
      681.400000       0.004330
      681.500000       0.004720
      681.600000       0.005140
      681.700000       0.005600
      681.800000       0.006090
      681.900000       0.006620
      682.000000       0.007190
      682.100000       0.007800
      682.200000       0.008470
      682.300000       0.009180
      682.400000       0.009940
      682.500000       0.010760
      682.600000       0.011640
      682.700000       0.012580
      682.800000       0.013590
      682.900000       0.014670
      683.000000       0.015830
      683.100000       0.017060
      683.200000       0.018380
      683.300000       0.019780
      683.400000       0.021280
      683.500000       0.022880
      683.600000       0.024580
      683.700000       0.026390
      683.800000       0.028310
      683.900000       0.030350
      684.000000       0.032520
      684.100000       0.034820
      684.200000       0.037250
      684.300000       0.039820
      684.400000       0.042550
      684.500000       0.045430
      684.600000       0.048470
      684.700000       0.051680
      684.800000       0.055070
      684.900000       0.058630
      685.000000       0.062390
      685.100000       0.066340
      685.200000       0.070490
      685.300000       0.074850
      685.400000       0.079420
      685.500000       0.084220
      685.600000       0.089240
      685.700000       0.094500
      685.800000       0.100000
      685.900000       0.111590
      686.000000       0.123640
      686.100000       0.136160
      686.200000       0.149140
      686.300000       0.162580
      686.400000       0.176470
      686.500000       0.190800
      686.600000       0.205560
      686.700000       0.220730
      686.800000       0.236320
      686.900000       0.252300
      687.000000       0.268650
      687.100000       0.285360
      687.200000       0.302420
      687.300000       0.319790
      687.400000       0.337460
      687.500000       0.355410
      687.600000       0.373610
      687.700000       0.392030
      687.800000       0.410650
      687.900000       0.429450
      688.000000       0.448390
      688.100000       0.467440
      688.200000       0.486570
      688.300000       0.503640
      688.400000       0.515820
      688.500000       0.528070
      688.600000       0.540380
      688.700000       0.552750
      688.800000       0.565160
      688.900000       0.577600
      689.000000       0.590070
      689.100000       0.602550
      689.200000       0.615030
      689.300000       0.627510
      689.400000       0.639970
      689.500000       0.652400
      689.600000       0.664790
      689.700000       0.677130
      689.800000       0.689400
      689.900000       0.701600
      690.000000       0.713720
      690.100000       0.725730
      690.200000       0.737630
      690.300000       0.749420
      690.400000       0.761060
      690.500000       0.772570
      690.600000       0.783910
      690.700000       0.795080
      690.800000       0.806070
      690.900000       0.816870
      691.000000       0.827460
      691.100000       0.837830
      691.200000       0.847970
      691.300000       0.857870
      691.400000       0.867520
      691.500000       0.876910
      691.600000       0.886020
      691.700000       0.894850
      691.800000       0.903380
      691.900000       0.911610
      692.000000       0.919530
      692.100000       0.927120
      692.200000       0.934370
      692.300000       0.941290
      692.400000       0.947850
      692.500000       0.954060
      692.600000       0.959890
      692.700000       0.965360
      692.800000       0.970450
      692.900000       0.975140
      693.000000       0.979450
      693.100000       0.983360
      693.200000       0.986870
      693.300000       0.989960
      693.400000       0.992650
      693.500000       0.994930
      693.600000       0.996780
      693.700000       0.998220
      693.800000       0.999240
      693.900000       0.999830
      694.000000       1.000000
      694.100000       0.999740
      694.200000       0.999070
      694.300000       0.997970
      694.400000       0.996450
      694.500000       0.994500
      694.600000       0.992150
      694.700000       0.989380
      694.800000       0.986200
      694.900000       0.982610
      695.000000       0.978620
      695.100000       0.974240
      695.200000       0.969460
      695.300000       0.964300
      695.400000       0.958760
      695.500000       0.952840
      695.600000       0.946570
      695.700000       0.939930
      695.800000       0.932950
      695.900000       0.925630
      696.000000       0.917970
      696.100000       0.909990
      696.200000       0.901700
      696.300000       0.893110
      696.400000       0.884220
      696.500000       0.875050
      696.600000       0.865610
      696.700000       0.855910
      696.800000       0.845960
      696.900000       0.835770
      697.000000       0.825360
      697.100000       0.814720
      697.200000       0.803890
      697.300000       0.792860
      697.400000       0.781650
      697.500000       0.770280
      697.600000       0.758750
      697.700000       0.747070
      697.800000       0.735260
      697.900000       0.723340
      698.000000       0.711300
      698.100000       0.699170
      698.200000       0.686950
      698.300000       0.674660
      698.400000       0.662320
      698.500000       0.649920
      698.600000       0.637480
      698.700000       0.625020
      698.800000       0.612540
      698.900000       0.600050
      699.000000       0.587570
      699.100000       0.575110
      699.200000       0.562670
      699.300000       0.550270
      699.400000       0.537920
      699.500000       0.525620
      699.600000       0.513380
      699.700000       0.501210
      699.800000       0.482740
      699.900000       0.463620
      700.000000       0.444590
      700.100000       0.425680
      700.200000       0.406920
      700.300000       0.388330
      700.400000       0.369950
      700.500000       0.351800
      700.600000       0.333900
      700.700000       0.316290
      700.800000       0.298980
      700.900000       0.281990
      701.000000       0.265350
      701.100000       0.249070
      701.200000       0.233170
      701.300000       0.217670
      701.400000       0.202570
      701.500000       0.187900
      701.600000       0.173660
      701.700000       0.159860
      701.800000       0.146510
      701.900000       0.133620
      702.000000       0.121190
      702.100000       0.109230
      702.200000       0.098880
      702.300000       0.093430
      702.400000       0.088220
      702.500000       0.083240
      702.600000       0.078490
      702.700000       0.073960
      702.800000       0.069640
      702.900000       0.065530
      703.000000       0.061620
      703.100000       0.057910
      703.200000       0.054380
      703.300000       0.051030
      703.400000       0.047850
      703.500000       0.044840
      703.600000       0.041990
      703.700000       0.039300
      703.800000       0.036750
      703.900000       0.034350
      704.000000       0.032080
      704.100000       0.029930
      704.200000       0.027920
      704.300000       0.026020
      704.400000       0.024230
      704.500000       0.022550
      704.600000       0.020980
      704.700000       0.019500
      704.800000       0.018110
      704.900000       0.016810
      705.000000       0.015590
      705.100000       0.014450
      705.200000       0.013380
      705.300000       0.012390
      705.400000       0.011460
      705.500000       0.010590
      705.600000       0.009780
      705.700000       0.009030
      705.800000       0.008330
      705.900000       0.007680
      706.000000       0.007070
      706.100000       0.006510
      706.200000       0.005990
      706.300000       0.005510
      706.400000       0.005060
      706.500000       0.004640
      706.600000       0.004260
      706.700000       0.003910
      706.800000       0.003580
      706.900000       0.003280
      707.000000       0.003000
      707.100000       0.002740
      707.200000       0.002500
      707.300000       0.002280
      707.400000       0.002080
      707.500000       0.001900
      707.600000       0.001730
      707.700000       0.001580
      707.800000       0.001430
      707.900000       0.001300
      708.000000       0.001190
      708.100000       0.001080
      708.200000       0.000980
