2,   2, MVIRI VIS channel from srf_MET2_1982123_1982124_1801-Release_S10EL_10.dat
Number of data points:
730
Wavenumber (cm-1)   Filter response
     8916.629500       0.000000
     8924.587200       0.000000
     8932.559200       0.000002
     8940.545400       0.000011
     8948.545900       0.000032
     8956.560700       0.000068
     8964.589900       0.000124
     8972.633500       0.000205
     8980.691500       0.000313
     8988.764000       0.000454
     8996.851100       0.000630
     9004.952700       0.000844
     9013.068900       0.001101
     9021.199800       0.001404
     9029.345400       0.001755
     9037.505600       0.002157
     9045.680700       0.002613
     9053.870500       0.003125
     9062.075200       0.003697
     9070.294800       0.004330
     9078.529300       0.005026
     9086.778700       0.005788
     9095.043200       0.006617
     9103.322700       0.007516
     9111.617300       0.008486
     9119.927000       0.009529
     9128.251900       0.010646
     9136.592100       0.011838
     9144.947400       0.013108
     9153.318100       0.014455
     9161.704100       0.015882
     9170.105500       0.017389
     9178.522300       0.018977
     9186.954500       0.020647
     9195.402300       0.022399
     9203.865600       0.024235
     9212.344500       0.026155
     9220.839100       0.028158
     9229.349300       0.030247
     9237.875300       0.032420
     9246.417000       0.034679
     9254.974500       0.037023
     9263.547900       0.039453
     9272.137200       0.041968
     9280.742500       0.044569
     9289.363700       0.047255
     9298.000900       0.050027
     9306.654300       0.052883
     9315.323700       0.055824
     9324.009300       0.058850
     9332.711200       0.061960
     9341.429200       0.065153
     9350.163600       0.068429
     9358.914400       0.071787
     9367.681500       0.075228
     9376.465100       0.078751
     9385.265100       0.082353
     9394.081700       0.086036
     9402.914900       0.089797
     9411.764700       0.093637
     9420.631200       0.097555
     9429.514400       0.101549
     9438.414300       0.105619
     9447.331100       0.109764
     9456.264800       0.113982
     9465.215300       0.118274
     9474.182900       0.122637
     9483.167400       0.127070
     9492.169000       0.131573
     9501.187600       0.136145
     9510.223500       0.140785
     9519.276500       0.145490
     9528.346800       0.150260
     9537.434400       0.155094
     9546.539400       0.159991
     9555.661700       0.164949
     9564.801500       0.169966
     9573.958800       0.175043
     9583.133700       0.180178
     9592.326100       0.185368
     9601.536200       0.190613
     9610.764100       0.195912
     9620.009600       0.201263
     9629.273000       0.206665
     9638.554200       0.212116
     9647.853400       0.217616
     9657.170400       0.223162
     9666.505600       0.228753
     9675.858700       0.234389
     9685.230000       0.240067
     9694.619500       0.245787
     9704.027200       0.251545
     9713.453100       0.257343
     9722.897400       0.263178
     9732.360100       0.269048
     9741.841200       0.274952
     9751.340800       0.280889
     9760.859000       0.286858
     9770.395700       0.292856
     9779.951100       0.298883
     9789.525200       0.304938
     9799.118100       0.311018
     9808.729800       0.317122
     9818.360300       0.323250
     9828.009800       0.329398
     9837.678300       0.335568
     9847.365800       0.341757
     9857.072400       0.347962
     9866.798200       0.354184
     9876.543200       0.360421
     9886.307500       0.366672
     9896.091000       0.372934
     9905.894000       0.379208
     9915.716400       0.385491
     9925.558300       0.391782
     9935.419800       0.398081
     9945.300800       0.404385
     9955.201600       0.410693
     9965.122100       0.417005
     9975.062300       0.423318
     9985.022500       0.429633
     9995.002500       0.435947
    10005.002500       0.442259
    10015.022500       0.448568
    10025.062700       0.454873
    10035.122900       0.461173
    10045.203400       0.467466
    10055.304200       0.473752
    10065.425300       0.480029
    10075.566800       0.486296
    10085.728700       0.492552
    10095.911200       0.498797
    10106.114200       0.505028
    10116.337900       0.511245
    10126.582300       0.517447
    10136.847400       0.523633
    10147.133400       0.529802
    10157.440300       0.535952
    10167.768200       0.542083
    10178.117000       0.548194
    10188.487000       0.554284
    10198.878100       0.560353
    10209.290500       0.566397
    10219.724100       0.572419
    10230.179000       0.578415
    10240.655400       0.584386
    10251.153300       0.590330
    10261.672700       0.596247
    10272.213700       0.602136
    10282.776300       0.607996
    10293.360800       0.613827
    10303.967000       0.619627
    10314.595200       0.625395
    10325.245200       0.631132
    10335.917300       0.636836
    10346.611500       0.642507
    10357.327800       0.648143
    10368.066400       0.653745
    10378.827200       0.659311
    10389.610400       0.664842
    10400.416000       0.670335
    10411.244100       0.675791
    10422.094800       0.681210
    10432.968200       0.686589
    10443.864200       0.691931
    10454.783100       0.697232
    10465.724800       0.702493
    10476.689400       0.707713
    10487.677000       0.712893
    10498.687700       0.718031
    10509.721500       0.723127
    10520.778500       0.728180
    10531.858900       0.733190
    10542.962600       0.738157
    10554.089700       0.743080
    10565.240400       0.747959
    10576.414600       0.752793
    10587.612500       0.757583
    10598.834100       0.762327
    10610.079600       0.767026
    10621.348900       0.771678
    10632.642200       0.776284
    10643.959600       0.780845
    10655.301000       0.785358
    10666.666700       0.789824
    10678.056600       0.794242
    10689.470900       0.798613
    10700.909600       0.802937
    10712.372800       0.807212
    10723.860600       0.811439
    10735.373100       0.815618
    10746.910300       0.819749
    10758.472300       0.823830
    10770.059200       0.827863
    10781.671200       0.831847
    10793.308100       0.835782
    10804.970300       0.839667
    10816.657700       0.843503
    10828.370300       0.847290
    10840.108400       0.851028
    10851.871900       0.854716
    10863.661100       0.858354
    10875.475800       0.861943
    10887.316300       0.865482
    10899.182600       0.868971
    10911.074700       0.872411
    10922.992900       0.875801
    10934.937100       0.879141
    10946.907500       0.882432
    10958.904100       0.885673
    10970.927000       0.888865
    10982.976400       0.892007
    10995.052200       0.895100
    11007.154700       0.898143
    11019.283700       0.901137
    11031.439600       0.904082
    11043.622300       0.906978
    11055.832000       0.909825
    11068.068600       0.912622
    11080.332400       0.915372
    11092.623400       0.918072
    11104.941700       0.920724
    11117.287400       0.923327
    11129.660500       0.925882
    11142.061300       0.928390
    11154.489700       0.930849
    11166.945800       0.933261
    11179.429800       0.935625
    11191.941800       0.937942
    11204.481800       0.940211
    11217.049900       0.942434
    11229.646300       0.944609
    11242.270900       0.946739
    11254.924000       0.948822
    11267.605600       0.950858
    11280.315800       0.952849
    11293.054800       0.954795
    11305.822500       0.956694
    11318.619100       0.958549
    11331.444800       0.960359
    11344.299500       0.962124
    11357.183400       0.963844
    11370.096600       0.965521
    11383.039300       0.967153
    11396.011400       0.968742
    11409.013100       0.970288
    11422.044500       0.971790
    11435.105800       0.973250
    11448.196900       0.974667
    11461.318100       0.976042
    11474.469300       0.977375
    11487.650800       0.978666
    11500.862600       0.979916
    11514.104800       0.981125
    11527.377500       0.982293
    11540.680900       0.983420
    11554.015000       0.984508
    11567.380000       0.985555
    11580.775900       0.986563
    11594.202900       0.987532
    11607.661100       0.988461
    11621.150500       0.989352
    11634.671300       0.990205
    11648.223600       0.991020
    11661.807600       0.991797
    11675.423200       0.992536
    11689.070700       0.993239
    11702.750100       0.993905
    11716.461600       0.994534
    11730.205300       0.995128
    11743.981200       0.995685
    11757.789500       0.996207
    11771.630400       0.996694
    11785.503800       0.997146
    11799.410000       0.997564
    11813.349100       0.997947
    11827.321100       0.998297
    11841.326200       0.998613
    11855.364600       0.998896
    11869.436200       0.999146
    11883.541300       0.999363
    11897.680000       0.999548
    11911.852300       0.999701
    11926.058400       0.999822
    11940.298500       0.999913
    11954.572600       0.999972
    11968.880900       1.000000
    11983.223500       0.999998
    11997.600500       0.999966
    12012.012000       0.999904
    12026.458200       0.999813
    12040.939200       0.999692
    12055.455100       0.999543
    12070.006000       0.999365
    12084.592100       0.999159
    12099.213600       0.998925
    12113.870400       0.998663
    12128.562800       0.998374
    12143.290800       0.998058
    12158.054700       0.997715
    12172.854500       0.997346
    12187.690400       0.996950
    12202.562500       0.996529
    12217.471000       0.996082
    12232.415900       0.995609
    12247.397400       0.995111
    12262.415700       0.994589
    12277.470800       0.994042
    12292.563000       0.993471
    12307.692300       0.992876
    12322.858900       0.992257
    12338.062900       0.991615
    12353.304500       0.990949
    12368.583800       0.990260
    12383.900900       0.989549
    12399.256000       0.988816
    12414.649300       0.988060
    12430.080800       0.987282
    12445.550700       0.986482
    12461.059200       0.985662
    12476.606400       0.984819
    12492.192400       0.983956
    12507.817400       0.983072
    12523.481500       0.982168
    12539.185000       0.981243
    12554.927800       0.980298
    12570.710200       0.979334
    12586.532400       0.978349
    12602.394500       0.977345
    12618.296500       0.976322
    12634.238800       0.975280
    12650.221400       0.974220
    12666.244500       0.973140
    12682.308200       0.972042
    12698.412700       0.970926
    12714.558200       0.969792
    12730.744700       0.968641
    12746.972600       0.967471
    12763.241900       0.966284
    12779.552700       0.965080
    12795.905300       0.963859
    12812.299800       0.962621
    12828.736400       0.961366
    12845.215200       0.960094
    12861.736300       0.958806
    12878.300100       0.957502
    12894.906500       0.956182
    12911.555800       0.954846
    12928.248200       0.953494
    12944.983800       0.952127
    12961.762800       0.950744
    12978.585300       0.949345
    12995.451600       0.947932
    13012.361700       0.946504
    13029.316000       0.945060
    13046.314400       0.943602
    13063.357300       0.942130
    13080.444700       0.940642
    13097.576900       0.939141
    13114.754100       0.937625
    13131.976400       0.936095
    13149.243900       0.934552
    13166.556900       0.932994
    13183.915600       0.931423
    13201.320100       0.929838
    13218.770700       0.928239
    13236.267400       0.926627
    13253.810500       0.925002
    13271.400100       0.923364
    13289.036500       0.921712
    13306.719900       0.920048
    13324.450400       0.918370
    13342.228200       0.916680
    13360.053400       0.914977
    13377.926400       0.913262
    13395.847300       0.911534
    13413.816200       0.909794
    13431.833400       0.908041
    13449.899100       0.906276
    13468.013500       0.904499
    13486.176700       0.902710
    13504.388900       0.900909
    13522.650400       0.899096
    13540.961400       0.897271
    13559.322000       0.895434
    13577.732500       0.893586
    13596.193100       0.891726
    13614.703900       0.889854
    13633.265200       0.887971
    13651.877100       0.886077
    13670.540000       0.884171
    13689.253900       0.882254
    13708.019200       0.880326
    13726.836000       0.878387
    13745.704500       0.876437
    13764.624900       0.874475
    13783.597500       0.872503
    13802.622500       0.870520
    13821.700100       0.868526
    13840.830400       0.866521
    13860.013900       0.864506
    13879.250500       0.862480
    13898.540700       0.860443
    13917.884500       0.858396
    13937.282200       0.856338
    13956.734100       0.854270
    13976.240400       0.852192
    13995.801300       0.850103
    14015.417000       0.848004
    14035.087700       0.845895
    14054.813800       0.843775
    14074.595400       0.841646
    14094.432700       0.839506
    14114.326000       0.837357
    14134.275600       0.835198
    14154.281700       0.833028
    14174.344400       0.830849
    14194.464200       0.828661
    14214.641100       0.826462
    14234.875400       0.824254
    14255.167500       0.822036
    14275.517500       0.819809
    14295.925700       0.817572
    14316.392300       0.815326
    14336.917600       0.813070
    14357.501800       0.810806
    14378.145200       0.808531
    14398.848100       0.806248
    14419.610700       0.803956
    14440.433200       0.801654
    14461.316000       0.799343
    14482.259200       0.797024
    14503.263200       0.794695
    14524.328200       0.792358
    14545.454500       0.790012
    14566.642400       0.787657
    14587.892000       0.785293
    14609.203800       0.782921
    14630.577900       0.780541
    14652.014700       0.778151
    14673.514300       0.775754
    14695.077100       0.773348
    14716.703500       0.770934
    14738.393500       0.768512
    14760.147600       0.766081
    14781.966000       0.763643
    14803.849000       0.761196
    14825.796900       0.758742
    14847.809900       0.756280
    14869.888500       0.753810
    14892.032800       0.751332
    14914.243100       0.748847
    14936.519800       0.746354
    14958.863100       0.743854
    14981.273400       0.741347
    15003.750900       0.738832
    15026.296000       0.736310
    15048.909000       0.733781
    15071.590100       0.731245
    15094.339600       0.728702
    15117.158000       0.726152
    15140.045400       0.723596
    15163.002300       0.721033
    15186.028900       0.718463
    15209.125500       0.715887
    15232.292500       0.713304
    15255.530100       0.710716
    15278.838800       0.708121
    15302.218800       0.705520
    15325.670500       0.702913
    15349.194200       0.700300
    15372.790200       0.697682
    15396.458800       0.695058
    15420.200500       0.692428
    15444.015400       0.689793
    15467.904100       0.687153
    15491.866800       0.684508
    15515.903800       0.681857
    15540.015500       0.679202
    15564.202300       0.676541
    15588.464500       0.673876
    15612.802500       0.671207
    15637.216600       0.668533
    15661.707100       0.665854
    15686.274500       0.663172
    15710.919100       0.660485
    15735.641200       0.657794
    15760.441300       0.655099
    15785.319700       0.652401
    15810.276700       0.649699
    15835.312700       0.646994
    15860.428200       0.644285
    15885.623500       0.641573
    15910.899000       0.638858
    15936.255000       0.636140
    15961.691900       0.633419
    15987.210200       0.630696
    16012.810200       0.627970
    16038.492400       0.625242
    16064.257000       0.622511
    16090.104600       0.619778
    16116.035500       0.617044
    16142.050000       0.614307
    16168.148700       0.611569
    16194.332000       0.608829
    16220.600200       0.606088
    16246.953700       0.603346
    16273.393000       0.600603
    16299.918500       0.597858
    16326.530600       0.595113
    16353.229800       0.592367
    16380.016400       0.589621
    16406.890900       0.586874
    16433.853700       0.584127
    16460.905300       0.581380
    16488.046200       0.578633
    16515.276600       0.575886
    16542.597200       0.573140
    16570.008300       0.570394
    16597.510400       0.567649
    16625.103900       0.564904
    16652.789300       0.562161
    16680.567100       0.559419
    16708.437800       0.556678
    16736.401700       0.553938
    16764.459300       0.551200
    16792.611300       0.548463
    16820.857900       0.545729
    16849.199700       0.542996
    16877.637100       0.540266
    16906.170800       0.537537
    16934.801000       0.534812
    16963.528400       0.532088
    16992.353400       0.529368
    17021.276600       0.526650
    17050.298400       0.523935
    17079.419300       0.521224
    17108.639900       0.518515
    17137.960600       0.515811
    17167.382000       0.513109
    17196.904600       0.510411
    17226.528900       0.507717
    17256.255400       0.505027
    17286.084700       0.502341
    17316.017300       0.499659
    17346.053800       0.496982
    17376.194600       0.494308
    17406.440400       0.491640
    17436.791600       0.488976
    17467.248900       0.486317
    17497.812800       0.483662
    17528.483800       0.481013
    17559.262500       0.478369
    17590.149500       0.475730
    17621.145400       0.473097
    17652.250700       0.470469
    17683.466000       0.467846
    17714.791900       0.465229
    17746.228900       0.462618
    17777.777800       0.460013
    17809.439000       0.457413
    17841.213200       0.454820
    17873.101000       0.452232
    17905.103000       0.449651
    17937.219700       0.447077
    17969.451900       0.444508
    18001.800200       0.441946
    18034.265100       0.439390
    18066.847300       0.436841
    18099.547500       0.434299
    18132.366300       0.431763
    18165.304300       0.429234
    18198.362100       0.426712
    18231.540600       0.424197
    18264.840200       0.421688
    18298.261700       0.419187
    18331.805700       0.416692
    18365.472900       0.414204
    18399.264000       0.411724
    18433.179700       0.409250
    18467.220700       0.406784
    18501.387600       0.404324
    18535.681200       0.401872
    18570.102100       0.399427
    18604.651200       0.396989
    18639.329000       0.394558
    18674.136300       0.392134
    18709.073900       0.389718
    18744.142500       0.387308
    18779.342700       0.384906
    18814.675400       0.382510
    18850.141400       0.380122
    18885.741300       0.377741
    18921.475900       0.375366
    18957.346000       0.372999
    18993.352300       0.370639
    19029.495700       0.368285
    19065.776900       0.365938
    19102.196800       0.363598
    19138.756000       0.361264
    19175.455400       0.358938
    19212.295900       0.356617
    19249.278200       0.354304
    19286.403100       0.351996
    19323.671500       0.349695
    19361.084200       0.347400
    19398.642100       0.345111
    19436.346000       0.342828
    19474.196700       0.340551
    19512.195100       0.338280
    19550.342100       0.336014
    19588.638600       0.333754
    19627.085400       0.331500
    19665.683400       0.329250
    19704.433500       0.327006
    19743.336600       0.324767
    19782.393700       0.322533
    19821.605600       0.320303
    19860.973200       0.318078
    19900.497500       0.315857
    19940.179500       0.313641
    19980.020000       0.311428
    20020.020000       0.309219
    20060.180500       0.307015
    20100.502500       0.304813
    20140.986900       0.302615
    20181.634700       0.300420
    20222.446900       0.298228
    20263.424500       0.296039
    20304.568500       0.293852
    20345.880000       0.291668
    20387.359800       0.289486
    20429.009200       0.287305
    20470.829100       0.285126
    20512.820500       0.282949
    20554.984600       0.280773
    20597.322300       0.278598
    20639.834900       0.276423
    20682.523300       0.274249
    20725.388600       0.272076
    20768.432000       0.269902
    20811.654500       0.267728
    20855.057400       0.265553
    20898.641600       0.263378
    20942.408400       0.261202
    20986.358900       0.259025
    21030.494200       0.256846
    21074.815600       0.254665
    21119.324200       0.252482
    21164.021200       0.250297
    21208.907700       0.248109
    21253.985100       0.245918
    21299.254500       0.243724
    21344.717200       0.241527
    21390.374300       0.239326
    21436.227200       0.237121
    21482.277100       0.234911
    21528.525300       0.232698
    21574.973000       0.230479
    21621.621600       0.228255
    21668.472400       0.226026
    21715.526600       0.223791
    21762.785600       0.221551
    21810.250800       0.219304
    21857.923500       0.217050
    21905.805000       0.214790
    21953.896800       0.212523
    22002.200200       0.210248
    22050.716600       0.207966
    22099.447500       0.205677
    22148.394200       0.203379
    22197.558300       0.201072
    22246.941000       0.198758
    22296.544000       0.196434
    22346.368700       0.194101
    22396.416600       0.191759
    22446.689100       0.189408
    22497.187900       0.187046
    22547.914300       0.184675
    22598.870100       0.182294
    22650.056600       0.179902
    22701.475600       0.177499
    22753.128600       0.175086
    22805.017100       0.172661
    22857.142900       0.170226
    22909.507400       0.167779
    22962.112500       0.165321
    23014.959700       0.162851
    23068.050700       0.160369
    23121.387300       0.157875
    23174.971000       0.155369
    23228.803700       0.152851
    23282.887100       0.150321
    23337.222900       0.147778
    23391.812900       0.145223
    23446.658900       0.142656
    23501.762600       0.140076
    23557.126000       0.137483
    23612.750900       0.134878
    23668.639100       0.132260
    23724.792400       0.129630
    23781.212800       0.126987
    23837.902300       0.124332
    23894.862600       0.121665
    23952.095800       0.118985
    24009.603800       0.116293
    24067.388700       0.113589
    24125.452400       0.110873
    24183.796900       0.108145
    24242.424200       0.105406
    24301.336600       0.102656
    24360.535900       0.099894
    24420.024400       0.097122
    24479.804200       0.094339
    24539.877300       0.091546
    24600.246000       0.088743
    24660.912500       0.085930
    24721.878900       0.083109
    24783.147500       0.080279
    24844.720500       0.077440
    24906.600200       0.074594
    24968.789000       0.071740
    25031.289100       0.068880
    25094.102900       0.066014
    25157.232700       0.063142
    25220.681000       0.060265
    25284.450100       0.057384
    25348.542500       0.054500
    25412.960600       0.051612
    25477.707000       0.048724
