4,   channel 4 SRF from file SRF_SIRS-D_Ch04.asc received July 2019 from Carsten Stanfuss
Number of data points:
281
Wavenumber (cm-1)   Filter response
      702.000000       0.000000
      702.050000       0.000000
      702.100000       0.000000
      702.150000       0.000000
      702.200000       0.000000
      702.250000       0.000000
      702.300000       0.000000
      702.350000       0.000000
      702.400000       0.000000
      702.450000       0.000000
      702.500000       0.000000
      702.550000       0.000000
      702.600000       0.000000
      702.650000       0.000000
      702.700000       0.000000
      702.750000       0.000000
      702.800000       0.000000
      702.850000       0.000000
      702.900000       0.000000
      702.950000       0.000000
      703.000000       0.000000
      703.050000       0.000000
      703.100000       0.000000
      703.150000       0.000000
      703.200000       0.000000
      703.250000       0.000000
      703.300000       0.000000
      703.350000       0.000000
      703.400000       0.000000
      703.450000       0.003000
      703.500000       0.013000
      703.550000       0.023000
      703.600000       0.033000
      703.650000       0.043000
      703.700000       0.053000
      703.750000       0.063000
      703.800000       0.073000
      703.850000       0.083000
      703.900000       0.093000
      703.950000       0.103000
      704.000000       0.113000
      704.050000       0.123000
      704.100000       0.133000
      704.150000       0.143000
      704.200000       0.153000
      704.250000       0.163000
      704.300000       0.173000
      704.350000       0.183000
      704.400000       0.193000
      704.450000       0.203000
      704.500000       0.213000
      704.550000       0.223000
      704.600000       0.233000
      704.650000       0.243000
      704.700000       0.253000
      704.750000       0.263000
      704.800000       0.273000
      704.850000       0.283000
      704.900000       0.293000
      704.950000       0.303000
      705.000000       0.313000
      705.050000       0.323000
      705.100000       0.333000
      705.150000       0.343000
      705.200000       0.353000
      705.250000       0.363000
      705.300000       0.373000
      705.350000       0.383000
      705.400000       0.393000
      705.450000       0.403000
      705.500000       0.413000
      705.550000       0.423000
      705.600000       0.433000
      705.650000       0.443000
      705.700000       0.453000
      705.750000       0.463000
      705.800000       0.473000
      705.850000       0.483000
      705.900000       0.493000
      705.950000       0.503000
      706.000000       0.513000
      706.050000       0.523000
      706.100000       0.533000
      706.150000       0.543000
      706.200000       0.553000
      706.250000       0.563000
      706.300000       0.573000
      706.350000       0.583000
      706.400000       0.593000
      706.450000       0.603000
      706.500000       0.613000
      706.550000       0.623000
      706.600000       0.633000
      706.650000       0.643000
      706.700000       0.653000
      706.750000       0.663000
      706.800000       0.673000
      706.850000       0.683000
      706.900000       0.693000
      706.950000       0.703000
      707.000000       0.713000
      707.050000       0.723000
      707.100000       0.733000
      707.150000       0.743000
      707.200000       0.753000
      707.250000       0.763000
      707.300000       0.773000
      707.350000       0.783000
      707.400000       0.793000
      707.450000       0.803000
      707.500000       0.813000
      707.550000       0.823000
      707.600000       0.833000
      707.650000       0.843000
      707.700000       0.853000
      707.750000       0.863000
      707.800000       0.873000
      707.850000       0.883000
      707.900000       0.893000
      707.950000       0.903000
      708.000000       0.913000
      708.050000       0.923000
      708.100000       0.933000
      708.150000       0.943000
      708.200000       0.953000
      708.250000       0.963000
      708.300000       0.973000
      708.350000       0.983000
      708.400000       0.993000
      708.450000       1.000000
      708.500000       1.000000
      708.550000       1.000000
      708.600000       1.000000
      708.650000       1.000000
      708.700000       1.000000
      708.750000       1.000000
      708.800000       1.000000
      708.850000       1.000000
      708.900000       1.000000
      708.950000       1.000000
      709.000000       1.000000
      709.050000       1.000000
      709.100000       1.000000
      709.150000       1.000000
      709.200000       1.000000
      709.250000       1.000000
      709.300000       1.000000
      709.350000       1.000000
      709.400000       1.000000
      709.450000       1.000000
      709.500000       1.000000
      709.550000       1.000000
      709.600000       0.993000
      709.650000       0.983000
      709.700000       0.973000
      709.750000       0.963000
      709.800000       0.953000
      709.850000       0.943000
      709.900000       0.933000
      709.950000       0.923000
      710.000000       0.913000
      710.050000       0.903000
      710.100000       0.893000
      710.150000       0.883000
      710.200000       0.873000
      710.250000       0.863000
      710.300000       0.853000
      710.350000       0.843000
      710.400000       0.833000
      710.450000       0.823000
      710.500000       0.813000
      710.550000       0.803000
      710.600000       0.793000
      710.650000       0.783000
      710.700000       0.773000
      710.750000       0.763000
      710.800000       0.753000
      710.850000       0.743000
      710.900000       0.733000
      710.950000       0.723000
      711.000000       0.713000
      711.050000       0.703000
      711.100000       0.693000
      711.150000       0.683000
      711.200000       0.673000
      711.250000       0.663000
      711.300000       0.653000
      711.350000       0.643000
      711.400000       0.633000
      711.450000       0.623000
      711.500000       0.613000
      711.550000       0.603000
      711.600000       0.593000
      711.650000       0.583000
      711.700000       0.573000
      711.750000       0.563000
      711.800000       0.553000
      711.850000       0.543000
      711.900000       0.533000
      711.950000       0.523000
      712.000000       0.513000
      712.050000       0.503000
      712.100000       0.493000
      712.150000       0.483000
      712.200000       0.473000
      712.250000       0.463000
      712.300000       0.453000
      712.350000       0.443000
      712.400000       0.433000
      712.450000       0.423000
      712.500000       0.413000
      712.550000       0.403000
      712.600000       0.393000
      712.650000       0.383000
      712.700000       0.373000
      712.750000       0.363000
      712.800000       0.353000
      712.850000       0.343000
      712.900000       0.333000
      712.950000       0.323000
      713.000000       0.313000
      713.050000       0.303000
      713.100000       0.293000
      713.150000       0.283000
      713.200000       0.273000
      713.250000       0.263000
      713.300000       0.253000
      713.350000       0.243000
      713.400000       0.233000
      713.450000       0.223000
      713.500000       0.213000
      713.550000       0.203000
      713.600000       0.193000
      713.650000       0.183000
      713.700000       0.173000
      713.750000       0.163000
      713.800000       0.153000
      713.850000       0.143000
      713.900000       0.133000
      713.950000       0.123000
      714.000000       0.113000
      714.050000       0.103000
      714.100000       0.093000
      714.150000       0.083000
      714.200000       0.073000
      714.250000       0.063000
      714.300000       0.053000
      714.350000       0.043000
      714.400000       0.033000
      714.450000       0.023000
      714.500000       0.013000
      714.550000       0.003000
      714.600000       0.000000
      714.650000       0.000000
      714.700000       0.000000
      714.750000       0.000000
      714.800000       0.000000
      714.850000       0.000000
      714.900000       0.000000
      714.950000       0.000000
      715.000000       0.000000
      715.050000       0.000000
      715.100000       0.000000
      715.150000       0.000000
      715.200000       0.000000
      715.250000       0.000000
      715.300000       0.000000
      715.350000       0.000000
      715.400000       0.000000
      715.450000       0.000000
      715.500000       0.000000
      715.550000       0.000000
      715.600000       0.000000
      715.650000       0.000000
      715.700000       0.000000
      715.750000       0.000000
      715.800000       0.000000
      715.850000       0.000000
      715.900000       0.000000
      715.950000       0.000000
      716.000000       0.000000
