156,   156, MVIRI VIS channel from srf_MET7_2017033_2017034_1801-Release_S10EE_10.dat
Number of data points:
793
Wavenumber (cm-1)   Filter response
     8442.380800       0.000000
     8449.514200       0.000000
     8456.659600       0.000004
     8463.817200       0.000057
     8470.986900       0.000169
     8478.168700       0.000338
     8485.362700       0.000563
     8492.569000       0.000842
     8499.787500       0.001173
     8507.018300       0.001555
     8514.261400       0.001987
     8521.516800       0.002466
     8528.784600       0.002992
     8536.064900       0.003564
     8543.357500       0.004179
     8550.662700       0.004837
     8557.980300       0.005537
     8565.310500       0.006277
     8572.653200       0.007057
     8580.008600       0.007875
     8587.376600       0.008730
     8594.757200       0.009622
     8602.150500       0.010549
     8609.556600       0.011510
     8616.975400       0.012506
     8624.407100       0.013534
     8631.851500       0.014595
     8639.308900       0.015686
     8646.779100       0.016809
     8654.262200       0.017961
     8661.758300       0.019143
     8669.267400       0.020353
     8676.789600       0.021592
     8684.324800       0.022858
     8691.873100       0.024151
     8699.434500       0.025471
     8707.009100       0.026817
     8714.596900       0.028189
     8722.198000       0.029585
     8729.812300       0.031007
     8737.439900       0.032453
     8745.080900       0.033923
     8752.735200       0.035417
     8760.403000       0.036935
     8768.084200       0.038476
     8775.778900       0.040039
     8783.487000       0.041626
     8791.208800       0.043234
     8798.944100       0.044865
     8806.693100       0.046518
     8814.455700       0.048193
     8822.232000       0.049890
     8830.022100       0.051608
     8837.825900       0.053348
     8845.643500       0.055109
     8853.475000       0.056891
     8861.320300       0.058695
     8869.179600       0.060519
     8877.052800       0.062365
     8884.940000       0.064231
     8892.841300       0.066119
     8900.756600       0.068027
     8908.686000       0.069956
     8916.629500       0.071906
     8924.587200       0.073877
     8932.559200       0.075869
     8940.545400       0.077882
     8948.545900       0.079916
     8956.560700       0.081970
     8964.589900       0.084045
     8972.633500       0.086142
     8980.691500       0.088260
     8988.764000       0.090398
     8996.851100       0.092558
     9004.952700       0.094739
     9013.068900       0.096941
     9021.199800       0.099165
     9029.345400       0.101411
     9037.505600       0.103677
     9045.680700       0.105966
     9053.870500       0.108275
     9062.075200       0.110607
     9070.294800       0.112961
     9078.529300       0.115336
     9086.778700       0.117734
     9095.043200       0.120154
     9103.322700       0.122595
     9111.617300       0.125059
     9119.927000       0.127546
     9128.251900       0.130055
     9136.592100       0.132586
     9144.947400       0.135140
     9153.318100       0.137717
     9161.704100       0.140316
     9170.105500       0.142939
     9178.522300       0.145584
     9186.954500       0.148252
     9195.402300       0.150944
     9203.865600       0.153658
     9212.344500       0.156396
     9220.839100       0.159157
     9229.349300       0.161942
     9237.875300       0.164750
     9246.417000       0.167581
     9254.974500       0.170436
     9263.547900       0.173314
     9272.137200       0.176216
     9280.742500       0.179142
     9289.363700       0.182091
     9298.000900       0.185065
     9306.654300       0.188062
     9315.323700       0.191082
     9324.009300       0.194127
     9332.711200       0.197195
     9341.429200       0.200287
     9350.163600       0.203403
     9358.914400       0.206542
     9367.681500       0.209706
     9376.465100       0.212893
     9385.265100       0.216104
     9394.081700       0.219338
     9402.914900       0.222596
     9411.764700       0.225879
     9420.631200       0.229184
     9429.514400       0.232513
     9438.414300       0.235866
     9447.331100       0.239241
     9456.264800       0.242641
     9465.215300       0.246063
     9474.182900       0.249509
     9483.167400       0.252978
     9492.169000       0.256470
     9501.187600       0.259984
     9510.223500       0.263522
     9519.276500       0.267082
     9528.346800       0.270665
     9537.434400       0.274270
     9546.539400       0.277897
     9555.661700       0.281547
     9564.801500       0.285219
     9573.958800       0.288912
     9583.133700       0.292628
     9592.326100       0.296364
     9601.536200       0.300122
     9610.764100       0.303901
     9620.009600       0.307701
     9629.273000       0.311522
     9638.554200       0.315363
     9647.853400       0.319225
     9657.170400       0.323107
     9666.505600       0.327009
     9675.858700       0.330931
     9685.230000       0.334872
     9694.619500       0.338832
     9704.027200       0.342811
     9713.453100       0.346810
     9722.897400       0.350826
     9732.360100       0.354861
     9741.841200       0.358914
     9751.340800       0.362984
     9760.859000       0.367072
     9770.395700       0.371177
     9779.951100       0.375298
     9789.525200       0.379437
     9799.118100       0.383592
     9808.729800       0.387762
     9818.360300       0.391948
     9828.009800       0.396149
     9837.678300       0.400365
     9847.365800       0.404596
     9857.072400       0.408840
     9866.798200       0.413100
     9876.543200       0.417372
     9886.307500       0.421658
     9896.091000       0.425956
     9905.894000       0.430267
     9915.716400       0.434590
     9925.558300       0.438925
     9935.419800       0.443271
     9945.300800       0.447629
     9955.201600       0.451997
     9965.122100       0.456375
     9975.062300       0.460763
     9985.022500       0.465160
     9995.002500       0.469567
    10005.002500       0.473982
    10015.022500       0.478405
    10025.062700       0.482836
    10035.122900       0.487274
    10045.203400       0.491719
    10055.304200       0.496171
    10065.425300       0.500629
    10075.566800       0.505093
    10085.728700       0.509562
    10095.911200       0.514035
    10106.114200       0.518513
    10116.337900       0.522995
    10126.582300       0.527480
    10136.847400       0.531969
    10147.133400       0.536460
    10157.440300       0.540953
    10167.768200       0.545447
    10178.117000       0.549943
    10188.487000       0.554439
    10198.878100       0.558936
    10209.290500       0.563433
    10219.724100       0.567929
    10230.179000       0.572424
    10240.655400       0.576917
    10251.153300       0.581408
    10261.672700       0.585896
    10272.213700       0.590382
    10282.776300       0.594864
    10293.360800       0.599342
    10303.967000       0.603816
    10314.595200       0.608284
    10325.245200       0.612747
    10335.917300       0.617205
    10346.611500       0.621656
    10357.327800       0.626100
    10368.066400       0.630537
    10378.827200       0.634966
    10389.610400       0.639387
    10400.416000       0.643799
    10411.244100       0.648202
    10422.094800       0.652595
    10432.968200       0.656977
    10443.864200       0.661350
    10454.783100       0.665711
    10465.724800       0.670060
    10476.689400       0.674397
    10487.677000       0.678722
    10498.687700       0.683034
    10509.721500       0.687332
    10520.778500       0.691616
    10531.858900       0.695886
    10542.962600       0.700141
    10554.089700       0.704380
    10565.240400       0.708604
    10576.414600       0.712811
    10587.612500       0.717002
    10598.834100       0.721175
    10610.079600       0.725331
    10621.348900       0.729468
    10632.642200       0.733587
    10643.959600       0.737687
    10655.301000       0.741768
    10666.666700       0.745828
    10678.056600       0.749868
    10689.470900       0.753887
    10700.909600       0.757886
    10712.372800       0.761862
    10723.860600       0.765816
    10735.373100       0.769748
    10746.910300       0.773657
    10758.472300       0.777543
    10770.059200       0.781405
    10781.671200       0.785242
    10793.308100       0.789055
    10804.970300       0.792844
    10816.657700       0.796606
    10828.370300       0.800343
    10840.108400       0.804054
    10851.871900       0.807738
    10863.661100       0.811396
    10875.475800       0.815026
    10887.316300       0.818628
    10899.182600       0.822202
    10911.074700       0.825748
    10922.992900       0.829265
    10934.937100       0.832753
    10946.907500       0.836212
    10958.904100       0.839640
    10970.927000       0.843039
    10982.976400       0.846407
    10995.052200       0.849744
    11007.154700       0.853050
    11019.283700       0.856325
    11031.439600       0.859568
    11043.622300       0.862778
    11055.832000       0.865956
    11068.068600       0.869102
    11080.332400       0.872215
    11092.623400       0.875294
    11104.941700       0.878340
    11117.287400       0.881352
    11129.660500       0.884330
    11142.061300       0.887273
    11154.489700       0.890182
    11166.945800       0.893056
    11179.429800       0.895895
    11191.941800       0.898699
    11204.481800       0.901466
    11217.049900       0.904198
    11229.646300       0.906894
    11242.270900       0.909554
    11254.924000       0.912178
    11267.605600       0.914764
    11280.315800       0.917314
    11293.054800       0.919827
    11305.822500       0.922302
    11318.619100       0.924741
    11331.444800       0.927141
    11344.299500       0.929504
    11357.183400       0.931829
    11370.096600       0.934115
    11383.039300       0.936364
    11396.011400       0.938574
    11409.013100       0.940746
    11422.044500       0.942879
    11435.105800       0.944974
    11448.196900       0.947029
    11461.318100       0.949046
    11474.469300       0.951024
    11487.650800       0.952962
    11500.862600       0.954861
    11514.104800       0.956721
    11527.377500       0.958542
    11540.680900       0.960323
    11554.015000       0.962065
    11567.380000       0.963768
    11580.775900       0.965430
    11594.202900       0.967053
    11607.661100       0.968637
    11621.150500       0.970181
    11634.671300       0.971685
    11648.223600       0.973150
    11661.807600       0.974574
    11675.423200       0.975960
    11689.070700       0.977305
    11702.750100       0.978611
    11716.461600       0.979877
    11730.205300       0.981104
    11743.981200       0.982291
    11757.789500       0.983439
    11771.630400       0.984547
    11785.503800       0.985615
    11799.410000       0.986645
    11813.349100       0.987635
    11827.321100       0.988586
    11841.326200       0.989498
    11855.364600       0.990371
    11869.436200       0.991205
    11883.541300       0.992001
    11897.680000       0.992757
    11911.852300       0.993475
    11926.058400       0.994155
    11940.298500       0.994796
    11954.572600       0.995399
    11968.880900       0.995965
    11983.223500       0.996492
    11997.600500       0.996982
    12012.012000       0.997434
    12026.458200       0.997848
    12040.939200       0.998226
    12055.455100       0.998567
    12070.006000       0.998870
    12084.592100       0.999138
    12099.213600       0.999368
    12113.870400       0.999563
    12128.562800       0.999721
    12143.290800       0.999844
    12158.054700       0.999931
    12172.854500       0.999983
    12187.690400       1.000000
    12202.562500       0.999982
    12217.471000       0.999929
    12232.415900       0.999842
    12247.397400       0.999721
    12262.415700       0.999567
    12277.470800       0.999378
    12292.563000       0.999157
    12307.692300       0.998902
    12322.858900       0.998615
    12338.062900       0.998295
    12353.304500       0.997943
    12368.583800       0.997560
    12383.900900       0.997145
    12399.256000       0.996699
    12414.649300       0.996221
    12430.080800       0.995714
    12445.550700       0.995176
    12461.059200       0.994608
    12476.606400       0.994011
    12492.192400       0.993384
    12507.817400       0.992729
    12523.481500       0.992045
    12539.185000       0.991333
    12554.927800       0.990593
    12570.710200       0.989826
    12586.532400       0.989032
    12602.394500       0.988211
    12618.296500       0.987363
    12634.238800       0.986490
    12650.221400       0.985591
    12666.244500       0.984667
    12682.308200       0.983718
    12698.412700       0.982745
    12714.558200       0.981748
    12730.744700       0.980727
    12746.972600       0.979683
    12763.241900       0.978616
    12779.552700       0.977527
    12795.905300       0.976415
    12812.299800       0.975282
    12828.736400       0.974128
    12845.215200       0.972954
    12861.736300       0.971759
    12878.300100       0.970544
    12894.906500       0.969309
    12911.555800       0.968056
    12928.248200       0.966784
    12944.983800       0.965493
    12961.762800       0.964185
    12978.585300       0.962860
    12995.451600       0.961518
    13012.361700       0.960159
    13029.316000       0.958785
    13046.314400       0.957395
    13063.357300       0.955990
    13080.444700       0.954570
    13097.576900       0.953136
    13114.754100       0.951688
    13131.976400       0.950227
    13149.243900       0.948753
    13166.556900       0.947266
    13183.915600       0.945768
    13201.320100       0.944258
    13218.770700       0.942737
    13236.267400       0.941206
    13253.810500       0.939664
    13271.400100       0.938113
    13289.036500       0.936552
    13306.719900       0.934983
    13324.450400       0.933405
    13342.228200       0.931820
    13360.053400       0.930227
    13377.926400       0.928627
    13395.847300       0.927020
    13413.816200       0.925408
    13431.833400       0.923790
    13449.899100       0.922166
    13468.013500       0.920538
    13486.176700       0.918906
    13504.388900       0.917269
    13522.650400       0.915630
    13540.961400       0.913987
    13559.322000       0.912342
    13577.732500       0.910695
    13596.193100       0.909046
    13614.703900       0.907396
    13633.265200       0.905745
    13651.877100       0.904094
    13670.540000       0.902443
    13689.253900       0.900792
    13708.019200       0.899143
    13726.836000       0.897495
    13745.704500       0.895848
    13764.624900       0.894204
    13783.597500       0.892562
    13802.622500       0.890923
    13821.700100       0.889288
    13840.830400       0.887657
    13860.013900       0.886029
    13879.250500       0.884407
    13898.540700       0.882789
    13917.884500       0.881177
    13937.282200       0.879571
    13956.734100       0.877971
    13976.240400       0.876377
    13995.801300       0.874790
    14015.417000       0.873211
    14035.087700       0.871639
    14054.813800       0.870075
    14074.595400       0.868520
    14094.432700       0.866974
    14114.326000       0.865436
    14134.275600       0.863908
    14154.281700       0.862390
    14174.344400       0.860881
    14194.464200       0.859384
    14214.641100       0.857897
    14234.875400       0.856421
    14255.167500       0.854956
    14275.517500       0.853503
    14295.925700       0.852063
    14316.392300       0.850634
    14336.917600       0.849218
    14357.501800       0.847815
    14378.145200       0.846425
    14398.848100       0.845048
    14419.610700       0.843685
    14440.433200       0.842337
    14461.316000       0.841002
    14482.259200       0.839682
    14503.263200       0.838376
    14524.328200       0.837086
    14545.454500       0.835810
    14566.642400       0.834550
    14587.892000       0.833306
    14609.203800       0.832077
    14630.577900       0.830864
    14652.014700       0.829668
    14673.514300       0.828488
    14695.077100       0.827325
    14716.703500       0.826178
    14738.393500       0.825048
    14760.147600       0.823936
    14781.966000       0.822840
    14803.849000       0.821762
    14825.796900       0.820702
    14847.809900       0.819659
    14869.888500       0.818634
    14892.032800       0.817627
    14914.243100       0.816637
    14936.519800       0.815666
    14958.863100       0.814713
    14981.273400       0.813779
    15003.750900       0.812862
    15026.296000       0.811964
    15048.909000       0.811085
    15071.590100       0.810224
    15094.339600       0.809382
    15117.158000       0.808558
    15140.045400       0.807753
    15163.002300       0.806966
    15186.028900       0.806199
    15209.125500       0.805449
    15232.292500       0.804719
    15255.530100       0.804007
    15278.838800       0.803314
    15302.218800       0.802639
    15325.670500       0.801983
    15349.194200       0.801345
    15372.790200       0.800726
    15396.458800       0.800125
    15420.200500       0.799542
    15444.015400       0.798977
    15467.904100       0.798431
    15491.866800       0.797903
    15515.903800       0.797392
    15540.015500       0.796899
    15564.202300       0.796424
    15588.464500       0.795966
    15612.802500       0.795526
    15637.216600       0.795103
    15661.707100       0.794697
    15686.274500       0.794307
    15710.919100       0.793935
    15735.641200       0.793579
    15760.441300       0.793239
    15785.319700       0.792915
    15810.276700       0.792607
    15835.312700       0.792314
    15860.428200       0.792037
    15885.623500       0.791775
    15910.899000       0.791528
    15936.255000       0.791296
    15961.691900       0.791078
    15987.210200       0.790874
    16012.810200       0.790683
    16038.492400       0.790506
    16064.257000       0.790343
    16090.104600       0.790192
    16116.035500       0.790053
    16142.050000       0.789927
    16168.148700       0.789812
    16194.332000       0.789709
    16220.600200       0.789617
    16246.953700       0.789536
    16273.393000       0.789466
    16299.918500       0.789405
    16326.530600       0.789353
    16353.229800       0.789311
    16380.016400       0.789278
    16406.890900       0.789253
    16433.853700       0.789236
    16460.905300       0.789226
    16488.046200       0.789224
    16515.276600       0.789228
    16542.597200       0.789238
    16570.008300       0.789254
    16597.510400       0.789274
    16625.103900       0.789300
    16652.789300       0.789330
    16680.567100       0.789363
    16708.437800       0.789400
    16736.401700       0.789439
    16764.459300       0.789480
    16792.611300       0.789523
    16820.857900       0.789567
    16849.199700       0.789612
    16877.637100       0.789657
    16906.170800       0.789700
    16934.801000       0.789743
    16963.528400       0.789784
    16992.353400       0.789823
    17021.276600       0.789859
    17050.298400       0.789891
    17079.419300       0.789920
    17108.639900       0.789943
    17137.960600       0.789961
    17167.382000       0.789974
    17196.904600       0.789980
    17226.528900       0.789978
    17256.255400       0.789969
    17286.084700       0.789951
    17316.017300       0.789925
    17346.053800       0.789888
    17376.194600       0.789841
    17406.440400       0.789783
    17436.791600       0.789714
    17467.248900       0.789632
    17497.812800       0.789537
    17528.483800       0.789428
    17559.262500       0.789305
    17590.149500       0.789166
    17621.145400       0.789012
    17652.250700       0.788841
    17683.466000       0.788653
    17714.791900       0.788448
    17746.228900       0.788223
    17777.777800       0.787980
    17809.439000       0.787716
    17841.213200       0.787432
    17873.101000       0.787126
    17905.103000       0.786798
    17937.219700       0.786447
    17969.451900       0.786072
    18001.800200       0.785674
    18034.265100       0.785250
    18066.847300       0.784800
    18099.547500       0.784324
    18132.366300       0.783821
    18165.304300       0.783290
    18198.362100       0.782730
    18231.540600       0.782141
    18264.840200       0.781521
    18298.261700       0.780871
    18331.805700       0.780189
    18365.472900       0.779475
    18399.264000       0.778728
    18433.179700       0.777947
    18467.220700       0.777132
    18501.387600       0.776281
    18535.681200       0.775395
    18570.102100       0.774472
    18604.651200       0.773512
    18639.329000       0.772513
    18674.136300       0.771476
    18709.073900       0.770399
    18744.142500       0.769283
    18779.342700       0.768125
    18814.675400       0.766926
    18850.141400       0.765685
    18885.741300       0.764400
    18921.475900       0.763072
    18957.346000       0.761700
    18993.352300       0.760283
    19029.495700       0.758820
    19065.776900       0.757312
    19102.196800       0.755756
    19138.756000       0.754152
    19175.455400       0.752501
    19212.295900       0.750800
    19249.278200       0.749051
    19286.403100       0.747251
    19323.671500       0.745400
    19361.084200       0.743499
    19398.642100       0.741545
    19436.346000       0.739539
    19474.196700       0.737480
    19512.195100       0.735368
    19550.342100       0.733201
    19588.638600       0.730980
    19627.085400       0.728703
    19665.683400       0.726371
    19704.433500       0.723983
    19743.336600       0.721538
    19782.393700       0.719036
    19821.605600       0.716476
    19860.973200       0.713859
    19900.497500       0.711182
    19940.179500       0.708447
    19980.020000       0.705652
    20020.020000       0.702798
    20060.180500       0.699883
    20100.502500       0.696908
    20140.986900       0.693872
    20181.634700       0.690775
    20222.446900       0.687616
    20263.424500       0.684395
    20304.568500       0.681113
    20345.880000       0.677767
    20387.359800       0.674359
    20429.009200       0.670888
    20470.829100       0.667354
    20512.820500       0.663757
    20554.984600       0.660096
    20597.322300       0.656371
    20639.834900       0.652583
    20682.523300       0.648730
    20725.388600       0.644814
    20768.432000       0.640833
    20811.654500       0.636789
    20855.057400       0.632679
    20898.641600       0.628506
    20942.408400       0.624269
    20986.358900       0.619967
    21030.494200       0.615601
    21074.815600       0.611171
    21119.324200       0.606677
    21164.021200       0.602119
    21208.907700       0.597498
    21253.985100       0.592813
    21299.254500       0.588065
    21344.717200       0.583253
    21390.374300       0.578379
    21436.227200       0.573443
    21482.277100       0.568444
    21528.525300       0.563383
    21574.973000       0.558261
    21621.621600       0.553078
    21668.472400       0.547834
    21715.526600       0.542531
    21762.785600       0.537167
    21810.250800       0.531744
    21857.923500       0.526263
    21905.805000       0.520724
    21953.896800       0.515127
    22002.200200       0.509474
    22050.716600       0.503764
    22099.447500       0.498000
    22148.394200       0.492181
    22197.558300       0.486308
    22246.941000       0.480382
    22296.544000       0.474404
    22346.368700       0.468375
    22396.416600       0.462296
    22446.689100       0.456168
    22497.187900       0.449992
    22547.914300       0.443768
    22598.870100       0.437498
    22650.056600       0.431184
    22701.475600       0.424825
    22753.128600       0.418425
    22805.017100       0.411982
    22857.142900       0.405500
    22909.507400       0.398980
    22962.112500       0.392422
    23014.959700       0.385828
    23068.050700       0.379199
    23121.387300       0.372539
    23174.971000       0.365846
    23228.803700       0.359124
    23282.887100       0.352374
    23337.222900       0.345598
    23391.812900       0.338797
    23446.658900       0.331973
    23501.762600       0.325128
    23557.126000       0.318264
    23612.750900       0.311382
    23668.639100       0.304486
    23724.792400       0.297576
    23781.212800       0.290656
    23837.902300       0.283726
    23894.862600       0.276789
    23952.095800       0.269848
    24009.603800       0.262905
    24067.388700       0.255961
    24125.452400       0.249020
    24183.796900       0.242084
    24242.424200       0.235156
    24301.336600       0.228237
    24360.535900       0.221331
    24420.024400       0.214440
    24479.804200       0.207567
    24539.877300       0.200714
    24600.246000       0.193886
    24660.912500       0.187083
    24721.878900       0.180310
    24783.147500       0.173570
    24844.720500       0.166865
    24906.600200       0.160198
    24968.789000       0.153573
    25031.289100       0.146994
    25094.102900       0.140462
    25157.232700       0.133983
    25220.681000       0.127558
    25284.450100       0.121192
    25348.542500       0.114889
    25412.960600       0.108651
    25477.707000       0.102483
