2, GCOM-C SGLI  IR channel 2 from file JAXA_GCOMC_SGLI_TIR_RSR_V5.csv
Number of data points:
801
Wavenumber (cm-1)   Filter response
      714.285700       0.000021
      714.540900       0.000022
      714.796300       0.000022
      715.051800       0.000022
      715.307600       0.000022
      715.563500       0.000023
      715.819600       0.000023
      716.075900       0.000023
      716.332400       0.000023
      716.589000       0.000024
      716.845900       0.000024
      717.102900       0.000024
      717.360100       0.000025
      717.617500       0.000025
      717.875100       0.000025
      718.132900       0.000026
      718.390800       0.000026
      718.648900       0.000026
      718.907300       0.000027
      719.165800       0.000027
      719.424500       0.000028
      719.683300       0.000028
      719.942400       0.000028
      720.201700       0.000029
      720.461100       0.000029
      720.720700       0.000030
      720.980500       0.000030
      721.240500       0.000031
      721.500700       0.000031
      721.761100       0.000032
      722.021700       0.000032
      722.282400       0.000033
      722.543400       0.000033
      722.804500       0.000034
      723.065800       0.000034
      723.327300       0.000035
      723.589000       0.000035
      723.850900       0.000036
      724.113000       0.000036
      724.375200       0.000037
      724.637700       0.000038
      724.900300       0.000038
      725.163200       0.000039
      725.426200       0.000040
      725.689400       0.000040
      725.952800       0.000041
      726.216400       0.000041
      726.480200       0.000042
      726.744200       0.000043
      727.008400       0.000044
      727.272700       0.000044
      727.537300       0.000045
      727.802000       0.000046
      728.067000       0.000047
      728.332100       0.000047
      728.597400       0.000048
      728.863000       0.000049
      729.128700       0.000050
      729.394600       0.000051
      729.660700       0.000052
      729.927000       0.000053
      730.193500       0.000053
      730.460200       0.000054
      730.727100       0.000055
      730.994200       0.000056
      731.261400       0.000057
      731.528900       0.000058
      731.796600       0.000059
      732.064400       0.000060
      732.332500       0.000061
      732.600700       0.000062
      732.869200       0.000063
      733.137800       0.000064
      733.406700       0.000065
      733.675700       0.000066
      733.945000       0.000067
      734.214400       0.000068
      734.484000       0.000069
      734.753900       0.000071
      735.023900       0.000072
      735.294100       0.000073
      735.564500       0.000075
      735.835200       0.000076
      736.106000       0.000077
      736.377000       0.000079
      736.648300       0.000080
      736.919700       0.000082
      737.191300       0.000083
      737.463100       0.000085
      737.735200       0.000086
      738.007400       0.000088
      738.279800       0.000090
      738.552400       0.000091
      738.825300       0.000093
      739.098300       0.000095
      739.371500       0.000097
      739.645000       0.000098
      739.918600       0.000100
      740.192500       0.000102
      740.466500       0.000104
      740.740700       0.000106
      741.015200       0.000108
      741.289800       0.000110
      741.564700       0.000112
      741.839800       0.000114
      742.115000       0.000117
      742.390500       0.000119
      742.666200       0.000121
      742.942100       0.000123
      743.218100       0.000126
      743.494400       0.000128
      743.770900       0.000131
      744.047600       0.000133
      744.324500       0.000136
      744.601600       0.000138
      744.879000       0.000141
      745.156500       0.000144
      745.434200       0.000147
      745.712200       0.000150
      745.990300       0.000153
      746.268700       0.000156
      746.547200       0.000159
      746.826000       0.000162
      747.105000       0.000166
      747.384200       0.000169
      747.663600       0.000172
      747.943200       0.000176
      748.223000       0.000179
      748.503000       0.000183
      748.783200       0.000186
      749.063700       0.000190
      749.344300       0.000194
      749.625200       0.000198
      749.906300       0.000202
      750.187500       0.000206
      750.469000       0.000210
      750.750800       0.000215
      751.032700       0.000219
      751.314800       0.000224
      751.597100       0.000229
      751.879700       0.000234
      752.162500       0.000239
      752.445400       0.000245
      752.728600       0.000251
      753.012000       0.000257
      753.295700       0.000263
      753.579500       0.000270
      753.863600       0.000277
      754.147800       0.000284
      754.432300       0.000291
      754.717000       0.000298
      755.001900       0.000306
      755.287000       0.000314
      755.572300       0.000322
      755.857900       0.000330
      756.143700       0.000338
      756.429700       0.000347
      756.715900       0.000356
      757.002300       0.000365
      757.288900       0.000375
      757.575800       0.000385
      757.862800       0.000395
      758.150100       0.000406
      758.437600       0.000417
      758.725300       0.000428
      759.013300       0.000440
      759.301400       0.000452
      759.589800       0.000464
      759.878400       0.000477
      760.167200       0.000490
      760.456300       0.000504
      760.745500       0.000518
      761.035000       0.000533
      761.324700       0.000548
      761.614600       0.000564
      761.904800       0.000580
      762.195100       0.000597
      762.485700       0.000614
      762.776500       0.000631
      763.067500       0.000650
      763.358800       0.000669
      763.650200       0.000689
      763.941900       0.000709
      764.233900       0.000731
      764.526000       0.000753
      764.818400       0.000776
      765.110900       0.000799
      765.403800       0.000824
      765.696800       0.000850
      765.990000       0.000876
      766.283500       0.000903
      766.577200       0.000932
      766.871200       0.000961
      767.165300       0.000991
      767.459700       0.001023
      767.754300       0.001055
      768.049200       0.001088
      768.344200       0.001123
      768.639500       0.001158
      768.935000       0.001195
      769.230800       0.001233
      769.526700       0.001271
      769.822900       0.001310
      770.119400       0.001350
      770.416000       0.001392
      770.712900       0.001435
      771.010000       0.001480
      771.307400       0.001526
      771.604900       0.001574
      771.902700       0.001623
      772.200800       0.001675
      772.499000       0.001729
      772.797500       0.001785
      773.096300       0.001844
      773.395200       0.001904
      773.694400       0.001968
      773.993800       0.002033
      774.293500       0.002102
      774.593300       0.002173
      774.893500       0.002247
      775.193800       0.002324
      775.494400       0.002403
      775.795200       0.002485
      776.096200       0.002570
      776.397500       0.002659
      776.699000       0.002752
      777.000800       0.002848
      777.302800       0.002949
      777.605000       0.003054
      777.907400       0.003164
      778.210100       0.003278
      778.513000       0.003439
      778.816200       0.003624
      779.119600       0.003833
      779.423200       0.004063
      779.727100       0.004315
      780.031200       0.004585
      780.335500       0.004873
      780.640100       0.005178
      780.944900       0.005498
      781.250000       0.005831
      781.555300       0.006176
      781.860800       0.006532
      782.166600       0.006897
      782.472600       0.007270
      782.778900       0.007650
      783.085400       0.008034
      783.392100       0.008422
      783.699100       0.008813
      784.006300       0.009204
      784.313700       0.009594
      784.621400       0.009983
      784.929400       0.010368
      785.237500       0.010793
      785.546000       0.011219
      785.854600       0.011646
      786.163500       0.012075
      786.472700       0.012504
      786.782100       0.012935
      787.091700       0.013367
      787.401600       0.013801
      787.711700       0.014226
      788.022100       0.015003
      788.332700       0.015854
      788.643500       0.016706
      788.954600       0.017559
      789.266000       0.018412
      789.577600       0.019267
      789.889400       0.020121
      790.201500       0.020976
      790.513800       0.021831
      790.826400       0.022686
      791.139200       0.023541
      791.452300       0.024396
      791.765600       0.025556
      792.079200       0.027120
      792.393000       0.028685
      792.707100       0.030252
      793.021400       0.031820
      793.336000       0.033391
      793.650800       0.034963
      793.965900       0.036539
      794.281200       0.038117
      794.596700       0.039698
      794.912600       0.041282
      795.228600       0.042868
      795.544900       0.044866
      795.861500       0.049135
      796.178300       0.053411
      796.495400       0.057693
      796.812700       0.061984
      797.130300       0.066282
      797.448200       0.070590
      797.766300       0.074906
      798.084600       0.079233
      798.403200       0.083570
      798.722000       0.087918
      799.041200       0.092277
      799.360500       0.096649
      799.680100       0.104939
      800.000000       0.113278
      800.320100       0.121645
      800.640500       0.130036
      800.961200       0.138453
      801.282100       0.146895
      801.603200       0.155365
      801.924600       0.163861
      802.246300       0.172386
      802.568200       0.180939
      802.890400       0.189520
      803.212900       0.198127
      803.535600       0.211401
      803.858500       0.224960
      804.181700       0.238553
      804.505200       0.252183
      804.829000       0.265845
      805.153000       0.279532
      805.477200       0.293245
      805.801800       0.306982
      806.126600       0.320738
      806.451600       0.334509
      806.776900       0.348282
      807.102500       0.362188
      807.428300       0.381441
      807.754400       0.400717
      808.080800       0.420022
      808.407400       0.439351
      808.734300       0.458705
      809.061500       0.478092
      809.388900       0.497510
      809.716600       0.516958
      810.044600       0.536442
      810.372800       0.555961
      810.701300       0.575514
      811.030000       0.594294
      811.359000       0.610012
      811.688300       0.625757
      812.017900       0.641530
      812.347700       0.657331
      812.677800       0.673159
      813.008100       0.689017
      813.338800       0.704627
      813.669700       0.720253
      814.000800       0.735896
      814.332200       0.751558
      814.664000       0.767237
      814.995900       0.775556
      815.328200       0.776647
      815.660700       0.777737
      815.993500       0.778827
      816.326500       0.779913
      816.659900       0.780998
      816.993500       0.782085
      817.327300       0.783172
      817.661500       0.784262
      817.995900       0.785361
      818.330600       0.786474
      818.665600       0.787596
      819.000800       0.785366
      819.336300       0.782825
      819.672100       0.780289
      820.008200       0.777087
      820.344500       0.773879
      820.681200       0.770659
      821.018100       0.767400
      821.355200       0.764097
      821.692700       0.760756
      822.030400       0.757367
      822.368400       0.753921
      822.706700       0.752811
      823.045300       0.754837
      823.384100       0.756826
      823.723200       0.758791
      824.062600       0.760773
      824.402300       0.762767
      824.742300       0.764775
      825.082500       0.766819
      825.423000       0.768905
      825.763800       0.771018
      826.104900       0.773144
      826.446300       0.775400
      826.787900       0.778492
      827.129900       0.781547
      827.472100       0.784572
      827.814600       0.787565
      828.157300       0.790514
      828.500400       0.793415
      828.843800       0.796291
      829.187400       0.799160
      829.531300       0.802007
      829.875500       0.804865
      830.220000       0.807761
      830.564800       0.815388
      830.909800       0.824330
      831.255200       0.833302
      831.600800       0.842301
      831.946800       0.851308
      832.293000       0.860320
      832.639500       0.869343
      832.986300       0.878346
      833.333300       0.887321
      833.680700       0.898585
      834.028400       0.909868
      834.376300       0.917233
      834.724500       0.922181
      835.073100       0.927147
      835.421900       0.932128
      835.771000       0.937129
      836.120400       0.942162
      836.470100       0.947229
      836.820100       0.952323
      837.170400       0.957439
      837.520900       0.962583
      837.871800       0.967735
      838.223000       0.970944
      838.574400       0.972599
      838.926200       0.974225
      839.278200       0.975807
      839.630600       0.977353
      839.983200       0.978859
      840.336100       0.980320
      840.689400       0.984963
      841.042900       0.989592
      841.396700       0.994207
      841.750800       0.998809
      842.105300       1.000000
      842.460000       0.998820
      842.815000       0.997594
      843.170300       0.996329
      843.525900       0.995023
      843.881900       0.993679
      844.238100       0.992305
      844.594600       0.990898
      844.951400       0.989458
      845.308500       0.987991
      845.666000       0.986493
      846.023700       0.985949
      846.381700       0.985741
      846.740100       0.985503
      847.098700       0.985222
      847.457600       0.984899
      847.816900       0.983579
      848.176400       0.982213
      848.536300       0.980797
      848.896400       0.979352
      849.256900       0.977885
      849.617700       0.976391
      849.978800       0.972603
      850.340100       0.968749
      850.701800       0.964896
      851.063800       0.961068
      851.426100       0.957270
      851.788800       0.953493
      852.151700       0.949730
      852.514900       0.945988
      852.878500       0.942246
      853.242300       0.938485
      853.606500       0.931013
      853.971000       0.915050
      854.335800       0.898967
      854.700900       0.882771
      855.066300       0.866415
      855.432000       0.849943
      855.798000       0.833365
      856.164400       0.816688
      856.531000       0.799909
      856.898000       0.783030
      857.265300       0.766058
      857.632900       0.747362
      858.000900       0.727966
      858.369100       0.708448
      858.737700       0.688801
      859.106500       0.669010
      859.475700       0.649077
      859.845200       0.628995
      860.215100       0.608752
      860.585200       0.588353
      860.955700       0.567796
      861.326400       0.548320
      861.697500       0.532197
      862.069000       0.515947
      862.440700       0.499067
      862.812800       0.482096
      863.185200       0.465039
      863.557900       0.447896
      863.930900       0.430670
      864.304200       0.413362
      864.677900       0.395973
      865.051900       0.378508
      865.426200       0.363036
      865.800900       0.347777
      866.175800       0.332459
      866.551100       0.317082
      866.926700       0.301654
      867.302700       0.286178
      867.679000       0.270653
      868.055600       0.255086
      868.432500       0.239476
      868.809700       0.223822
      869.187300       0.212202
      869.565200       0.203351
      869.943500       0.194459
      870.322000       0.185541
      870.700900       0.176597
      871.080100       0.167621
      871.459700       0.158612
      871.839600       0.149570
      872.219800       0.140493
      872.600300       0.131381
      872.981200       0.124252
      873.362400       0.120178
      873.744000       0.116088
      874.125900       0.111987
      874.508100       0.107874
      874.890600       0.103746
      875.273500       0.099605
      875.656700       0.095449
      876.040300       0.091275
      876.424200       0.087082
      876.808400       0.083227
      877.193000       0.080233
      877.577900       0.077191
      877.963100       0.074137
      878.348700       0.071072
      878.734600       0.067995
      879.120900       0.064912
      879.507500       0.061821
      879.894400       0.058723
      880.281700       0.055620
      880.669300       0.052922
      881.057300       0.051337
      881.445600       0.049749
      881.834200       0.048157
      882.223200       0.046561
      882.612500       0.044960
      883.002200       0.043354
      883.392200       0.041744
      883.782600       0.040128
      884.173300       0.038508
      884.564400       0.037079
      884.955800       0.036028
      885.347500       0.034953
      885.739600       0.033876
      886.132000       0.032797
      886.524800       0.031717
      886.918000       0.030636
      887.311400       0.029553
      887.705300       0.028469
      888.099500       0.027383
      888.494000       0.026488
      888.888900       0.025786
      889.284100       0.025085
      889.679700       0.024383
      890.075700       0.023680
      890.472000       0.022976
      890.868600       0.022270
      891.265600       0.021561
      891.663000       0.020850
      892.060700       0.020136
      892.458700       0.019577
      892.857100       0.019073
      893.255900       0.018563
      893.655000       0.018051
      894.054500       0.017539
      894.454400       0.017027
      894.854600       0.016515
      895.255100       0.016004
      895.656100       0.015493
      896.057300       0.014997
      896.459000       0.014737
      896.861000       0.014478
      897.263300       0.014217
      897.666100       0.013957
      898.069200       0.013695
      898.472600       0.013432
      898.876400       0.013168
      899.280600       0.012902
      899.685100       0.012635
      900.090000       0.012361
      900.495300       0.012079
      900.900900       0.011796
      901.306900       0.011510
      901.713300       0.011224
      902.120000       0.010938
      902.527100       0.010651
      902.934500       0.010366
      903.342400       0.010080
      903.750600       0.009747
      904.159100       0.009377
      904.568100       0.008975
      904.977400       0.008546
      905.387100       0.008094
      905.797100       0.007625
      906.207500       0.007143
      906.618300       0.006653
      907.029500       0.006160
      907.441000       0.005669
      907.852900       0.005185
      908.265200       0.004712
      908.677900       0.004256
      909.090900       0.003821
      909.504300       0.003412
      909.918100       0.003034
      910.332300       0.002692
      910.746800       0.002390
      911.161700       0.002135
      911.577000       0.001929
      911.992700       0.001779
      912.408800       0.001689
      912.825200       0.001649
      913.242000       0.001610
      913.659200       0.001573
      914.076800       0.001536
      914.494700       0.001501
      914.913100       0.001467
      915.331800       0.001435
      915.750900       0.001403
      916.170400       0.001372
      916.590300       0.001343
      917.010500       0.001314
      917.431200       0.001286
      917.852200       0.001259
      918.273600       0.001232
      918.695500       0.001206
      919.117600       0.001181
      919.540200       0.001157
      919.963200       0.001133
      920.386600       0.001110
      920.810300       0.001087
      921.234500       0.001065
      921.659000       0.001044
      922.083900       0.001023
      922.509200       0.001003
      922.934900       0.000984
      923.361000       0.000965
      923.787500       0.000947
      924.214400       0.000929
      924.641700       0.000912
      925.069400       0.000895
      925.497500       0.000878
      925.925900       0.000863
      926.354800       0.000847
      926.784100       0.000832
      927.213700       0.000817
      927.643800       0.000803
      928.074200       0.000789
      928.505100       0.000776
      928.936400       0.000763
      929.368000       0.000750
      929.800100       0.000738
      930.232600       0.000726
      930.665400       0.000714
      931.098700       0.000703
      931.532400       0.000692
      931.966400       0.000681
      932.400900       0.000670
      932.835800       0.000660
      933.271100       0.000650
      933.706800       0.000641
      934.142900       0.000632
      934.579400       0.000623
      935.016400       0.000614
      935.453700       0.000606
      935.891400       0.000597
      936.329600       0.000589
      936.768100       0.000582
      937.207100       0.000574
      937.646500       0.000567
      938.086300       0.000560
      938.526500       0.000553
      938.967100       0.000546
      939.408200       0.000539
      939.849600       0.000533
      940.291500       0.000527
      940.733800       0.000520
      941.176500       0.000515
      941.619600       0.000509
      942.063100       0.000503
      942.507100       0.000498
      942.951400       0.000492
      943.396200       0.000487
      943.841400       0.000482
      944.287100       0.000477
      944.733100       0.000472
      945.179600       0.000468
      945.626500       0.000463
      946.073800       0.000459
      946.521500       0.000455
      946.969700       0.000451
      947.418300       0.000447
      947.867300       0.000443
      948.316700       0.000439
      948.766600       0.000436
      949.216900       0.000432
      949.667600       0.000429
      950.118800       0.000425
      950.570300       0.000422
      951.022300       0.000418
      951.474800       0.000415
      951.927700       0.000412
      952.381000       0.000409
      952.834700       0.000406
      953.288800       0.000403
      953.743400       0.000400
      954.198500       0.000398
      954.653900       0.000395
      955.109800       0.000392
      955.566200       0.000390
      956.022900       0.000387
      956.480200       0.000385
      956.937800       0.000383
      957.395900       0.000380
      957.854400       0.000378
      958.313400       0.000376
      958.772800       0.000374
      959.232600       0.000371
      959.692900       0.000369
      960.153600       0.000367
      960.614800       0.000365
      961.076400       0.000363
      961.538500       0.000361
      962.001000       0.000359
      962.463900       0.000356
      962.927300       0.000354
      963.391100       0.000352
      963.855400       0.000350
      964.320200       0.000347
      964.785300       0.000345
      965.251000       0.000343
      965.717000       0.000340
      966.183600       0.000338
      966.650600       0.000335
      967.118000       0.000332
      967.585900       0.000329
      968.054200       0.000326
      968.523000       0.000323
      968.992200       0.000320
      969.461900       0.000316
      969.932100       0.000313
      970.402700       0.000309
      970.873800       0.000305
      971.345300       0.000301
      971.817300       0.000297
      972.289700       0.000293
      972.762600       0.000288
      973.236000       0.000284
      973.709800       0.000279
      974.184100       0.000275
      974.658900       0.000270
      975.134100       0.000265
      975.609800       0.000260
      976.085900       0.000255
      976.562500       0.000249
      977.039600       0.000244
      977.517100       0.000239
      977.995100       0.000233
      978.473600       0.000228
      978.952500       0.000223
      979.431900       0.000217
      979.911800       0.000212
      980.392200       0.000207
      980.873000       0.000202
      981.354300       0.000196
      981.836000       0.000191
      982.318300       0.000186
      982.801000       0.000181
      983.284200       0.000176
      983.767800       0.000171
      984.252000       0.000166
      984.736600       0.000161
      985.221700       0.000156
      985.707200       0.000152
      986.193300       0.000147
      986.679800       0.000143
      987.166800       0.000138
      987.654300       0.000134
      988.142300       0.000130
      988.630700       0.000126
      989.119700       0.000122
      989.609100       0.000118
      990.099000       0.000114
      990.589400       0.000111
      991.080300       0.000107
      991.571600       0.000104
      992.063500       0.000101
      992.555800       0.000098
      993.048700       0.000095
      993.542000       0.000092
      994.035800       0.000089
      994.530100       0.000086
      995.024900       0.000083
      995.520200       0.000081
      996.015900       0.000078
      996.512200       0.000076
      997.009000       0.000074
      997.506200       0.000072
      998.004000       0.000069
      998.502200       0.000067
      999.001000       0.000066
      999.500200       0.000064
     1000.000000       0.000062
