126,   126, MVIRI VIS channel from srf_MET7_2013123_2013124_1801-Release_S10EE_10.dat
Number of data points:
793
Wavenumber (cm-1)   Filter response
     8442.380800       0.000000
     8449.514200       0.000000
     8456.659600       0.000004
     8463.817200       0.000057
     8470.986900       0.000168
     8478.168700       0.000336
     8485.362700       0.000558
     8492.569000       0.000835
     8499.787500       0.001163
     8507.018300       0.001542
     8514.261400       0.001970
     8521.516800       0.002445
     8528.784600       0.002966
     8536.064900       0.003533
     8543.357500       0.004143
     8550.662700       0.004795
     8557.980300       0.005489
     8565.310500       0.006223
     8572.653200       0.006996
     8580.008600       0.007807
     8587.376600       0.008655
     8594.757200       0.009540
     8602.150500       0.010459
     8609.556600       0.011413
     8616.975400       0.012400
     8624.407100       0.013419
     8631.851500       0.014471
     8639.308900       0.015554
     8646.779100       0.016667
     8654.262200       0.017810
     8661.758300       0.018982
     8669.267400       0.020183
     8676.789600       0.021411
     8684.324800       0.022667
     8691.873100       0.023950
     8699.434500       0.025259
     8707.009100       0.026595
     8714.596900       0.027955
     8722.198000       0.029341
     8729.812300       0.030751
     8737.439900       0.032186
     8745.080900       0.033645
     8752.735200       0.035127
     8760.403000       0.036633
     8768.084200       0.038162
     8775.778900       0.039713
     8783.487000       0.041287
     8791.208800       0.042883
     8798.944100       0.044502
     8806.693100       0.046143
     8814.455700       0.047805
     8822.232000       0.049489
     8830.022100       0.051194
     8837.825900       0.052921
     8845.643500       0.054669
     8853.475000       0.056438
     8861.320300       0.058228
     8869.179600       0.060039
     8877.052800       0.061871
     8884.940000       0.063724
     8892.841300       0.065597
     8900.756600       0.067492
     8908.686000       0.069407
     8916.629500       0.071343
     8924.587200       0.073300
     8932.559200       0.075277
     8940.545400       0.077276
     8948.545900       0.079295
     8956.560700       0.081335
     8964.589900       0.083396
     8972.633500       0.085478
     8980.691500       0.087581
     8988.764000       0.089705
     8996.851100       0.091850
     9004.952700       0.094016
     9013.068900       0.096203
     9021.199800       0.098412
     9029.345400       0.100642
     9037.505600       0.102893
     9045.680700       0.105166
     9053.870500       0.107461
     9062.075200       0.109777
     9070.294800       0.112115
     9078.529300       0.114475
     9086.778700       0.116857
     9095.043200       0.119261
     9103.322700       0.121686
     9111.617300       0.124135
     9119.927000       0.126605
     9128.251900       0.129098
     9136.592100       0.131613
     9144.947400       0.134151
     9153.318100       0.136711
     9161.704100       0.139295
     9170.105500       0.141901
     9178.522300       0.144530
     9186.954500       0.147181
     9195.402300       0.149856
     9203.865600       0.152554
     9212.344500       0.155275
     9220.839100       0.158020
     9229.349300       0.160788
     9237.875300       0.163579
     9246.417000       0.166393
     9254.974500       0.169231
     9263.547900       0.172093
     9272.137200       0.174978
     9280.742500       0.177887
     9289.363700       0.180819
     9298.000900       0.183775
     9306.654300       0.186755
     9315.323700       0.189758
     9324.009300       0.192785
     9332.711200       0.195837
     9341.429200       0.198911
     9350.163600       0.202010
     9358.914400       0.205132
     9367.681500       0.208278
     9376.465100       0.211448
     9385.265100       0.214641
     9394.081700       0.217858
     9402.914900       0.221099
     9411.764700       0.224364
     9420.631200       0.227652
     9429.514400       0.230963
     9438.414300       0.234298
     9447.331100       0.237656
     9456.264800       0.241038
     9465.215300       0.244444
     9474.182900       0.247872
     9483.167400       0.251323
     9492.169000       0.254797
     9501.187600       0.258295
     9510.223500       0.261815
     9519.276500       0.265357
     9528.346800       0.268923
     9537.434400       0.272511
     9546.539400       0.276120
     9555.661700       0.279753
     9564.801500       0.283407
     9573.958800       0.287083
     9583.133700       0.290781
     9592.326100       0.294500
     9601.536200       0.298241
     9610.764100       0.302003
     9620.009600       0.305786
     9629.273000       0.309590
     9638.554200       0.313414
     9647.853400       0.317259
     9657.170400       0.321124
     9666.505600       0.325010
     9675.858700       0.328915
     9685.230000       0.332839
     9694.619500       0.336783
     9704.027200       0.340745
     9713.453100       0.344727
     9722.897400       0.348728
     9732.360100       0.352746
     9741.841200       0.356783
     9751.340800       0.360837
     9760.859000       0.364909
     9770.395700       0.368998
     9779.951100       0.373103
     9789.525200       0.377226
     9799.118100       0.381365
     9808.729800       0.385520
     9818.360300       0.389691
     9828.009800       0.393876
     9837.678300       0.398078
     9847.365800       0.402294
     9857.072400       0.406523
     9866.798200       0.410768
     9876.543200       0.415026
     9886.307500       0.419297
     9896.091000       0.423582
     9905.894000       0.427878
     9915.716400       0.432188
     9925.558300       0.436509
     9935.419800       0.440841
     9945.300800       0.445186
     9955.201600       0.449540
     9965.122100       0.453905
     9975.062300       0.458280
     9985.022500       0.462665
     9995.002500       0.467059
    10005.002500       0.471461
    10015.022500       0.475872
    10025.062700       0.480291
    10035.122900       0.484718
    10045.203400       0.489152
    10055.304200       0.493592
    10065.425300       0.498039
    10075.566800       0.502492
    10085.728700       0.506950
    10095.911200       0.511413
    10106.114200       0.515881
    10116.337900       0.520353
    10126.582300       0.524828
    10136.847400       0.529307
    10147.133400       0.533789
    10157.440300       0.538273
    10167.768200       0.542758
    10178.117000       0.547245
    10188.487000       0.551734
    10198.878100       0.556223
    10209.290500       0.560711
    10219.724100       0.565200
    10230.179000       0.569687
    10240.655400       0.574173
    10251.153300       0.578658
    10261.672700       0.583140
    10272.213700       0.587619
    10282.776300       0.592095
    10293.360800       0.596567
    10303.967000       0.601036
    10314.595200       0.605499
    10325.245200       0.609958
    10335.917300       0.614411
    10346.611500       0.618857
    10357.327800       0.623298
    10368.066400       0.627731
    10378.827200       0.632157
    10389.610400       0.636574
    10400.416000       0.640984
    10411.244100       0.645384
    10422.094800       0.649775
    10432.968200       0.654156
    10443.864200       0.658527
    10454.783100       0.662887
    10465.724800       0.667235
    10476.689400       0.671572
    10487.677000       0.675897
    10498.687700       0.680209
    10509.721500       0.684507
    10520.778500       0.688792
    10531.858900       0.693063
    10542.962600       0.697320
    10554.089700       0.701561
    10565.240400       0.705787
    10576.414600       0.709997
    10587.612500       0.714190
    10598.834100       0.718367
    10610.079600       0.722526
    10621.348900       0.726667
    10632.642200       0.730790
    10643.959600       0.734895
    10655.301000       0.738980
    10666.666700       0.743046
    10678.056600       0.747091
    10689.470900       0.751117
    10700.909600       0.755121
    10712.372800       0.759104
    10723.860600       0.763065
    10735.373100       0.767005
    10746.910300       0.770921
    10758.472300       0.774815
    10770.059200       0.778685
    10781.671200       0.782532
    10793.308100       0.786354
    10804.970300       0.790151
    10816.657700       0.793924
    10828.370300       0.797671
    10840.108400       0.801392
    10851.871900       0.805087
    10863.661100       0.808756
    10875.475800       0.812398
    10887.316300       0.816012
    10899.182600       0.819598
    10911.074700       0.823157
    10922.992900       0.826687
    10934.937100       0.830188
    10946.907500       0.833660
    10958.904100       0.837103
    10970.927000       0.840516
    10982.976400       0.843899
    10995.052200       0.847251
    11007.154700       0.850572
    11019.283700       0.853863
    11031.439600       0.857122
    11043.622300       0.860349
    11055.832000       0.863544
    11068.068600       0.866707
    11080.332400       0.869837
    11092.623400       0.872934
    11104.941700       0.875998
    11117.287400       0.879028
    11129.660500       0.882025
    11142.061300       0.884988
    11154.489700       0.887916
    11166.945800       0.890810
    11179.429800       0.893669
    11191.941800       0.896493
    11204.481800       0.899282
    11217.049900       0.902035
    11229.646300       0.904752
    11242.270900       0.907434
    11254.924000       0.910079
    11267.605600       0.912688
    11280.315800       0.915261
    11293.054800       0.917796
    11305.822500       0.920295
    11318.619100       0.922757
    11331.444800       0.925181
    11344.299500       0.927568
    11357.183400       0.929917
    11370.096600       0.932229
    11383.039300       0.934503
    11396.011400       0.936738
    11409.013100       0.938936
    11422.044500       0.941095
    11435.105800       0.943216
    11448.196900       0.945298
    11461.318100       0.947341
    11474.469300       0.949346
    11487.650800       0.951312
    11500.862600       0.953238
    11514.104800       0.955126
    11527.377500       0.956975
    11540.680900       0.958785
    11554.015000       0.960555
    11567.380000       0.962286
    11580.775900       0.963978
    11594.202900       0.965631
    11607.661100       0.967244
    11621.150500       0.968817
    11634.671300       0.970352
    11648.223600       0.971846
    11661.807600       0.973302
    11675.423200       0.974718
    11689.070700       0.976094
    11702.750100       0.977431
    11716.461600       0.978729
    11730.205300       0.979987
    11743.981200       0.981206
    11757.789500       0.982385
    11771.630400       0.983526
    11785.503800       0.984627
    11799.410000       0.985689
    11813.349100       0.986712
    11827.321100       0.987696
    11841.326200       0.988641
    11855.364600       0.989547
    11869.436200       0.990415
    11883.541300       0.991244
    11897.680000       0.992034
    11911.852300       0.992786
    11926.058400       0.993500
    11940.298500       0.994175
    11954.572600       0.994813
    11968.880900       0.995413
    11983.223500       0.995975
    11997.600500       0.996499
    12012.012000       0.996986
    12026.458200       0.997436
    12040.939200       0.997849
    12055.455100       0.998225
    12070.006000       0.998564
    12084.592100       0.998867
    12099.213600       0.999133
    12113.870400       0.999364
    12128.562800       0.999558
    12143.290800       0.999717
    12158.054700       0.999840
    12172.854500       0.999928
    12187.690400       0.999982
    12202.562500       1.000000
    12217.471000       0.999984
    12232.415900       0.999934
    12247.397400       0.999849
    12262.415700       0.999731
    12277.470800       0.999579
    12292.563000       0.999395
    12307.692300       0.999177
    12322.858900       0.998927
    12338.062900       0.998644
    12353.304500       0.998329
    12368.583800       0.997983
    12383.900900       0.997605
    12399.256000       0.997196
    12414.649300       0.996756
    12430.080800       0.996286
    12445.550700       0.995785
    12461.059200       0.995255
    12476.606400       0.994695
    12492.192400       0.994106
    12507.817400       0.993488
    12523.481500       0.992842
    12539.185000       0.992167
    12554.927800       0.991465
    12570.710200       0.990735
    12586.532400       0.989978
    12602.394500       0.989195
    12618.296500       0.988385
    12634.238800       0.987549
    12650.221400       0.986687
    12666.244500       0.985801
    12682.308200       0.984889
    12698.412700       0.983954
    12714.558200       0.982994
    12730.744700       0.982010
    12746.972600       0.981004
    12763.241900       0.979974
    12779.552700       0.978922
    12795.905300       0.977848
    12812.299800       0.976753
    12828.736400       0.975636
    12845.215200       0.974498
    12861.736300       0.973341
    12878.300100       0.972163
    12894.906500       0.970965
    12911.555800       0.969749
    12928.248200       0.968514
    12944.983800       0.967261
    12961.762800       0.965990
    12978.585300       0.964701
    12995.451600       0.963396
    13012.361700       0.962074
    13029.316000       0.960737
    13046.314400       0.959383
    13063.357300       0.958015
    13080.444700       0.956631
    13097.576900       0.955234
    13114.754100       0.953823
    13131.976400       0.952398
    13149.243900       0.950960
    13166.556900       0.949510
    13183.915600       0.948048
    13201.320100       0.946575
    13218.770700       0.945090
    13236.267400       0.943595
    13253.810500       0.942089
    13271.400100       0.940574
    13289.036500       0.939049
    13306.719900       0.937516
    13324.450400       0.935974
    13342.228200       0.934424
    13360.053400       0.932866
    13377.926400       0.931302
    13395.847300       0.929731
    13413.816200       0.928154
    13431.833400       0.926571
    13449.899100       0.924983
    13468.013500       0.923390
    13486.176700       0.921793
    13504.388900       0.920192
    13522.650400       0.918588
    13540.961400       0.916980
    13559.322000       0.915370
    13577.732500       0.913758
    13596.193100       0.912144
    13614.703900       0.910529
    13633.265200       0.908913
    13651.877100       0.907296
    13670.540000       0.905680
    13689.253900       0.904064
    13708.019200       0.902449
    13726.836000       0.900835
    13745.704500       0.899223
    13764.624900       0.897613
    13783.597500       0.896006
    13802.622500       0.894402
    13821.700100       0.892801
    13840.830400       0.891204
    13860.013900       0.889611
    13879.250500       0.888022
    13898.540700       0.886439
    13917.884500       0.884861
    13937.282200       0.883289
    13956.734100       0.881723
    13976.240400       0.880163
    13995.801300       0.878610
    14015.417000       0.877065
    14035.087700       0.875527
    14054.813800       0.873998
    14074.595400       0.872476
    14094.432700       0.870964
    14114.326000       0.869460
    14134.275600       0.867966
    14154.281700       0.866482
    14174.344400       0.865008
    14194.464200       0.863544
    14214.641100       0.862091
    14234.875400       0.860649
    14255.167500       0.859219
    14275.517500       0.857800
    14295.925700       0.856393
    14316.392300       0.854998
    14336.917600       0.853617
    14357.501800       0.852248
    14378.145200       0.850892
    14398.848100       0.849550
    14419.610700       0.848221
    14440.433200       0.846906
    14461.316000       0.845606
    14482.259200       0.844320
    14503.263200       0.843049
    14524.328200       0.841793
    14545.454500       0.840552
    14566.642400       0.839327
    14587.892000       0.838117
    14609.203800       0.836923
    14630.577900       0.835745
    14652.014700       0.834584
    14673.514300       0.833439
    14695.077100       0.832310
    14716.703500       0.831199
    14738.393500       0.830104
    14760.147600       0.829027
    14781.966000       0.827967
    14803.849000       0.826924
    14825.796900       0.825899
    14847.809900       0.824892
    14869.888500       0.823903
    14892.032800       0.822932
    14914.243100       0.821978
    14936.519800       0.821043
    14958.863100       0.820127
    14981.273400       0.819229
    15003.750900       0.818349
    15026.296000       0.817488
    15048.909000       0.816645
    15071.590100       0.815821
    15094.339600       0.815016
    15117.158000       0.814229
    15140.045400       0.813461
    15163.002300       0.812712
    15186.028900       0.811982
    15209.125500       0.811271
    15232.292500       0.810578
    15255.530100       0.809905
    15278.838800       0.809250
    15302.218800       0.808613
    15325.670500       0.807996
    15349.194200       0.807397
    15372.790200       0.806817
    15396.458800       0.806255
    15420.200500       0.805711
    15444.015400       0.805186
    15467.904100       0.804680
    15491.866800       0.804191
    15515.903800       0.803721
    15540.015500       0.803268
    15564.202300       0.802834
    15588.464500       0.802417
    15612.802500       0.802017
    15637.216600       0.801635
    15661.707100       0.801270
    15686.274500       0.800922
    15710.919100       0.800591
    15735.641200       0.800277
    15760.441300       0.799979
    15785.319700       0.799698
    15810.276700       0.799432
    15835.312700       0.799182
    15860.428200       0.798948
    15885.623500       0.798729
    15910.899000       0.798526
    15936.255000       0.798337
    15961.691900       0.798162
    15987.210200       0.798002
    16012.810200       0.797856
    16038.492400       0.797724
    16064.257000       0.797604
    16090.104600       0.797498
    16116.035500       0.797405
    16142.050000       0.797324
    16168.148700       0.797255
    16194.332000       0.797198
    16220.600200       0.797152
    16246.953700       0.797116
    16273.393000       0.797092
    16299.918500       0.797078
    16326.530600       0.797073
    16353.229800       0.797078
    16380.016400       0.797092
    16406.890900       0.797114
    16433.853700       0.797144
    16460.905300       0.797182
    16488.046200       0.797227
    16515.276600       0.797279
    16542.597200       0.797338
    16570.008300       0.797402
    16597.510400       0.797471
    16625.103900       0.797545
    16652.789300       0.797624
    16680.567100       0.797707
    16708.437800       0.797792
    16736.401700       0.797881
    16764.459300       0.797972
    16792.611300       0.798064
    16820.857900       0.798158
    16849.199700       0.798253
    16877.637100       0.798347
    16906.170800       0.798441
    16934.801000       0.798534
    16963.528400       0.798626
    16992.353400       0.798715
    17021.276600       0.798801
    17050.298400       0.798884
    17079.419300       0.798963
    17108.639900       0.799038
    17137.960600       0.799107
    17167.382000       0.799170
    17196.904600       0.799227
    17226.528900       0.799276
    17256.255400       0.799318
    17286.084700       0.799351
    17316.017300       0.799376
    17346.053800       0.799390
    17376.194600       0.799395
    17406.440400       0.799388
    17436.791600       0.799369
    17467.248900       0.799338
    17497.812800       0.799294
    17528.483800       0.799236
    17559.262500       0.799163
    17590.149500       0.799076
    17621.145400       0.798972
    17652.250700       0.798852
    17683.466000       0.798715
    17714.791900       0.798559
    17746.228900       0.798385
    17777.777800       0.798191
    17809.439000       0.797977
    17841.213200       0.797743
    17873.101000       0.797486
    17905.103000       0.797207
    17937.219700       0.796906
    17969.451900       0.796580
    18001.800200       0.796230
    18034.265100       0.795854
    18066.847300       0.795453
    18099.547500       0.795024
    18132.366300       0.794568
    18165.304300       0.794084
    18198.362100       0.793571
    18231.540600       0.793028
    18264.840200       0.792455
    18298.261700       0.791850
    18331.805700       0.791214
    18365.472900       0.790544
    18399.264000       0.789842
    18433.179700       0.789105
    18467.220700       0.788333
    18501.387600       0.787525
    18535.681200       0.786681
    18570.102100       0.785800
    18604.651200       0.784881
    18639.329000       0.783923
    18674.136300       0.782927
    18709.073900       0.781890
    18744.142500       0.780812
    18779.342700       0.779693
    18814.675400       0.778531
    18850.141400       0.777327
    18885.741300       0.776079
    18921.475900       0.774786
    18957.346000       0.773449
    18993.352300       0.772066
    19029.495700       0.770637
    19065.776900       0.769160
    19102.196800       0.767636
    19138.756000       0.766063
    19175.455400       0.764442
    19212.295900       0.762771
    19249.278200       0.761049
    19286.403100       0.759276
    19323.671500       0.757452
    19361.084200       0.755576
    19398.642100       0.753646
    19436.346000       0.751664
    19474.196700       0.749627
    19512.195100       0.747535
    19550.342100       0.745389
    19588.638600       0.743187
    19627.085400       0.740928
    19665.683400       0.738613
    19704.433500       0.736240
    19743.336600       0.733809
    19782.393700       0.731321
    19821.605600       0.728773
    19860.973200       0.726165
    19900.497500       0.723498
    19940.179500       0.720771
    19980.020000       0.717983
    20020.020000       0.715134
    20060.180500       0.712223
    20100.502500       0.709251
    20140.986900       0.706216
    20181.634700       0.703118
    20222.446900       0.699958
    20263.424500       0.696734
    20304.568500       0.693446
    20345.880000       0.690094
    20387.359800       0.686679
    20429.009200       0.683198
    20470.829100       0.679653
    20512.820500       0.676043
    20554.984600       0.672368
    20597.322300       0.668627
    20639.834900       0.664821
    20682.523300       0.660950
    20725.388600       0.657012
    20768.432000       0.653009
    20811.654500       0.648940
    20855.057400       0.644804
    20898.641600       0.640603
    20942.408400       0.636335
    20986.358900       0.632002
    21030.494200       0.627603
    21074.815600       0.623137
    21119.324200       0.618606
    21164.021200       0.614009
    21208.907700       0.609347
    21253.985100       0.604619
    21299.254500       0.599826
    21344.717200       0.594967
    21390.374300       0.590045
    21436.227200       0.585057
    21482.277100       0.580006
    21528.525300       0.574890
    21574.973000       0.569712
    21621.621600       0.564470
    21668.472400       0.559165
    21715.526600       0.553798
    21762.785600       0.548370
    21810.250800       0.542880
    21857.923500       0.537330
    21905.805000       0.531719
    21953.896800       0.526050
    22002.200200       0.520321
    22050.716600       0.514535
    22099.447500       0.508690
    22148.394200       0.502790
    22197.558300       0.496834
    22246.941000       0.490822
    22296.544000       0.484757
    22346.368700       0.478638
    22396.416600       0.472467
    22446.689100       0.466244
    22497.187900       0.459972
    22547.914300       0.453650
    22598.870100       0.447280
    22650.056600       0.440864
    22701.475600       0.434401
    22753.128600       0.427894
    22805.017100       0.421344
    22857.142900       0.414751
    22909.507400       0.408118
    22962.112500       0.401446
    23014.959700       0.394736
    23068.050700       0.387990
    23121.387300       0.381209
    23174.971000       0.374395
    23228.803700       0.367549
    23282.887100       0.360673
    23337.222900       0.353769
    23391.812900       0.346839
    23446.658900       0.339884
    23501.762600       0.332907
    23557.126000       0.325909
    23612.750900       0.318892
    23668.639100       0.311858
    23724.792400       0.304809
    23781.212800       0.297748
    23837.902300       0.290676
    23894.862600       0.283596
    23952.095800       0.276510
    24009.603800       0.269420
    24067.388700       0.262329
    24125.452400       0.255240
    24183.796900       0.248154
    24242.424200       0.241075
    24301.336600       0.234004
    24360.535900       0.226945
    24420.024400       0.219900
    24479.804200       0.212872
    24539.877300       0.205865
    24600.246000       0.198880
    24660.912500       0.191921
    24721.878900       0.184990
    24783.147500       0.178092
    24844.720500       0.171229
    24906.600200       0.164404
    24968.789000       0.157621
    25031.289100       0.150882
    25094.102900       0.144192
    25157.232700       0.137554
    25220.681000       0.130971
    25284.450100       0.124447
    25348.542500       0.117986
    25412.960600       0.111591
    25477.707000       0.105267
