81,   81, MVIRI VIS channel from srf_MET7_2007258_2007259_1801-Release_S10EE_10.dat
Number of data points:
793
Wavenumber (cm-1)   Filter response
     8442.380800       0.000000
     8449.514200       0.000000
     8456.659600       0.000004
     8463.817200       0.000056
     8470.986900       0.000164
     8478.168700       0.000329
     8485.362700       0.000547
     8492.569000       0.000818
     8499.787500       0.001139
     8507.018300       0.001510
     8514.261400       0.001929
     8521.516800       0.002395
     8528.784600       0.002906
     8536.064900       0.003461
     8543.357500       0.004058
     8550.662700       0.004698
     8557.980300       0.005377
     8565.310500       0.006097
     8572.653200       0.006854
     8580.008600       0.007649
     8587.376600       0.008480
     8594.757200       0.009347
     8602.150500       0.010248
     8609.556600       0.011183
     8616.975400       0.012151
     8624.407100       0.013150
     8631.851500       0.014181
     8639.308900       0.015243
     8646.779100       0.016335
     8654.262200       0.017456
     8661.758300       0.018605
     8669.267400       0.019783
     8676.789600       0.020988
     8684.324800       0.022220
     8691.873100       0.023478
     8699.434500       0.024763
     8707.009100       0.026073
     8714.596900       0.027408
     8722.198000       0.028768
     8729.812300       0.030152
     8737.439900       0.031559
     8745.080900       0.032991
     8752.735200       0.034446
     8760.403000       0.035924
     8768.084200       0.037425
     8775.778900       0.038948
     8783.487000       0.040493
     8791.208800       0.042061
     8798.944100       0.043650
     8806.693100       0.045261
     8814.455700       0.046893
     8822.232000       0.048547
     8830.022100       0.050222
     8837.825900       0.051918
     8845.643500       0.053635
     8853.475000       0.055373
     8861.320300       0.057132
     8869.179600       0.058911
     8877.052800       0.060711
     8884.940000       0.062532
     8892.841300       0.064373
     8900.756600       0.066235
     8908.686000       0.068118
     8916.629500       0.070021
     8924.587200       0.071944
     8932.559200       0.073888
     8940.545400       0.075853
     8948.545900       0.077839
     8956.560700       0.079845
     8964.589900       0.081871
     8972.633500       0.083919
     8980.691500       0.085987
     8988.764000       0.088076
     8996.851100       0.090186
     9004.952700       0.092317
     9013.068900       0.094469
     9021.199800       0.096642
     9029.345400       0.098836
     9037.505600       0.101051
     9045.680700       0.103288
     9053.870500       0.105546
     9062.075200       0.107826
     9070.294800       0.110127
     9078.529300       0.112450
     9086.778700       0.114795
     9095.043200       0.117162
     9103.322700       0.119550
     9111.617300       0.121961
     9119.927000       0.124394
     9128.251900       0.126849
     9136.592100       0.129326
     9144.947400       0.131826
     9153.318100       0.134348
     9161.704100       0.136893
     9170.105500       0.139460
     9178.522300       0.142050
     9186.954500       0.144663
     9195.402300       0.147299
     9203.865600       0.149958
     9212.344500       0.152640
     9220.839100       0.155345
     9229.349300       0.158073
     9237.875300       0.160824
     9246.417000       0.163599
     9254.974500       0.166397
     9263.547900       0.169219
     9272.137200       0.172064
     9280.742500       0.174932
     9289.363700       0.177824
     9298.000900       0.180740
     9306.654300       0.183679
     9315.323700       0.186642
     9324.009300       0.189628
     9332.711200       0.192639
     9341.429200       0.195672
     9350.163600       0.198730
     9358.914400       0.201811
     9367.681500       0.204916
     9376.465100       0.208045
     9385.265100       0.211197
     9394.081700       0.214373
     9402.914900       0.217572
     9411.764700       0.220795
     9420.631200       0.224042
     9429.514400       0.227312
     9438.414300       0.230606
     9447.331100       0.233922
     9456.264800       0.237263
     9465.215300       0.240627
     9474.182900       0.244013
     9483.167400       0.247423
     9492.169000       0.250856
     9501.187600       0.254312
     9510.223500       0.257790
     9519.276500       0.261292
     9528.346800       0.264816
     9537.434400       0.268362
     9546.539400       0.271931
     9555.661700       0.275522
     9564.801500       0.279135
     9573.958800       0.282770
     9583.133700       0.286427
     9592.326100       0.290105
     9601.536200       0.293805
     9610.764100       0.297526
     9620.009600       0.301269
     9629.273000       0.305032
     9638.554200       0.308816
     9647.853400       0.312621
     9657.170400       0.316446
     9666.505600       0.320291
     9675.858700       0.324156
     9685.230000       0.328041
     9694.619500       0.331945
     9704.027200       0.335868
     9713.453100       0.339811
     9722.897400       0.343772
     9732.360100       0.347752
     9741.841200       0.351750
     9751.340800       0.355766
     9760.859000       0.359799
     9770.395700       0.363851
     9779.951100       0.367919
     9789.525200       0.372004
     9799.118100       0.376106
     9808.729800       0.380224
     9818.360300       0.384358
     9828.009800       0.388507
     9837.678300       0.392673
     9847.365800       0.396853
     9857.072400       0.401047
     9866.798200       0.405257
     9876.543200       0.409480
     9886.307500       0.413717
     9896.091000       0.417967
     9905.894000       0.422230
     9915.716400       0.426506
     9925.558300       0.430794
     9935.419800       0.435094
     9945.300800       0.439406
     9955.201600       0.443728
     9965.122100       0.448062
     9975.062300       0.452406
     9985.022500       0.456760
     9995.002500       0.461124
    10005.002500       0.465497
    10015.022500       0.469879
    10025.062700       0.474269
    10035.122900       0.478667
    10045.203400       0.483073
    10055.304200       0.487486
    10065.425300       0.491906
    10075.566800       0.496332
    10085.728700       0.500764
    10095.911200       0.505202
    10106.114200       0.509645
    10116.337900       0.514092
    10126.582300       0.518544
    10136.847400       0.522999
    10147.133400       0.527459
    10157.440300       0.531920
    10167.768200       0.536384
    10178.117000       0.540851
    10188.487000       0.545318
    10198.878100       0.549787
    10209.290500       0.554257
    10219.724100       0.558726
    10230.179000       0.563196
    10240.655400       0.567665
    10251.153300       0.572132
    10261.672700       0.576598
    10272.213700       0.581062
    10282.776300       0.585523
    10293.360800       0.589982
    10303.967000       0.594436
    10314.595200       0.598887
    10325.245200       0.603333
    10335.917300       0.607775
    10346.611500       0.612211
    10357.327800       0.616641
    10368.066400       0.621065
    10378.827200       0.625482
    10389.610400       0.629892
    10400.416000       0.634294
    10411.244100       0.638687
    10422.094800       0.643073
    10432.968200       0.647449
    10443.864200       0.651815
    10454.783100       0.656171
    10465.724800       0.660517
    10476.689400       0.664852
    10487.677000       0.669175
    10498.687700       0.673487
    10509.721500       0.677786
    10520.778500       0.682072
    10531.858900       0.686344
    10542.962600       0.690603
    10554.089700       0.694848
    10565.240400       0.699078
    10576.414600       0.703292
    10587.612500       0.707491
    10598.834100       0.711675
    10610.079600       0.715841
    10621.348900       0.719990
    10632.642200       0.724122
    10643.959600       0.728237
    10655.301000       0.732333
    10666.666700       0.736410
    10678.056600       0.740467
    10689.470900       0.744506
    10700.909600       0.748524
    10712.372800       0.752522
    10723.860600       0.756499
    10735.373100       0.760454
    10746.910300       0.764388
    10758.472300       0.768300
    10770.059200       0.772189
    10781.671200       0.776055
    10793.308100       0.779897
    10804.970300       0.783716
    10816.657700       0.787511
    10828.370300       0.791281
    10840.108400       0.795026
    10851.871900       0.798746
    10863.661100       0.802440
    10875.475800       0.806108
    10887.316300       0.809749
    10899.182600       0.813363
    10911.074700       0.816951
    10922.992900       0.820511
    10934.937100       0.824042
    10946.907500       0.827546
    10958.904100       0.831021
    10970.927000       0.834467
    10982.976400       0.837883
    10995.052200       0.841270
    11007.154700       0.844627
    11019.283700       0.847953
    11031.439600       0.851249
    11043.622300       0.854514
    11055.832000       0.857748
    11068.068600       0.860950
    11080.332400       0.864121
    11092.623400       0.867259
    11104.941700       0.870365
    11117.287400       0.873438
    11129.660500       0.876478
    11142.061300       0.879485
    11154.489700       0.882458
    11166.945800       0.885398
    11179.429800       0.888303
    11191.941800       0.891175
    11204.481800       0.894012
    11217.049900       0.896814
    11229.646300       0.899581
    11242.270900       0.902313
    11254.924000       0.905010
    11267.605600       0.907671
    11280.315800       0.910296
    11293.054800       0.912885
    11305.822500       0.915438
    11318.619100       0.917954
    11331.444800       0.920434
    11344.299500       0.922877
    11357.183400       0.925284
    11370.096600       0.927653
    11383.039300       0.929985
    11396.011400       0.932280
    11409.013100       0.934537
    11422.044500       0.936756
    11435.105800       0.938938
    11448.196900       0.941082
    11461.318100       0.943188
    11474.469300       0.945256
    11487.650800       0.947285
    11500.862600       0.949276
    11514.104800       0.951229
    11527.377500       0.953144
    11540.680900       0.955020
    11554.015000       0.956857
    11567.380000       0.958655
    11580.775900       0.960415
    11594.202900       0.962136
    11607.661100       0.963818
    11621.150500       0.965462
    11634.671300       0.967066
    11648.223600       0.968632
    11661.807600       0.970159
    11675.423200       0.971647
    11689.070700       0.973096
    11702.750100       0.974506
    11716.461600       0.975877
    11730.205300       0.977209
    11743.981200       0.978502
    11757.789500       0.979757
    11771.630400       0.980973
    11785.503800       0.982150
    11799.410000       0.983288
    11813.349100       0.984388
    11827.321100       0.985449
    11841.326200       0.986472
    11855.364600       0.987457
    11869.436200       0.988403
    11883.541300       0.989311
    11897.680000       0.990180
    11911.852300       0.991012
    11926.058400       0.991806
    11940.298500       0.992562
    11954.572600       0.993281
    11968.880900       0.993962
    11983.223500       0.994606
    11997.600500       0.995212
    12012.012000       0.995782
    12026.458200       0.996314
    12040.939200       0.996810
    12055.455100       0.997269
    12070.006000       0.997692
    12084.592100       0.998079
    12099.213600       0.998429
    12113.870400       0.998744
    12128.562800       0.999023
    12143.290800       0.999267
    12158.054700       0.999475
    12172.854500       0.999649
    12187.690400       0.999788
    12202.562500       0.999892
    12217.471000       0.999962
    12232.415900       0.999998
    12247.397400       1.000000
    12262.415700       0.999969
    12277.470800       0.999904
    12292.563000       0.999806
    12307.692300       0.999676
    12322.858900       0.999513
    12338.062900       0.999318
    12353.304500       0.999091
    12368.583800       0.998832
    12383.900900       0.998542
    12399.256000       0.998221
    12414.649300       0.997869
    12430.080800       0.997487
    12445.550700       0.997075
    12461.059200       0.996633
    12476.606400       0.996161
    12492.192400       0.995661
    12507.817400       0.995132
    12523.481500       0.994574
    12539.185000       0.993988
    12554.927800       0.993374
    12570.710200       0.992733
    12586.532400       0.992065
    12602.394500       0.991371
    12618.296500       0.990650
    12634.238800       0.989903
    12650.221400       0.989130
    12666.244500       0.988333
    12682.308200       0.987510
    12698.412700       0.986663
    12714.558200       0.985792
    12730.744700       0.984898
    12746.972600       0.983980
    12763.241900       0.983039
    12779.552700       0.982076
    12795.905300       0.981090
    12812.299800       0.980083
    12828.736400       0.979055
    12845.215200       0.978006
    12861.736300       0.976937
    12878.300100       0.975847
    12894.906500       0.974738
    12911.555800       0.973610
    12928.248200       0.972463
    12944.983800       0.971298
    12961.762800       0.970115
    12978.585300       0.968915
    12995.451600       0.967697
    13012.361700       0.966463
    13029.316000       0.965213
    13046.314400       0.963947
    13063.357300       0.962666
    13080.444700       0.961370
    13097.576900       0.960059
    13114.754100       0.958735
    13131.976400       0.957397
    13149.243900       0.956047
    13166.556900       0.954683
    13183.915600       0.953308
    13201.320100       0.951920
    13218.770700       0.950522
    13236.267400       0.949113
    13253.810500       0.947693
    13271.400100       0.946264
    13289.036500       0.944825
    13306.719900       0.943377
    13324.450400       0.941921
    13342.228200       0.940456
    13360.053400       0.938984
    13377.926400       0.937505
    13395.847300       0.936019
    13413.816200       0.934527
    13431.833400       0.933028
    13449.899100       0.931525
    13468.013500       0.930017
    13486.176700       0.928504
    13504.388900       0.926987
    13522.650400       0.925466
    13540.961400       0.923943
    13559.322000       0.922417
    13577.732500       0.920888
    13596.193100       0.919358
    13614.703900       0.917826
    13633.265200       0.916293
    13651.877100       0.914760
    13670.540000       0.913227
    13689.253900       0.911694
    13708.019200       0.910162
    13726.836000       0.908631
    13745.704500       0.907102
    13764.624900       0.905575
    13783.597500       0.904050
    13802.622500       0.902528
    13821.700100       0.901010
    13840.830400       0.899495
    13860.013900       0.897984
    13879.250500       0.896478
    13898.540700       0.894977
    13917.884500       0.893481
    13937.282200       0.891991
    13956.734100       0.890507
    13976.240400       0.889029
    13995.801300       0.887558
    14015.417000       0.886095
    14035.087700       0.884639
    14054.813800       0.883191
    14074.595400       0.881752
    14094.432700       0.880321
    14114.326000       0.878899
    14134.275600       0.877487
    14154.281700       0.876084
    14174.344400       0.874692
    14194.464200       0.873310
    14214.641100       0.871939
    14234.875400       0.870579
    14255.167500       0.869231
    14275.517500       0.867894
    14295.925700       0.866569
    14316.392300       0.865257
    14336.917600       0.863957
    14357.501800       0.862671
    14378.145200       0.861397
    14398.848100       0.860137
    14419.610700       0.858891
    14440.433200       0.857660
    14461.316000       0.856442
    14482.259200       0.855239
    14503.263200       0.854051
    14524.328200       0.852878
    14545.454500       0.851721
    14566.642400       0.850579
    14587.892000       0.849453
    14609.203800       0.848343
    14630.577900       0.847249
    14652.014700       0.846172
    14673.514300       0.845111
    14695.077100       0.844068
    14716.703500       0.843041
    14738.393500       0.842032
    14760.147600       0.841040
    14781.966000       0.840065
    14803.849000       0.839109
    14825.796900       0.838170
    14847.809900       0.837249
    14869.888500       0.836346
    14892.032800       0.835462
    14914.243100       0.834596
    14936.519800       0.833749
    14958.863100       0.832920
    14981.273400       0.832110
    15003.750900       0.831318
    15026.296000       0.830546
    15048.909000       0.829792
    15071.590100       0.829058
    15094.339600       0.828342
    15117.158000       0.827646
    15140.045400       0.826969
    15163.002300       0.826311
    15186.028900       0.825672
    15209.125500       0.825052
    15232.292500       0.824452
    15255.530100       0.823870
    15278.838800       0.823308
    15302.218800       0.822765
    15325.670500       0.822241
    15349.194200       0.821737
    15372.790200       0.821251
    15396.458800       0.820784
    15420.200500       0.820336
    15444.015400       0.819907
    15467.904100       0.819497
    15491.866800       0.819105
    15515.903800       0.818732
    15540.015500       0.818378
    15564.202300       0.818041
    15588.464500       0.817723
    15612.802500       0.817423
    15637.216600       0.817141
    15661.707100       0.816876
    15686.274500       0.816629
    15710.919100       0.816399
    15735.641200       0.816187
    15760.441300       0.815991
    15785.319700       0.815812
    15810.276700       0.815650
    15835.312700       0.815504
    15860.428200       0.815375
    15885.623500       0.815261
    15910.899000       0.815162
    15936.255000       0.815079
    15961.691900       0.815012
    15987.210200       0.814958
    16012.810200       0.814920
    16038.492400       0.814895
    16064.257000       0.814885
    16090.104600       0.814888
    16116.035500       0.814904
    16142.050000       0.814933
    16168.148700       0.814975
    16194.332000       0.815029
    16220.600200       0.815095
    16246.953700       0.815172
    16273.393000       0.815260
    16299.918500       0.815359
    16326.530600       0.815468
    16353.229800       0.815587
    16380.016400       0.815716
    16406.890900       0.815853
    16433.853700       0.815999
    16460.905300       0.816154
    16488.046200       0.816316
    16515.276600       0.816485
    16542.597200       0.816661
    16570.008300       0.816843
    16597.510400       0.817031
    16625.103900       0.817224
    16652.789300       0.817422
    16680.567100       0.817624
    16708.437800       0.817830
    16736.401700       0.818039
    16764.459300       0.818251
    16792.611300       0.818465
    16820.857900       0.818680
    16849.199700       0.818897
    16877.637100       0.819114
    16906.170800       0.819331
    16934.801000       0.819546
    16963.528400       0.819761
    16992.353400       0.819974
    17021.276600       0.820184
    17050.298400       0.820391
    17079.419300       0.820594
    17108.639900       0.820793
    17137.960600       0.820987
    17167.382000       0.821175
    17196.904600       0.821356
    17226.528900       0.821531
    17256.255400       0.821698
    17286.084700       0.821857
    17316.017300       0.822006
    17346.053800       0.822146
    17376.194600       0.822276
    17406.440400       0.822394
    17436.791600       0.822501
    17467.248900       0.822595
    17497.812800       0.822676
    17528.483800       0.822744
    17559.262500       0.822796
    17590.149500       0.822833
    17621.145400       0.822854
    17652.250700       0.822859
    17683.466000       0.822845
    17714.791900       0.822814
    17746.228900       0.822763
    17777.777800       0.822693
    17809.439000       0.822602
    17841.213200       0.822490
    17873.101000       0.822356
    17905.103000       0.822198
    17937.219700       0.822018
    17969.451900       0.821813
    18001.800200       0.821583
    18034.265100       0.821327
    18066.847300       0.821044
    18099.547500       0.820734
    18132.366300       0.820395
    18165.304300       0.820028
    18198.362100       0.819631
    18231.540600       0.819203
    18264.840200       0.818744
    18298.261700       0.818253
    18331.805700       0.817729
    18365.472900       0.817171
    18399.264000       0.816579
    18433.179700       0.815951
    18467.220700       0.815287
    18501.387600       0.814587
    18535.681200       0.813849
    18570.102100       0.813072
    18604.651200       0.812257
    18639.329000       0.811401
    18674.136300       0.810505
    18709.073900       0.809567
    18744.142500       0.808587
    18779.342700       0.807564
    18814.675400       0.806497
    18850.141400       0.805386
    18885.741300       0.804230
    18921.475900       0.803027
    18957.346000       0.801778
    18993.352300       0.800481
    19029.495700       0.799136
    19065.776900       0.797742
    19102.196800       0.796298
    19138.756000       0.794804
    19175.455400       0.793258
    19212.295900       0.791661
    19249.278200       0.790012
    19286.403100       0.788309
    19323.671500       0.786552
    19361.084200       0.784741
    19398.642100       0.782875
    19436.346000       0.780952
    19474.196700       0.778974
    19512.195100       0.776938
    19550.342100       0.774844
    19588.638600       0.772692
    19627.085400       0.770481
    19665.683400       0.768210
    19704.433500       0.765879
    19743.336600       0.763487
    19782.393700       0.761034
    19821.605600       0.758519
    19860.973200       0.755942
    19900.497500       0.753302
    19940.179500       0.750598
    19980.020000       0.747831
    20020.020000       0.744999
    20060.180500       0.742102
    20100.502500       0.739140
    20140.986900       0.736112
    20181.634700       0.733018
    20222.446900       0.729858
    20263.424500       0.726630
    20304.568500       0.723335
    20345.880000       0.719973
    20387.359800       0.716543
    20429.009200       0.713044
    20470.829100       0.709476
    20512.820500       0.705840
    20554.984600       0.702135
    20597.322300       0.698360
    20639.834900       0.694516
    20682.523300       0.690602
    20725.388600       0.686618
    20768.432000       0.682564
    20811.654500       0.678439
    20855.057400       0.674245
    20898.641600       0.669980
    20942.408400       0.665644
    20986.358900       0.661238
    21030.494200       0.656762
    21074.815600       0.652215
    21119.324200       0.647598
    21164.021200       0.642910
    21208.907700       0.638153
    21253.985100       0.633325
    21299.254500       0.628427
    21344.717200       0.623459
    21390.374300       0.618422
    21436.227200       0.613315
    21482.277100       0.608140
    21528.525300       0.602895
    21574.973000       0.597583
    21621.621600       0.592202
    21668.472400       0.586754
    21715.526600       0.581238
    21762.785600       0.575656
    21810.250800       0.570007
    21857.923500       0.564293
    21905.805000       0.558514
    21953.896800       0.552670
    22002.200200       0.546762
    22050.716600       0.540791
    22099.447500       0.534757
    22148.394200       0.528662
    22197.558300       0.522506
    22246.941000       0.516290
    22296.544000       0.510014
    22346.368700       0.503680
    22396.416600       0.497289
    22446.689100       0.490841
    22497.187900       0.484338
    22547.914300       0.477781
    22598.870100       0.471170
    22650.056600       0.464508
    22701.475600       0.457794
    22753.128600       0.451031
    22805.017100       0.444220
    22857.142900       0.437362
    22909.507400       0.430458
    22962.112500       0.423510
    23014.959700       0.416520
    23068.050700       0.409489
    23121.387300       0.402418
    23174.971000       0.395309
    23228.803700       0.388164
    23282.887100       0.380984
    23337.222900       0.373772
    23391.812900       0.366529
    23446.658900       0.359257
    23501.762600       0.351958
    23557.126000       0.344634
    23612.750900       0.337287
    23668.639100       0.329920
    23724.792400       0.322533
    23781.212800       0.315130
    23837.902300       0.307713
    23894.862600       0.300285
    23952.095800       0.292846
    24009.603800       0.285401
    24067.388700       0.277951
    24125.452400       0.270500
    24183.796900       0.263049
    24242.424200       0.255601
    24301.336600       0.248160
    24360.535900       0.240728
    24420.024400       0.233308
    24479.804200       0.225903
    24539.877300       0.218515
    24600.246000       0.211149
    24660.912500       0.203807
    24721.878900       0.196492
    24783.147500       0.189208
    24844.720500       0.181958
    24906.600200       0.174746
    24968.789000       0.167574
    25031.289100       0.160447
    25094.102900       0.153369
    25157.232700       0.146342
    25220.681000       0.139371
    25284.450100       0.132459
    25348.542500       0.125611
    25412.960600       0.118831
    25477.707000       0.112122
