144,   144, MVIRI VIS channel from srf_MET7_2015213_2015214_1801-Release_S10EE_10.dat
Number of data points:
793
Wavenumber (cm-1)   Filter response
     8442.380800       0.000000
     8449.514200       0.000000
     8456.659600       0.000004
     8463.817200       0.000057
     8470.986900       0.000169
     8478.168700       0.000337
     8485.362700       0.000562
     8492.569000       0.000840
     8499.787500       0.001170
     8507.018300       0.001551
     8514.261400       0.001981
     8521.516800       0.002459
     8528.784600       0.002983
     8536.064900       0.003553
     8543.357500       0.004166
     8550.662700       0.004822
     8557.980300       0.005520
     8565.310500       0.006258
     8572.653200       0.007035
     8580.008600       0.007850
     8587.376600       0.008703
     8594.757200       0.009592
     8602.150500       0.010516
     8609.556600       0.011475
     8616.975400       0.012468
     8624.407100       0.013493
     8631.851500       0.014550
     8639.308900       0.015639
     8646.779100       0.016758
     8654.262200       0.017907
     8661.758300       0.019085
     8669.267400       0.020292
     8676.789600       0.021527
     8684.324800       0.022789
     8691.873100       0.024079
     8699.434500       0.025395
     8707.009100       0.026737
     8714.596900       0.028105
     8722.198000       0.029497
     8729.812300       0.030915
     8737.439900       0.032357
     8745.080900       0.033823
     8752.735200       0.035313
     8760.403000       0.036826
     8768.084200       0.038363
     8775.778900       0.039922
     8783.487000       0.041504
     8791.208800       0.043108
     8798.944100       0.044735
     8806.693100       0.046383
     8814.455700       0.048053
     8822.232000       0.049745
     8830.022100       0.051459
     8837.825900       0.053194
     8845.643500       0.054951
     8853.475000       0.056728
     8861.320300       0.058527
     8869.179600       0.060346
     8877.052800       0.062187
     8884.940000       0.064049
     8892.841300       0.065931
     8900.756600       0.067835
     8908.686000       0.069759
     8916.629500       0.071704
     8924.587200       0.073670
     8932.559200       0.075656
     8940.545400       0.077664
     8948.545900       0.079692
     8956.560700       0.081742
     8964.589900       0.083812
     8972.633500       0.085903
     8980.691500       0.088015
     8988.764000       0.090149
     8996.851100       0.092303
     9004.952700       0.094479
     9013.068900       0.096676
     9021.199800       0.098894
     9029.345400       0.101134
     9037.505600       0.103395
     9045.680700       0.105678
     9053.870500       0.107982
     9062.075200       0.110309
     9070.294800       0.112657
     9078.529300       0.115026
     9086.778700       0.117418
     9095.043200       0.119832
     9103.322700       0.122268
     9111.617300       0.124727
     9119.927000       0.127207
     9128.251900       0.129711
     9136.592100       0.132236
     9144.947400       0.134784
     9153.318100       0.137355
     9161.704100       0.139949
     9170.105500       0.142565
     9178.522300       0.145205
     9186.954500       0.147867
     9195.402300       0.150553
     9203.865600       0.153261
     9212.344500       0.155993
     9220.839100       0.158748
     9229.349300       0.161527
     9237.875300       0.164329
     9246.417000       0.167154
     9254.974500       0.170003
     9263.547900       0.172875
     9272.137200       0.175771
     9280.742500       0.178691
     9289.363700       0.181634
     9298.000900       0.184601
     9306.654300       0.187592
     9315.323700       0.190606
     9324.009300       0.193645
     9332.711200       0.196707
     9341.429200       0.199792
     9350.163600       0.202902
     9358.914400       0.206035
     9367.681500       0.209193
     9376.465100       0.212374
     9385.265100       0.215578
     9394.081700       0.218806
     9402.914900       0.222058
     9411.764700       0.225334
     9420.631200       0.228633
     9429.514400       0.231956
     9438.414300       0.235302
     9447.331100       0.238672
     9456.264800       0.242065
     9465.215300       0.245481
     9474.182900       0.248921
     9483.167400       0.252383
     9492.169000       0.255869
     9501.187600       0.259377
     9510.223500       0.262909
     9519.276500       0.266462
     9528.346800       0.270039
     9537.434400       0.273638
     9546.539400       0.277259
     9555.661700       0.280903
     9564.801500       0.284568
     9573.958800       0.288255
     9583.133700       0.291964
     9592.326100       0.295694
     9601.536200       0.299446
     9610.764100       0.303219
     9620.009600       0.307013
     9629.273000       0.310828
     9638.554200       0.314663
     9647.853400       0.318519
     9657.170400       0.322395
     9666.505600       0.326291
     9675.858700       0.330207
     9685.230000       0.334142
     9694.619500       0.338096
     9704.027200       0.342069
     9713.453100       0.346062
     9722.897400       0.350073
     9732.360100       0.354101
     9741.841200       0.358148
     9751.340800       0.362213
     9760.859000       0.366295
     9770.395700       0.370394
     9779.951100       0.374510
     9789.525200       0.378643
     9799.118100       0.382792
     9808.729800       0.386957
     9818.360300       0.391137
     9828.009800       0.395333
     9837.678300       0.399544
     9847.365800       0.403769
     9857.072400       0.408008
     9866.798200       0.412262
     9876.543200       0.416529
     9886.307500       0.420810
     9896.091000       0.425104
     9905.894000       0.429409
     9915.716400       0.433728
     9925.558300       0.438057
     9935.419800       0.442399
     9945.300800       0.446752
     9955.201600       0.451115
     9965.122100       0.455488
     9975.062300       0.459871
     9985.022500       0.464264
     9995.002500       0.468666
    10005.002500       0.473077
    10015.022500       0.477496
    10025.062700       0.481922
    10035.122900       0.486357
    10045.203400       0.490798
    10055.304200       0.495246
    10065.425300       0.499700
    10075.566800       0.504159
    10085.728700       0.508624
    10095.911200       0.513094
    10106.114200       0.517569
    10116.337900       0.522047
    10126.582300       0.526529
    10136.847400       0.531013
    10147.133400       0.535501
    10157.440300       0.539991
    10167.768200       0.544482
    10178.117000       0.548975
    10188.487000       0.553469
    10198.878100       0.557963
    10209.290500       0.562456
    10219.724100       0.566950
    10230.179000       0.571442
    10240.655400       0.575933
    10251.153300       0.580421
    10261.672700       0.584907
    10272.213700       0.589391
    10282.776300       0.593871
    10293.360800       0.598347
    10303.967000       0.602818
    10314.595200       0.607285
    10325.245200       0.611747
    10335.917300       0.616203
    10346.611500       0.620652
    10357.327800       0.625095
    10368.066400       0.629531
    10378.827200       0.633958
    10389.610400       0.638378
    10400.416000       0.642789
    10411.244100       0.647191
    10422.094800       0.651584
    10432.968200       0.655966
    10443.864200       0.660338
    10454.783100       0.664698
    10465.724800       0.669047
    10476.689400       0.673385
    10487.677000       0.677709
    10498.687700       0.682021
    10509.721500       0.686320
    10520.778500       0.690604
    10531.858900       0.694874
    10542.962600       0.699130
    10554.089700       0.703370
    10565.240400       0.707594
    10576.414600       0.711803
    10587.612500       0.715994
    10598.834100       0.720169
    10610.079600       0.724326
    10621.348900       0.728465
    10632.642200       0.732585
    10643.959600       0.736687
    10655.301000       0.740769
    10666.666700       0.744831
    10678.056600       0.748873
    10689.470900       0.752895
    10700.909600       0.756895
    10712.372800       0.760874
    10723.860600       0.764831
    10735.373100       0.768766
    10746.910300       0.772678
    10758.472300       0.776566
    10770.059200       0.780431
    10781.671200       0.784272
    10793.308100       0.788088
    10804.970300       0.791880
    10816.657700       0.795646
    10828.370300       0.799387
    10840.108400       0.803101
    10851.871900       0.806789
    10863.661100       0.810451
    10875.475800       0.814085
    10887.316300       0.817692
    10899.182600       0.821270
    10911.074700       0.824821
    10922.992900       0.828343
    10934.937100       0.831835
    10946.907500       0.835299
    10958.904100       0.838733
    10970.927000       0.842136
    10982.976400       0.845510
    10995.052200       0.848852
    11007.154700       0.852164
    11019.283700       0.855444
    11031.439600       0.858693
    11043.622300       0.861910
    11055.832000       0.865094
    11068.068600       0.868246
    11080.332400       0.871365
    11092.623400       0.874450
    11104.941700       0.877503
    11117.287400       0.880521
    11129.660500       0.883506
    11142.061300       0.886457
    11154.489700       0.889372
    11166.945800       0.892254
    11179.429800       0.895100
    11191.941800       0.897911
    11204.481800       0.900686
    11217.049900       0.903426
    11229.646300       0.906130
    11242.270900       0.908797
    11254.924000       0.911429
    11267.605600       0.914023
    11280.315800       0.916581
    11293.054800       0.919102
    11305.822500       0.921586
    11318.619100       0.924033
    11331.444800       0.926442
    11344.299500       0.928813
    11357.183400       0.931147
    11370.096600       0.933443
    11383.039300       0.935700
    11396.011400       0.937920
    11409.013100       0.940101
    11422.044500       0.942243
    11435.105800       0.944347
    11448.196900       0.946412
    11461.318100       0.948439
    11474.469300       0.950426
    11487.650800       0.952374
    11500.862600       0.954284
    11514.104800       0.956154
    11527.377500       0.957985
    11540.680900       0.959776
    11554.015000       0.961528
    11567.380000       0.963241
    11580.775900       0.964914
    11594.202900       0.966548
    11607.661100       0.968142
    11621.150500       0.969697
    11634.671300       0.971212
    11648.223600       0.972687
    11661.807600       0.974123
    11675.423200       0.975519
    11689.070700       0.976876
    11702.750100       0.978193
    11716.461600       0.979470
    11730.205300       0.980708
    11743.981200       0.981907
    11757.789500       0.983066
    11771.630400       0.984186
    11785.503800       0.985266
    11799.410000       0.986308
    11813.349100       0.987310
    11827.321100       0.988272
    11841.326200       0.989196
    11855.364600       0.990081
    11869.436200       0.990927
    11883.541300       0.991735
    11897.680000       0.992504
    11911.852300       0.993234
    11926.058400       0.993926
    11940.298500       0.994580
    11954.572600       0.995195
    11968.880900       0.995773
    11983.223500       0.996313
    11997.600500       0.996815
    12012.012000       0.997279
    12026.458200       0.997707
    12040.939200       0.998097
    12055.455100       0.998450
    12070.006000       0.998767
    12084.592100       0.999047
    12099.213600       0.999290
    12113.870400       0.999498
    12128.562800       0.999669
    12143.290800       0.999805
    12158.054700       0.999905
    12172.854500       0.999970
    12187.690400       1.000000
    12202.562500       0.999995
    12217.471000       0.999956
    12232.415900       0.999882
    12247.397400       0.999774
    12262.415700       0.999632
    12277.470800       0.999457
    12292.563000       0.999249
    12307.692300       0.999008
    12322.858900       0.998734
    12338.062900       0.998427
    12353.304500       0.998089
    12368.583800       0.997719
    12383.900900       0.997317
    12399.256000       0.996884
    12414.649300       0.996420
    12430.080800       0.995926
    12445.550700       0.995402
    12461.059200       0.994847
    12476.606400       0.994263
    12492.192400       0.993650
    12507.817400       0.993008
    12523.481500       0.992338
    12539.185000       0.991640
    12554.927800       0.990913
    12570.710200       0.990159
    12586.532400       0.989379
    12602.394500       0.988571
    12618.296500       0.987737
    12634.238800       0.986877
    12650.221400       0.985992
    12666.244500       0.985081
    12682.308200       0.984146
    12698.412700       0.983186
    12714.558200       0.982202
    12730.744700       0.981195
    12746.972600       0.980164
    12763.241900       0.979111
    12779.552700       0.978035
    12795.905300       0.976937
    12812.299800       0.975817
    12828.736400       0.974677
    12845.215200       0.973515
    12861.736300       0.972334
    12878.300100       0.971132
    12894.906500       0.969911
    12911.555800       0.968671
    12928.248200       0.967412
    12944.983800       0.966135
    12961.762800       0.964840
    12978.585300       0.963528
    12995.451600       0.962199
    13012.361700       0.960854
    13029.316000       0.959493
    13046.314400       0.958116
    13063.357300       0.956724
    13080.444700       0.955317
    13097.576900       0.953896
    13114.754100       0.952461
    13131.976400       0.951013
    13149.243900       0.949552
    13166.556900       0.948079
    13183.915600       0.946594
    13201.320100       0.945097
    13218.770700       0.943589
    13236.267400       0.942070
    13253.810500       0.940542
    13271.400100       0.939003
    13289.036500       0.937456
    13306.719900       0.935899
    13324.450400       0.934334
    13342.228200       0.932762
    13360.053400       0.931181
    13377.926400       0.929594
    13395.847300       0.928000
    13413.816200       0.926401
    13431.833400       0.924795
    13449.899100       0.923184
    13468.013500       0.921569
    13486.176700       0.919949
    13504.388900       0.918325
    13522.650400       0.916698
    13540.961400       0.915068
    13559.322000       0.913436
    13577.732500       0.911801
    13596.193100       0.910165
    13614.703900       0.908527
    13633.265200       0.906889
    13651.877100       0.905250
    13670.540000       0.903612
    13689.253900       0.901973
    13708.019200       0.900336
    13726.836000       0.898700
    13745.704500       0.897066
    13764.624900       0.895434
    13783.597500       0.893805
    13802.622500       0.892178
    13821.700100       0.890556
    13840.830400       0.888936
    13860.013900       0.887321
    13879.250500       0.885711
    13898.540700       0.884106
    13917.884500       0.882506
    13937.282200       0.880912
    13956.734100       0.879324
    13976.240400       0.877742
    13995.801300       0.876168
    14015.417000       0.874601
    14035.087700       0.873041
    14054.813800       0.871490
    14074.595400       0.869946
    14094.432700       0.868412
    14114.326000       0.866887
    14134.275600       0.865371
    14154.281700       0.863865
    14174.344400       0.862369
    14194.464200       0.860883
    14214.641100       0.859408
    14234.875400       0.857944
    14255.167500       0.856492
    14275.517500       0.855052
    14295.925700       0.853623
    14316.392300       0.852206
    14336.917600       0.850803
    14357.501800       0.849412
    14378.145200       0.848034
    14398.848100       0.846670
    14419.610700       0.845319
    14440.433200       0.843983
    14461.316000       0.842660
    14482.259200       0.841352
    14503.263200       0.840059
    14524.328200       0.838781
    14545.454500       0.837518
    14566.642400       0.836270
    14587.892000       0.835038
    14609.203800       0.833822
    14630.577900       0.832622
    14652.014700       0.831438
    14673.514300       0.830270
    14695.077100       0.829119
    14716.703500       0.827985
    14738.393500       0.826868
    14760.147600       0.825768
    14781.966000       0.824686
    14803.849000       0.823620
    14825.796900       0.822572
    14847.809900       0.821542
    14869.888500       0.820530
    14892.032800       0.819536
    14914.243100       0.818559
    14936.519800       0.817601
    14958.863100       0.816661
    14981.273400       0.815740
    15003.750900       0.814836
    15026.296000       0.813952
    15048.909000       0.813085
    15071.590100       0.812238
    15094.339600       0.811409
    15117.158000       0.810598
    15140.045400       0.809806
    15163.002300       0.809033
    15186.028900       0.808279
    15209.125500       0.807543
    15232.292500       0.806826
    15255.530100       0.806128
    15278.838800       0.805449
    15302.218800       0.804788
    15325.670500       0.804145
    15349.194200       0.803521
    15372.790200       0.802916
    15396.458800       0.802329
    15420.200500       0.801760
    15444.015400       0.801210
    15467.904100       0.800678
    15491.866800       0.800164
    15515.903800       0.799667
    15540.015500       0.799189
    15564.202300       0.798728
    15588.464500       0.798285
    15612.802500       0.797859
    15637.216600       0.797451
    15661.707100       0.797060
    15686.274500       0.796685
    15710.919100       0.796327
    15735.641200       0.795986
    15760.441300       0.795661
    15785.319700       0.795353
    15810.276700       0.795060
    15835.312700       0.794783
    15860.428200       0.794521
    15885.623500       0.794274
    15910.899000       0.794043
    15936.255000       0.793826
    15961.691900       0.793623
    15987.210200       0.793435
    16012.810200       0.793260
    16038.492400       0.793099
    16064.257000       0.792952
    16090.104600       0.792817
    16116.035500       0.792694
    16142.050000       0.792584
    16168.148700       0.792486
    16194.332000       0.792399
    16220.600200       0.792324
    16246.953700       0.792259
    16273.393000       0.792205
    16299.918500       0.792161
    16326.530600       0.792126
    16353.229800       0.792101
    16380.016400       0.792084
    16406.890900       0.792076
    16433.853700       0.792076
    16460.905300       0.792083
    16488.046200       0.792098
    16515.276600       0.792119
    16542.597200       0.792146
    16570.008300       0.792179
    16597.510400       0.792217
    16625.103900       0.792260
    16652.789300       0.792308
    16680.567100       0.792359
    16708.437800       0.792413
    16736.401700       0.792470
    16764.459300       0.792529
    16792.611300       0.792589
    16820.857900       0.792651
    16849.199700       0.792714
    16877.637100       0.792776
    16906.170800       0.792838
    16934.801000       0.792899
    16963.528400       0.792958
    16992.353400       0.793014
    17021.276600       0.793068
    17050.298400       0.793119
    17079.419300       0.793165
    17108.639900       0.793207
    17137.960600       0.793243
    17167.382000       0.793274
    17196.904600       0.793298
    17226.528900       0.793314
    17256.255400       0.793323
    17286.084700       0.793324
    17316.017300       0.793316
    17346.053800       0.793297
    17376.194600       0.793269
    17406.440400       0.793229
    17436.791600       0.793178
    17467.248900       0.793114
    17497.812800       0.793037
    17528.483800       0.792946
    17559.262500       0.792841
    17590.149500       0.792721
    17621.145400       0.792585
    17652.250700       0.792432
    17683.466000       0.792262
    17714.791900       0.792074
    17746.228900       0.791868
    17777.777800       0.791642
    17809.439000       0.791396
    17841.213200       0.791129
    17873.101000       0.790841
    17905.103000       0.790531
    17937.219700       0.790197
    17969.451900       0.789840
    18001.800200       0.789459
    18034.265100       0.789052
    18066.847300       0.788620
    18099.547500       0.788161
    18132.366300       0.787674
    18165.304300       0.787160
    18198.362100       0.786616
    18231.540600       0.786044
    18264.840200       0.785441
    18298.261700       0.784807
    18331.805700       0.784141
    18365.472900       0.783443
    18399.264000       0.782712
    18433.179700       0.781946
    18467.220700       0.781146
    18501.387600       0.780311
    18535.681200       0.779440
    18570.102100       0.778532
    18604.651200       0.777586
    18639.329000       0.776602
    18674.136300       0.775579
    18709.073900       0.774517
    18744.142500       0.773414
    18779.342700       0.772270
    18814.675400       0.771084
    18850.141400       0.769856
    18885.741300       0.768585
    18921.475900       0.767269
    18957.346000       0.765909
    18993.352300       0.764504
    19029.495700       0.763054
    19065.776900       0.761556
    19102.196800       0.760012
    19138.756000       0.758419
    19175.455400       0.756778
    19212.295900       0.755088
    19249.278200       0.753348
    19286.403100       0.751558
    19323.671500       0.749717
    19361.084200       0.747824
    19398.642100       0.745879
    19436.346000       0.743881
    19474.196700       0.741830
    19512.195100       0.739725
    19550.342100       0.737566
    19588.638600       0.735351
    19627.085400       0.733081
    19665.683400       0.730755
    19704.433500       0.728372
    19743.336600       0.725932
    19782.393700       0.723434
    19821.605600       0.720879
    19860.973200       0.718265
    19900.497500       0.715592
    19940.179500       0.712859
    19980.020000       0.710067
    20020.020000       0.707214
    20060.180500       0.704301
    20100.502500       0.701326
    20140.986900       0.698290
    20181.634700       0.695193
    20222.446900       0.692033
    20263.424500       0.688811
    20304.568500       0.685527
    20345.880000       0.682179
    20387.359800       0.678768
    20429.009200       0.675294
    20470.829100       0.671756
    20512.820500       0.668154
    20554.984600       0.664487
    20597.322300       0.660757
    20639.834900       0.656962
    20682.523300       0.653103
    20725.388600       0.649178
    20768.432000       0.645190
    20811.654500       0.641136
    20855.057400       0.637017
    20898.641600       0.632834
    20942.408400       0.628585
    20986.358900       0.624272
    21030.494200       0.619894
    21074.815600       0.615451
    21119.324200       0.610944
    21164.021200       0.606372
    21208.907700       0.601736
    21253.985100       0.597035
    21299.254500       0.592271
    21344.717200       0.587443
    21390.374300       0.582551
    21436.227200       0.577596
    21482.277100       0.572579
    21528.525300       0.567498
    21574.973000       0.562356
    21621.621600       0.557152
    21668.472400       0.551886
    21715.526600       0.546559
    21762.785600       0.541173
    21810.250800       0.535726
    21857.923500       0.530220
    21905.805000       0.524655
    21953.896800       0.519032
    22002.200200       0.513352
    22050.716600       0.507615
    22099.447500       0.501821
    22148.394200       0.495973
    22197.558300       0.490070
    22246.941000       0.484114
    22296.544000       0.478105
    22346.368700       0.472043
    22396.416600       0.465931
    22446.689100       0.459769
    22497.187900       0.453558
    22547.914300       0.447300
    22598.870100       0.440994
    22650.056600       0.434643
    22701.475600       0.428247
    22753.128600       0.421808
    22805.017100       0.415327
    22857.142900       0.408806
    22909.507400       0.402245
    22962.112500       0.395646
    23014.959700       0.389010
    23068.050700       0.382340
    23121.387300       0.375636
    23174.971000       0.368900
    23228.803700       0.362134
    23282.887100       0.355339
    23337.222900       0.348516
    23391.812900       0.341669
    23446.658900       0.334798
    23501.762600       0.327906
    23557.126000       0.320994
    23612.750900       0.314064
    23668.639100       0.307119
    23724.792400       0.300159
    23781.212800       0.293188
    23837.902300       0.286207
    23894.862600       0.279220
    23952.095800       0.272227
    24009.603800       0.265231
    24067.388700       0.258235
    24125.452400       0.251241
    24183.796900       0.244251
    24242.424200       0.237269
    24301.336600       0.230296
    24360.535900       0.223335
    24420.024400       0.216389
    24479.804200       0.209461
    24539.877300       0.202553
    24600.246000       0.195668
    24660.912500       0.188810
    24721.878900       0.181981
    24783.147500       0.175184
    24844.720500       0.168422
    24906.600200       0.161699
    24968.789000       0.155018
    25031.289100       0.148381
    25094.102900       0.141793
    25157.232700       0.135257
    25220.681000       0.128776
    25284.450100       0.122354
    25348.542500       0.115994
    25412.960600       0.109700
    25477.707000       0.103476
