101,   101, MVIRI VIS channel from srf_MET7_2010078_2010079_1801-Release_S10EE_10.dat
Number of data points:
793
Wavenumber (cm-1)   Filter response
     8442.380800       0.000000
     8449.514200       0.000000
     8456.659600       0.000004
     8463.817200       0.000056
     8470.986900       0.000166
     8478.168700       0.000332
     8485.362700       0.000553
     8492.569000       0.000826
     8499.787500       0.001151
     8507.018300       0.001526
     8514.261400       0.001950
     8521.516800       0.002420
     8528.784600       0.002937
     8536.064900       0.003497
     8543.357500       0.004101
     8550.662700       0.004748
     8557.980300       0.005435
     8565.310500       0.006161
     8572.653200       0.006927
     8580.008600       0.007730
     8587.376600       0.008570
     8594.757200       0.009445
     8602.150500       0.010356
     8609.556600       0.011300
     8616.975400       0.012278
     8624.407100       0.013288
     8631.851500       0.014329
     8639.308900       0.015402
     8646.779100       0.016504
     8654.262200       0.017636
     8661.758300       0.018798
     8669.267400       0.019987
     8676.789600       0.021204
     8684.324800       0.022448
     8691.873100       0.023719
     8699.434500       0.025016
     8707.009100       0.026339
     8714.596900       0.027687
     8722.198000       0.029060
     8729.812300       0.030458
     8737.439900       0.031879
     8745.080900       0.033325
     8752.735200       0.034794
     8760.403000       0.036286
     8768.084200       0.037801
     8775.778900       0.039338
     8783.487000       0.040899
     8791.208800       0.042481
     8798.944100       0.044085
     8806.693100       0.045711
     8814.455700       0.047359
     8822.232000       0.049028
     8830.022100       0.050718
     8837.825900       0.052430
     8845.643500       0.054163
     8853.475000       0.055917
     8861.320300       0.057691
     8869.179600       0.059487
     8877.052800       0.061303
     8884.940000       0.063141
     8892.841300       0.064998
     8900.756600       0.066877
     8908.686000       0.068776
     8916.629500       0.070696
     8924.587200       0.072637
     8932.559200       0.074598
     8940.545400       0.076580
     8948.545900       0.078583
     8956.560700       0.080606
     8964.589900       0.082650
     8972.633500       0.084715
     8980.691500       0.086801
     8988.764000       0.088908
     8996.851100       0.091036
     9004.952700       0.093185
     9013.068900       0.095355
     9021.199800       0.097546
     9029.345400       0.099759
     9037.505600       0.101992
     9045.680700       0.104248
     9053.870500       0.106524
     9062.075200       0.108823
     9070.294800       0.111143
     9078.529300       0.113485
     9086.778700       0.115849
     9095.043200       0.118234
     9103.322700       0.120642
     9111.617300       0.123072
     9119.927000       0.125524
     9128.251900       0.127998
     9136.592100       0.130495
     9144.947400       0.133014
     9153.318100       0.135556
     9161.704100       0.138120
     9170.105500       0.140707
     9178.522300       0.143318
     9186.954500       0.145950
     9195.402300       0.148606
     9203.865600       0.151285
     9212.344500       0.153987
     9220.839100       0.156712
     9229.349300       0.159461
     9237.875300       0.162232
     9246.417000       0.165027
     9254.974500       0.167846
     9263.547900       0.170688
     9272.137200       0.173553
     9280.742500       0.176443
     9289.363700       0.179355
     9298.000900       0.182291
     9306.654300       0.185252
     9315.323700       0.188235
     9324.009300       0.191242
     9332.711200       0.194274
     9341.429200       0.197328
     9350.163600       0.200407
     9358.914400       0.203509
     9367.681500       0.206635
     9376.465100       0.209785
     9385.265100       0.212958
     9394.081700       0.216155
     9402.914900       0.219376
     9411.764700       0.222620
     9420.631200       0.225888
     9429.514400       0.229179
     9438.414300       0.232494
     9447.331100       0.235832
     9456.264800       0.239194
     9465.215300       0.242579
     9474.182900       0.245987
     9483.167400       0.249418
     9492.169000       0.252872
     9501.187600       0.256349
     9510.223500       0.259849
     9519.276500       0.263371
     9528.346800       0.266917
     9537.434400       0.270484
     9546.539400       0.274074
     9555.661700       0.277686
     9564.801500       0.281320
     9573.958800       0.284977
     9583.133700       0.288655
     9592.326100       0.292354
     9601.536200       0.296075
     9610.764100       0.299817
     9620.009600       0.303580
     9629.273000       0.307364
     9638.554200       0.311169
     9647.853400       0.314994
     9657.170400       0.318840
     9666.505600       0.322706
     9675.858700       0.326591
     9685.230000       0.330496
     9694.619500       0.334421
     9704.027200       0.338364
     9713.453100       0.342327
     9722.897400       0.346308
     9732.360100       0.350308
     9741.841200       0.354326
     9751.340800       0.358361
     9760.859000       0.362415
     9770.395700       0.366485
     9779.951100       0.370573
     9789.525200       0.374677
     9799.118100       0.378798
     9808.729800       0.382935
     9818.360300       0.387088
     9828.009800       0.391256
     9837.678300       0.395440
     9847.365800       0.399638
     9857.072400       0.403851
     9866.798200       0.408078
     9876.543200       0.412319
     9886.307500       0.416574
     9896.091000       0.420842
     9905.894000       0.425122
     9915.716400       0.429416
     9925.558300       0.433720
     9935.419800       0.438037
     9945.300800       0.442366
     9955.201600       0.446705
     9965.122100       0.451055
     9975.062300       0.455414
     9985.022500       0.459784
     9995.002500       0.464164
    10005.002500       0.468552
    10015.022500       0.472949
    10025.062700       0.477354
    10035.122900       0.481767
    10045.203400       0.486187
    10055.304200       0.490614
    10065.425300       0.495048
    10075.566800       0.499488
    10085.728700       0.503934
    10095.911200       0.508385
    10106.114200       0.512840
    10116.337900       0.517300
    10126.582300       0.521764
    10136.847400       0.526232
    10147.133400       0.530703
    10157.440300       0.535176
    10167.768200       0.539651
    10178.117000       0.544128
    10188.487000       0.548606
    10198.878100       0.553086
    10209.290500       0.557565
    10219.724100       0.562045
    10230.179000       0.566523
    10240.655400       0.571001
    10251.153300       0.575478
    10261.672700       0.579952
    10272.213700       0.584424
    10282.776300       0.588893
    10293.360800       0.593358
    10303.967000       0.597820
    10314.595200       0.602278
    10325.245200       0.606730
    10335.917300       0.611178
    10346.611500       0.615619
    10357.327800       0.620055
    10368.066400       0.624484
    10378.827200       0.628905
    10389.610400       0.633320
    10400.416000       0.637725
    10411.244100       0.642123
    10422.094800       0.646511
    10432.968200       0.650890
    10443.864200       0.655259
    10454.783100       0.659617
    10465.724800       0.663964
    10476.689400       0.668300
    10487.677000       0.672625
    10498.687700       0.676936
    10509.721500       0.681235
    10520.778500       0.685521
    10531.858900       0.689793
    10542.962600       0.694051
    10554.089700       0.698294
    10565.240400       0.702522
    10576.414600       0.706734
    10587.612500       0.710930
    10598.834100       0.715110
    10610.079600       0.719273
    10621.348900       0.723419
    10632.642200       0.727546
    10643.959600       0.731656
    10655.301000       0.735746
    10666.666700       0.739818
    10678.056600       0.743870
    10689.470900       0.747901
    10700.909600       0.751913
    10712.372800       0.755903
    10723.860600       0.759872
    10735.373100       0.763820
    10746.910300       0.767745
    10758.472300       0.771647
    10770.059200       0.775527
    10781.671200       0.779383
    10793.308100       0.783215
    10804.970300       0.787024
    10816.657700       0.790807
    10828.370300       0.794566
    10840.108400       0.798299
    10851.871900       0.802006
    10863.661100       0.805687
    10875.475800       0.809342
    10887.316300       0.812970
    10899.182600       0.816570
    10911.074700       0.820143
    10922.992900       0.823687
    10934.937100       0.827204
    10946.907500       0.830691
    10958.904100       0.834150
    10970.927000       0.837579
    10982.976400       0.840979
    10995.052200       0.844348
    11007.154700       0.847687
    11019.283700       0.850995
    11031.439600       0.854272
    11043.622300       0.857518
    11055.832000       0.860732
    11068.068600       0.863914
    11080.332400       0.867064
    11092.623400       0.870182
    11104.941700       0.873266
    11117.287400       0.876318
    11129.660500       0.879336
    11142.061300       0.882320
    11154.489700       0.885271
    11166.945800       0.888187
    11179.429800       0.891069
    11191.941800       0.893916
    11204.481800       0.896729
    11217.049900       0.899506
    11229.646300       0.902248
    11242.270900       0.904954
    11254.924000       0.907625
    11267.605600       0.910259
    11280.315800       0.912857
    11293.054800       0.915419
    11305.822500       0.917945
    11318.619100       0.920433
    11331.444800       0.922885
    11344.299500       0.925300
    11357.183400       0.927677
    11370.096600       0.930017
    11383.039300       0.932319
    11396.011400       0.934584
    11409.013100       0.936810
    11422.044500       0.938999
    11435.105800       0.941150
    11448.196900       0.943262
    11461.318100       0.945336
    11474.469300       0.947372
    11487.650800       0.949369
    11500.862600       0.951327
    11514.104800       0.953247
    11527.377500       0.955128
    11540.680900       0.956970
    11554.015000       0.958773
    11567.380000       0.960537
    11580.775900       0.962263
    11594.202900       0.963949
    11607.661100       0.965596
    11621.150500       0.967203
    11634.671300       0.968772
    11648.223600       0.970302
    11661.807600       0.971792
    11675.423200       0.973243
    11689.070700       0.974655
    11702.750100       0.976028
    11716.461600       0.977361
    11730.205300       0.978656
    11743.981200       0.979911
    11757.789500       0.981127
    11771.630400       0.982305
    11785.503800       0.983443
    11799.410000       0.984542
    11813.349100       0.985603
    11827.321100       0.986625
    11841.326200       0.987608
    11855.364600       0.988552
    11869.436200       0.989458
    11883.541300       0.990326
    11897.680000       0.991155
    11911.852300       0.991946
    11926.058400       0.992699
    11940.298500       0.993414
    11954.572600       0.994091
    11968.880900       0.994731
    11983.223500       0.995333
    11997.600500       0.995897
    12012.012000       0.996425
    12026.458200       0.996915
    12040.939200       0.997368
    12055.455100       0.997785
    12070.006000       0.998165
    12084.592100       0.998509
    12099.213600       0.998816
    12113.870400       0.999088
    12128.562800       0.999324
    12143.290800       0.999524
    12158.054700       0.999689
    12172.854500       0.999819
    12187.690400       0.999914
    12202.562500       0.999974
    12217.471000       1.000000
    12232.415900       0.999992
    12247.397400       0.999950
    12262.415700       0.999874
    12277.470800       0.999765
    12292.563000       0.999622
    12307.692300       0.999447
    12322.858900       0.999240
    12338.062900       0.999000
    12353.304500       0.998728
    12368.583800       0.998424
    12383.900900       0.998089
    12399.256000       0.997723
    12414.649300       0.997326
    12430.080800       0.996899
    12445.550700       0.996441
    12461.059200       0.995954
    12476.606400       0.995437
    12492.192400       0.994892
    12507.817400       0.994317
    12523.481500       0.993714
    12539.185000       0.993082
    12554.927800       0.992423
    12570.710200       0.991737
    12586.532400       0.991023
    12602.394500       0.990283
    12618.296500       0.989517
    12634.238800       0.988724
    12650.221400       0.987906
    12666.244500       0.987063
    12682.308200       0.986195
    12698.412700       0.985302
    12714.558200       0.984386
    12730.744700       0.983445
    12746.972600       0.982482
    12763.241900       0.981496
    12779.552700       0.980487
    12795.905300       0.979456
    12812.299800       0.978404
    12828.736400       0.977330
    12845.215200       0.976236
    12861.736300       0.975121
    12878.300100       0.973986
    12894.906500       0.972832
    12911.555800       0.971659
    12928.248200       0.970467
    12944.983800       0.969256
    12961.762800       0.968028
    12978.585300       0.966782
    12995.451600       0.965520
    13012.361700       0.964241
    13029.316000       0.962946
    13046.314400       0.961635
    13063.357300       0.960309
    13080.444700       0.958968
    13097.576900       0.957613
    13114.754100       0.956244
    13131.976400       0.954861
    13149.243900       0.953466
    13166.556900       0.952058
    13183.915600       0.950638
    13201.320100       0.949207
    13218.770700       0.947764
    13236.267400       0.946310
    13253.810500       0.944847
    13271.400100       0.943373
    13289.036500       0.941890
    13306.719900       0.940398
    13324.450400       0.938898
    13342.228200       0.937390
    13360.053400       0.935874
    13377.926400       0.934351
    13395.847300       0.932821
    13413.816200       0.931285
    13431.833400       0.929744
    13449.899100       0.928197
    13468.013500       0.926645
    13486.176700       0.925089
    13504.388900       0.923528
    13522.650400       0.921965
    13540.961400       0.920398
    13559.322000       0.918829
    13577.732500       0.917257
    13596.193100       0.915684
    13614.703900       0.914109
    13633.265200       0.912534
    13651.877100       0.910958
    13670.540000       0.909382
    13689.253900       0.907806
    13708.019200       0.906231
    13726.836000       0.904658
    13745.704500       0.903086
    13764.624900       0.901516
    13783.597500       0.899949
    13802.622500       0.898385
    13821.700100       0.896824
    13840.830400       0.895267
    13860.013900       0.893713
    13879.250500       0.892165
    13898.540700       0.890622
    13917.884500       0.889083
    13937.282200       0.887551
    13956.734100       0.886025
    13976.240400       0.884505
    13995.801300       0.882992
    14015.417000       0.881486
    14035.087700       0.879988
    14054.813800       0.878498
    14074.595400       0.877017
    14094.432700       0.875544
    14114.326000       0.874080
    14134.275600       0.872625
    14154.281700       0.871181
    14174.344400       0.869746
    14194.464200       0.868322
    14214.641100       0.866909
    14234.875400       0.865507
    14255.167500       0.864116
    14275.517500       0.862737
    14295.925700       0.861370
    14316.392300       0.860015
    14336.917600       0.858673
    14357.501800       0.857344
    14378.145200       0.856028
    14398.848100       0.854726
    14419.610700       0.853437
    14440.433200       0.852163
    14461.316000       0.850903
    14482.259200       0.849657
    14503.263200       0.848426
    14524.328200       0.847210
    14545.454500       0.846010
    14566.642400       0.844825
    14587.892000       0.843656
    14609.203800       0.842502
    14630.577900       0.841365
    14652.014700       0.840245
    14673.514300       0.839141
    14695.077100       0.838053
    14716.703500       0.836983
    14738.393500       0.835929
    14760.147600       0.834893
    14781.966000       0.833875
    14803.849000       0.832874
    14825.796900       0.831891
    14847.809900       0.830925
    14869.888500       0.829978
    14892.032800       0.829049
    14914.243100       0.828138
    14936.519800       0.827245
    14958.863100       0.826371
    14981.273400       0.825515
    15003.750900       0.824678
    15026.296000       0.823860
    15048.909000       0.823061
    15071.590100       0.822280
    15094.339600       0.821518
    15117.158000       0.820775
    15140.045400       0.820051
    15163.002300       0.819346
    15186.028900       0.818660
    15209.125500       0.817993
    15232.292500       0.817345
    15255.530100       0.816716
    15278.838800       0.816106
    15302.218800       0.815515
    15325.670500       0.814943
    15349.194200       0.814389
    15372.790200       0.813855
    15396.458800       0.813339
    15420.200500       0.812842
    15444.015400       0.812363
    15467.904100       0.811903
    15491.866800       0.811461
    15515.903800       0.811038
    15540.015500       0.810633
    15564.202300       0.810245
    15588.464500       0.809876
    15612.802500       0.809525
    15637.216600       0.809191
    15661.707100       0.808874
    15686.274500       0.808575
    15710.919100       0.808293
    15735.641200       0.808028
    15760.441300       0.807780
    15785.319700       0.807548
    15810.276700       0.807332
    15835.312700       0.807133
    15860.428200       0.806949
    15885.623500       0.806781
    15910.899000       0.806628
    15936.255000       0.806490
    15961.691900       0.806367
    15987.210200       0.806259
    16012.810200       0.806165
    16038.492400       0.806084
    16064.257000       0.806018
    16090.104600       0.805964
    16116.035500       0.805924
    16142.050000       0.805896
    16168.148700       0.805880
    16194.332000       0.805877
    16220.600200       0.805885
    16246.953700       0.805904
    16273.393000       0.805934
    16299.918500       0.805974
    16326.530600       0.806024
    16353.229800       0.806084
    16380.016400       0.806153
    16406.890900       0.806231
    16433.853700       0.806318
    16460.905300       0.806412
    16488.046200       0.806513
    16515.276600       0.806622
    16542.597200       0.806737
    16570.008300       0.806858
    16597.510400       0.806984
    16625.103900       0.807116
    16652.789300       0.807252
    16680.567100       0.807392
    16708.437800       0.807536
    16736.401700       0.807683
    16764.459300       0.807832
    16792.611300       0.807983
    16820.857900       0.808136
    16849.199700       0.808289
    16877.637100       0.808442
    16906.170800       0.808596
    16934.801000       0.808748
    16963.528400       0.808899
    16992.353400       0.809047
    17021.276600       0.809193
    17050.298400       0.809336
    17079.419300       0.809475
    17108.639900       0.809609
    17137.960600       0.809738
    17167.382000       0.809862
    17196.904600       0.809979
    17226.528900       0.810088
    17256.255400       0.810191
    17286.084700       0.810284
    17316.017300       0.810369
    17346.053800       0.810444
    17376.194600       0.810508
    17406.440400       0.810562
    17436.791600       0.810604
    17467.248900       0.810633
    17497.812800       0.810649
    17528.483800       0.810651
    17559.262500       0.810639
    17590.149500       0.810611
    17621.145400       0.810568
    17652.250700       0.810507
    17683.466000       0.810429
    17714.791900       0.810334
    17746.228900       0.810219
    17777.777800       0.810084
    17809.439000       0.809930
    17841.213200       0.809754
    17873.101000       0.809556
    17905.103000       0.809336
    17937.219700       0.809092
    17969.451900       0.808824
    18001.800200       0.808532
    18034.265100       0.808214
    18066.847300       0.807869
    18099.547500       0.807497
    18132.366300       0.807098
    18165.304300       0.806670
    18198.362100       0.806212
    18231.540600       0.805725
    18264.840200       0.805206
    18298.261700       0.804656
    18331.805700       0.804073
    18365.472900       0.803457
    18399.264000       0.802807
    18433.179700       0.802123
    18467.220700       0.801403
    18501.387600       0.800646
    18535.681200       0.799853
    18570.102100       0.799022
    18604.651200       0.798153
    18639.329000       0.797244
    18674.136300       0.796295
    18709.073900       0.795305
    18744.142500       0.794274
    18779.342700       0.793201
    18814.675400       0.792085
    18850.141400       0.790925
    18885.741300       0.789720
    18921.475900       0.788471
    18957.346000       0.787175
    18993.352300       0.785833
    19029.495700       0.784444
    19065.776900       0.783007
    19102.196800       0.781521
    19138.756000       0.779986
    19175.455400       0.778400
    19212.295900       0.776764
    19249.278200       0.775077
    19286.403100       0.773337
    19323.671500       0.771545
    19361.084200       0.769699
    19398.642100       0.767800
    19436.346000       0.765846
    19474.196700       0.763836
    19512.195100       0.761771
    19550.342100       0.759649
    19588.638600       0.757471
    19627.085400       0.755234
    19665.683400       0.752940
    19704.433500       0.750586
    19743.336600       0.748174
    19782.393700       0.745702
    19821.605600       0.743169
    19860.973200       0.740575
    19900.497500       0.737921
    19940.179500       0.735204
    19980.020000       0.732425
    20020.020000       0.729584
    20060.180500       0.726679
    20100.502500       0.723711
    20140.986900       0.720678
    20181.634700       0.717582
    20222.446900       0.714421
    20263.424500       0.711194
    20304.568500       0.707902
    20345.880000       0.704545
    20387.359800       0.701121
    20429.009200       0.697631
    20470.829100       0.694074
    20512.820500       0.690451
    20554.984600       0.686760
    20597.322300       0.683002
    20639.834900       0.679177
    20682.523300       0.675284
    20725.388600       0.671323
    20768.432000       0.667295
    20811.654500       0.663198
    20855.057400       0.659033
    20898.641600       0.654800
    20942.408400       0.650499
    20986.358900       0.646130
    21030.494200       0.641693
    21074.815600       0.637187
    21119.324200       0.632614
    21164.021200       0.627972
    21208.907700       0.623263
    21253.985100       0.618486
    21299.254500       0.613641
    21344.717200       0.608729
    21390.374300       0.603751
    21436.227200       0.598705
    21482.277100       0.593593
    21528.525300       0.588414
    21574.973000       0.583170
    21621.621600       0.577860
    21668.472400       0.572486
    21715.526600       0.567046
    21762.785600       0.561543
    21810.250800       0.555976
    21857.923500       0.550346
    21905.805000       0.544653
    21953.896800       0.538898
    22002.200200       0.533083
    22050.716600       0.527206
    22099.447500       0.521270
    22148.394200       0.515275
    22197.558300       0.509221
    22246.941000       0.503110
    22296.544000       0.496943
    22346.368700       0.490719
    22396.416600       0.484442
    22446.689100       0.478110
    22497.187900       0.471725
    22547.914300       0.465289
    22598.870100       0.458803
    22650.056600       0.452267
    22701.475600       0.445682
    22753.128600       0.439051
    22805.017100       0.432374
    22857.142900       0.425653
    22909.507400       0.418889
    22962.112500       0.412083
    23014.959700       0.405238
    23068.050700       0.398353
    23121.387300       0.391432
    23174.971000       0.384475
    23228.803700       0.377485
    23282.887100       0.370462
    23337.222900       0.363409
    23391.812900       0.356327
    23446.658900       0.349219
    23501.762600       0.342086
    23557.126000       0.334930
    23612.750900       0.327754
    23668.639100       0.320559
    23724.792400       0.313347
    23781.212800       0.306121
    23837.902300       0.298882
    23894.862600       0.291633
    23952.095800       0.284377
    24009.603800       0.277116
    24067.388700       0.269852
    24125.452400       0.262588
    24183.796900       0.255326
    24242.424200       0.248068
    24301.336600       0.240819
    24360.535900       0.233580
    24420.024400       0.226354
    24479.804200       0.219144
    24539.877300       0.211953
    24600.246000       0.204785
    24660.912500       0.197641
    24721.878900       0.190525
    24783.147500       0.183441
    24844.720500       0.176391
    24906.600200       0.169379
    24968.789000       0.162409
    25031.289100       0.155484
    25094.102900       0.148606
    25157.232700       0.141781
    25220.681000       0.135011
    25284.450100       0.128300
    25348.542500       0.121653
    25412.960600       0.115073
    25477.707000       0.108563
