5,    channel 5 : SRF extracted from ECA_EXAA_AUX_CC35_M_00000000T000000Z_99999999T999999Z_0001.nc (January 2022)
Number of data points:
263
Wavenumber (cm-1)   Filter response
      973.709800       0.000001
      974.658900       0.000002
      975.609700       0.000003
      976.562500       0.000004
      977.517200       0.000005
      978.473600       0.000005
      979.431900       0.000006
      980.392200       0.000006
      981.354300       0.000006
      982.318200       0.000005
      983.284200       0.000005
      984.252000       0.000004
      985.221700       0.000004
      986.193200       0.000005
      987.166800       0.000005
      988.142300       0.000005
      989.119700       0.000004
      990.099000       0.000002
      991.080300       0.000001
      992.063500       0.000001
      993.048700       0.000002
      994.035800       0.000003
      995.024800       0.000004
      996.015900       0.000004
      997.009000       0.000003
      998.004000       0.000003
      999.001000       0.000003
     1000.000000       0.000004
     1001.001000       0.000004
     1002.004000       0.000004
     1003.009000       0.000003
     1004.016100       0.000002
     1005.025100       0.000001
     1006.036300       0.000000
     1007.049300       0.000001
     1008.064500       0.000001
     1009.081700       0.000003
     1010.101100       0.000005
     1011.122300       0.000007
     1012.145800       0.000008
     1013.171300       0.000008
     1014.198800       0.000007
     1015.228400       0.000004
     1016.260100       0.000001
     1017.294000       0.000000
     1018.330000       0.000002
     1019.367900       0.000007
     1020.408100       0.000013
     1021.450400       0.000018
     1022.494900       0.000022
     1023.541400       0.000024
     1024.590100       0.000026
     1025.641000       0.000028
     1026.694100       0.000030
     1027.749300       0.000034
     1028.806500       0.000040
     1029.866100       0.000049
     1030.927900       0.000061
     1031.991800       0.000077
     1033.057900       0.000097
     1034.126100       0.000123
     1035.196700       0.000158
     1036.269500       0.000205
     1037.344400       0.000269
     1038.421600       0.000354
     1039.501100       0.000463
     1040.582800       0.000599
     1041.666600       0.000764
     1042.752800       0.000958
     1043.841300       0.001185
     1044.932100       0.001452
     1046.025000       0.001768
     1047.120400       0.002143
     1048.218000       0.002581
     1049.318000       0.003093
     1050.420200       0.003706
     1051.524700       0.004457
     1052.631600       0.005388
     1053.740800       0.006504
     1054.852400       0.007815
     1055.966200       0.009291
     1057.082400       0.010983
     1058.201000       0.012944
     1059.322000       0.015283
     1060.445300       0.018054
     1061.571200       0.021331
     1062.699200       0.025229
     1063.829800       0.029837
     1064.962600       0.035346
     1066.098000       0.041884
     1067.235800       0.049730
     1068.376100       0.059051
     1069.518700       0.070151
     1070.663800       0.083397
     1071.811400       0.099086
     1072.961400       0.117630
     1074.113800       0.139540
     1075.268800       0.165080
     1076.426300       0.194610
     1077.586200       0.228470
     1078.748700       0.266660
     1079.913600       0.308810
     1081.081100       0.354530
     1082.251100       0.403060
     1083.423700       0.453860
     1084.598600       0.505550
     1085.776400       0.557040
     1086.956500       0.607390
     1088.139300       0.655000
     1089.324600       0.699440
     1090.512600       0.740530
     1091.703100       0.777930
     1092.896200       0.811030
     1094.091900       0.840420
     1095.290300       0.866440
     1096.491200       0.888880
     1097.694800       0.908840
     1098.901000       0.926300
     1100.110000       0.941230
     1101.321700       0.954040
     1102.535900       0.964720
     1103.752700       0.972940
     1104.972400       0.979370
     1106.194700       0.984300
     1107.419800       0.988110
     1108.647300       0.990690
     1109.877900       0.992890
     1111.111100       0.993850
     1112.347000       0.994330
     1113.585800       0.993760
     1114.827100       0.992710
     1116.071400       0.991170
     1117.318500       0.991260
     1118.568200       0.991050
     1119.820800       0.990630
     1121.076200       0.991100
     1122.334500       0.991470
     1123.595600       0.992320
     1124.859400       0.993370
     1126.126100       0.993900
     1127.395800       0.994760
     1128.668200       0.995830
     1129.943500       0.996820
     1131.221700       0.998530
     1132.502800       0.999660
     1133.786900       0.999950
     1135.073700       1.000000
     1136.363600       0.999430
     1137.656400       0.998420
     1138.952100       0.997170
     1140.250900       0.995980
     1141.552500       0.995200
     1142.857200       0.994860
     1144.164800       0.994240
     1145.475500       0.992400
     1146.788900       0.990050
     1148.105600       0.988600
     1149.425300       0.987980
     1150.748000       0.987540
     1152.073700       0.986600
     1153.402600       0.983990
     1154.734400       0.982660
     1156.069500       0.981500
     1157.407300       0.980410
     1158.748500       0.979270
     1160.092800       0.978020
     1161.440200       0.976670
     1162.790600       0.975560
     1164.144300       0.973950
     1165.501200       0.972370
     1166.861200       0.971210
     1168.224200       0.970440
     1169.590600       0.970170
     1170.960200       0.969210
     1172.333000       0.967480
     1173.708900       0.965100
     1175.088100       0.962810
     1176.470600       0.960160
     1177.856300       0.956830
     1179.245400       0.951470
     1180.637500       0.942220
     1182.033100       0.928920
     1183.432000       0.909720
     1184.834200       0.884650
     1186.239600       0.853370
     1187.648400       0.814880
     1189.060700       0.768200
     1190.476200       0.713630
     1191.895000       0.653490
     1193.317400       0.590300
     1194.743200       0.526600
     1196.172200       0.464140
     1197.604700       0.404050
     1199.040800       0.348220
     1200.480200       0.297600
     1201.923100       0.252530
     1203.369400       0.213130
     1204.819200       0.179170
     1206.272600       0.150090
     1207.729500       0.125570
     1209.189800       0.105000
     1210.653700       0.087817
     1212.121200       0.073489
     1213.592300       0.061564
     1215.066900       0.051635
     1216.544900       0.043359
     1218.026700       0.036489
     1219.512200       0.030720
     1221.001300       0.025863
     1222.493900       0.021768
     1223.990200       0.018385
     1225.490200       0.015619
     1226.993900       0.013308
     1228.501200       0.011339
     1230.012300       0.009635
     1231.527100       0.008164
     1233.045700       0.006920
     1234.567900       0.005879
     1236.093900       0.005022
     1237.623800       0.004319
     1239.157500       0.003736
     1240.694700       0.003232
     1242.236000       0.002766
     1243.781100       0.002335
     1245.330100       0.001974
     1246.882700       0.001688
     1248.439500       0.001445
     1250.000000       0.001220
     1251.564500       0.001025
     1253.132800       0.000877
     1254.705200       0.000750
     1256.281400       0.000621
     1257.861700       0.000522
     1259.445800       0.000480
     1261.034100       0.000447
     1262.626200       0.000378
     1264.222500       0.000284
     1265.822800       0.000198
     1267.427100       0.000137
     1269.035500       0.000099
     1270.648100       0.000068
     1272.264600       0.000036
     1273.885400       0.000012
     1275.510100       0.000011
     1277.139200       0.000044
     1278.772300       0.000061
     1280.409800       0.000041
     1282.051300       0.000014
     1283.697000       0.000019
     1285.347000       0.000050
     1287.001300       0.000081
     1288.659800       0.000102
     1290.322600       0.000092
     1291.989700       0.000040
     1293.661000       0.000008
     1295.336800       0.000001
     1297.016800       0.000027
     1298.701300       0.000037
     1300.390100       0.000039
     1302.083400       0.000035
     1303.781000       0.000019
     1305.483000       0.000007
     1307.189600       0.000015
