53,   53, MVIRI VIS channel from srf_MET2_1988258_1988259_1801-Release_S10EL_10.dat
Number of data points:
730
Wavenumber (cm-1)   Filter response
     8916.629500       0.000000
     8924.587200       0.000000
     8932.559200       0.000002
     8940.545400       0.000012
     8948.545900       0.000032
     8956.560700       0.000069
     8964.589900       0.000127
     8972.633500       0.000209
     8980.691500       0.000320
     8988.764000       0.000464
     8996.851100       0.000644
     9004.952700       0.000864
     9013.068900       0.001127
     9021.199800       0.001436
     9029.345400       0.001795
     9037.505600       0.002206
     9045.680700       0.002672
     9053.870500       0.003196
     9062.075200       0.003781
     9070.294800       0.004428
     9078.529300       0.005139
     9086.778700       0.005918
     9095.043200       0.006766
     9103.322700       0.007685
     9111.617300       0.008677
     9119.927000       0.009742
     9128.251900       0.010884
     9136.592100       0.012102
     9144.947400       0.013399
     9153.318100       0.014776
     9161.704100       0.016234
     9170.105500       0.017773
     9178.522300       0.019396
     9186.954500       0.021101
     9195.402300       0.022891
     9203.865600       0.024766
     9212.344500       0.026727
     9220.839100       0.028773
     9229.349300       0.030906
     9237.875300       0.033125
     9246.417000       0.035431
     9254.974500       0.037825
     9263.547900       0.040305
     9272.137200       0.042873
     9280.742500       0.045527
     9289.363700       0.048269
     9298.000900       0.051097
     9306.654300       0.054012
     9315.323700       0.057013
     9324.009300       0.060101
     9332.711200       0.063273
     9341.429200       0.066531
     9350.163600       0.069873
     9358.914400       0.073299
     9367.681500       0.076808
     9376.465100       0.080400
     9385.265100       0.084074
     9394.081700       0.087829
     9402.914900       0.091665
     9411.764700       0.095580
     9420.631200       0.099574
     9429.514400       0.103645
     9438.414300       0.107794
     9447.331100       0.112018
     9456.264800       0.116317
     9465.215300       0.120690
     9474.182900       0.125135
     9483.167400       0.129653
     9492.169000       0.134240
     9501.187600       0.138897
     9510.223500       0.143623
     9519.276500       0.148414
     9528.346800       0.153272
     9537.434400       0.158195
     9546.539400       0.163180
     9555.661700       0.168228
     9564.801500       0.173336
     9573.958800       0.178503
     9583.133700       0.183729
     9592.326100       0.189011
     9601.536200       0.194349
     9610.764100       0.199740
     9620.009600       0.205184
     9629.273000       0.210679
     9638.554200       0.216224
     9647.853400       0.221817
     9657.170400       0.227457
     9666.505600       0.233143
     9675.858700       0.238873
     9685.230000       0.244645
     9694.619500       0.250459
     9704.027200       0.256312
     9713.453100       0.262204
     9722.897400       0.268133
     9732.360100       0.274096
     9741.841200       0.280095
     9751.340800       0.286125
     9760.859000       0.292187
     9770.395700       0.298279
     9779.951100       0.304399
     9789.525200       0.310546
     9799.118100       0.316718
     9808.729800       0.322914
     9818.360300       0.329133
     9828.009800       0.335373
     9837.678300       0.341633
     9847.365800       0.347911
     9857.072400       0.354205
     9866.798200       0.360516
     9876.543200       0.366841
     9886.307500       0.373178
     9896.091000       0.379528
     9905.894000       0.385887
     9915.716400       0.392255
     9925.558300       0.398630
     9935.419800       0.405012
     9945.300800       0.411398
     9955.201600       0.417788
     9965.122100       0.424180
     9975.062300       0.430573
     9985.022500       0.436966
     9995.002500       0.443358
    10005.002500       0.449746
    10015.022500       0.456131
    10025.062700       0.462510
    10035.122900       0.468883
    10045.203400       0.475248
    10055.304200       0.481605
    10065.425300       0.487952
    10075.566800       0.494287
    10085.728700       0.500611
    10095.911200       0.506921
    10106.114200       0.513217
    10116.337900       0.519497
    10126.582300       0.525761
    10136.847400       0.532007
    10147.133400       0.538235
    10157.440300       0.544443
    10167.768200       0.550631
    10178.117000       0.556797
    10188.487000       0.562940
    10198.878100       0.569060
    10209.290500       0.575156
    10219.724100       0.581226
    10230.179000       0.587270
    10240.655400       0.593287
    10251.153300       0.599276
    10261.672700       0.605236
    10272.213700       0.611166
    10282.776300       0.617066
    10293.360800       0.622934
    10303.967000       0.628771
    10314.595200       0.634574
    10325.245200       0.640344
    10335.917300       0.646080
    10346.611500       0.651781
    10357.327800       0.657445
    10368.066400       0.663074
    10378.827200       0.668665
    10389.610400       0.674219
    10400.416000       0.679734
    10411.244100       0.685210
    10422.094800       0.690647
    10432.968200       0.696043
    10443.864200       0.701399
    10454.783100       0.706713
    10465.724800       0.711985
    10476.689400       0.717216
    10487.677000       0.722403
    10498.687700       0.727547
    10509.721500       0.732647
    10520.778500       0.737703
    10531.858900       0.742714
    10542.962600       0.747680
    10554.089700       0.752601
    10565.240400       0.757475
    10576.414600       0.762303
    10587.612500       0.767085
    10598.834100       0.771820
    10610.079600       0.776507
    10621.348900       0.781146
    10632.642200       0.785738
    10643.959600       0.790281
    10655.301000       0.794776
    10666.666700       0.799222
    10678.056600       0.803619
    10689.470900       0.807966
    10700.909600       0.812264
    10712.372800       0.816513
    10723.860600       0.820711
    10735.373100       0.824860
    10746.910300       0.828958
    10758.472300       0.833006
    10770.059200       0.837003
    10781.671200       0.840949
    10793.308100       0.844845
    10804.970300       0.848690
    10816.657700       0.852484
    10828.370300       0.856227
    10840.108400       0.859919
    10851.871900       0.863559
    10863.661100       0.867149
    10875.475800       0.870687
    10887.316300       0.874173
    10899.182600       0.877609
    10911.074700       0.880993
    10922.992900       0.884326
    10934.937100       0.887608
    10946.907500       0.890838
    10958.904100       0.894018
    10970.927000       0.897146
    10982.976400       0.900223
    10995.052200       0.903249
    11007.154700       0.906224
    11019.283700       0.909149
    11031.439600       0.912022
    11043.622300       0.914845
    11055.832000       0.917618
    11068.068600       0.920340
    11080.332400       0.923012
    11092.623400       0.925633
    11104.941700       0.928205
    11117.287400       0.930727
    11129.660500       0.933199
    11142.061300       0.935622
    11154.489700       0.937996
    11166.945800       0.940320
    11179.429800       0.942595
    11191.941800       0.944822
    11204.481800       0.947000
    11217.049900       0.949130
    11229.646300       0.951211
    11242.270900       0.953245
    11254.924000       0.955231
    11267.605600       0.957170
    11280.315800       0.959062
    11293.054800       0.960906
    11305.822500       0.962704
    11318.619100       0.964455
    11331.444800       0.966161
    11344.299500       0.967820
    11357.183400       0.969434
    11370.096600       0.971002
    11383.039300       0.972525
    11396.011400       0.974003
    11409.013100       0.975437
    11422.044500       0.976827
    11435.105800       0.978172
    11448.196900       0.979474
    11461.318100       0.980733
    11474.469300       0.981948
    11487.650800       0.983121
    11500.862600       0.984251
    11514.104800       0.985339
    11527.377500       0.986385
    11540.680900       0.987390
    11554.015000       0.988354
    11567.380000       0.989276
    11580.775900       0.990158
    11594.202900       0.991000
    11607.661100       0.991802
    11621.150500       0.992564
    11634.671300       0.993287
    11648.223600       0.993970
    11661.807600       0.994616
    11675.423200       0.995223
    11689.070700       0.995792
    11702.750100       0.996323
    11716.461600       0.996817
    11730.205300       0.997274
    11743.981200       0.997694
    11757.789500       0.998078
    11771.630400       0.998426
    11785.503800       0.998739
    11799.410000       0.999016
    11813.349100       0.999258
    11827.321100       0.999465
    11841.326200       0.999638
    11855.364600       0.999777
    11869.436200       0.999883
    11883.541300       0.999955
    11897.680000       0.999994
    11911.852300       1.000000
    11926.058400       0.999974
    11940.298500       0.999916
    11954.572600       0.999826
    11968.880900       0.999705
    11983.223500       0.999552
    11997.600500       0.999369
    12012.012000       0.999156
    12026.458200       0.998912
    12040.939200       0.998639
    12055.455100       0.998336
    12070.006000       0.998004
    12084.592100       0.997643
    12099.213600       0.997253
    12113.870400       0.996836
    12128.562800       0.996390
    12143.290800       0.995917
    12158.054700       0.995416
    12172.854500       0.994888
    12187.690400       0.994334
    12202.562500       0.993753
    12217.471000       0.993146
    12232.415900       0.992513
    12247.397400       0.991854
    12262.415700       0.991171
    12277.470800       0.990462
    12292.563000       0.989728
    12307.692300       0.988970
    12322.858900       0.988188
    12338.062900       0.987382
    12353.304500       0.986552
    12368.583800       0.985699
    12383.900900       0.984822
    12399.256000       0.983923
    12414.649300       0.983001
    12430.080800       0.982057
    12445.550700       0.981091
    12461.059200       0.980103
    12476.606400       0.979093
    12492.192400       0.978062
    12507.817400       0.977010
    12523.481500       0.975937
    12539.185000       0.974843
    12554.927800       0.973729
    12570.710200       0.972595
    12586.532400       0.971440
    12602.394500       0.970266
    12618.296500       0.969073
    12634.238800       0.967860
    12650.221400       0.966628
    12666.244500       0.965377
    12682.308200       0.964108
    12698.412700       0.962820
    12714.558200       0.961514
    12730.744700       0.960189
    12746.972600       0.958847
    12763.241900       0.957487
    12779.552700       0.956110
    12795.905300       0.954715
    12812.299800       0.953304
    12828.736400       0.951875
    12845.215200       0.950429
    12861.736300       0.948967
    12878.300100       0.947489
    12894.906500       0.945994
    12911.555800       0.944483
    12928.248200       0.942956
    12944.983800       0.941414
    12961.762800       0.939856
    12978.585300       0.938282
    12995.451600       0.936693
    13012.361700       0.935089
    13029.316000       0.933470
    13046.314400       0.931837
    13063.357300       0.930188
    13080.444700       0.928525
    13097.576900       0.926847
    13114.754100       0.925156
    13131.976400       0.923450
    13149.243900       0.921730
    13166.556900       0.919996
    13183.915600       0.918248
    13201.320100       0.916487
    13218.770700       0.914712
    13236.267400       0.912923
    13253.810500       0.911122
    13271.400100       0.909307
    13289.036500       0.907479
    13306.719900       0.905638
    13324.450400       0.903784
    13342.228200       0.901918
    13360.053400       0.900039
    13377.926400       0.898147
    13395.847300       0.896243
    13413.816200       0.894326
    13431.833400       0.892398
    13449.899100       0.890457
    13468.013500       0.888504
    13486.176700       0.886539
    13504.388900       0.884562
    13522.650400       0.882573
    13540.961400       0.880573
    13559.322000       0.878561
    13577.732500       0.876537
    13596.193100       0.874502
    13614.703900       0.872455
    13633.265200       0.870398
    13651.877100       0.868329
    13670.540000       0.866249
    13689.253900       0.864157
    13708.019200       0.862055
    13726.836000       0.859942
    13745.704500       0.857818
    13764.624900       0.855683
    13783.597500       0.853538
    13802.622500       0.851382
    13821.700100       0.849215
    13840.830400       0.847038
    13860.013900       0.844850
    13879.250500       0.842652
    13898.540700       0.840444
    13917.884500       0.838226
    13937.282200       0.835997
    13956.734100       0.833758
    13976.240400       0.831509
    13995.801300       0.829251
    14015.417000       0.826982
    14035.087700       0.824703
    14054.813800       0.822415
    14074.595400       0.820117
    14094.432700       0.817810
    14114.326000       0.815493
    14134.275600       0.813166
    14154.281700       0.810830
    14174.344400       0.808484
    14194.464200       0.806129
    14214.641100       0.803765
    14234.875400       0.801392
    14255.167500       0.799010
    14275.517500       0.796618
    14295.925700       0.794218
    14316.392300       0.791808
    14336.917600       0.789390
    14357.501800       0.786963
    14378.145200       0.784527
    14398.848100       0.782083
    14419.610700       0.779629
    14440.433200       0.777168
    14461.316000       0.774698
    14482.259200       0.772219
    14503.263200       0.769733
    14524.328200       0.767238
    14545.454500       0.764734
    14566.642400       0.762223
    14587.892000       0.759704
    14609.203800       0.757177
    14630.577900       0.754641
    14652.014700       0.752099
    14673.514300       0.749548
    14695.077100       0.746990
    14716.703500       0.744424
    14738.393500       0.741851
    14760.147600       0.739270
    14781.966000       0.736682
    14803.849000       0.734086
    14825.796900       0.731484
    14847.809900       0.728875
    14869.888500       0.726258
    14892.032800       0.723635
    14914.243100       0.721005
    14936.519800       0.718368
    14958.863100       0.715724
    14981.273400       0.713075
    15003.750900       0.710418
    15026.296000       0.707755
    15048.909000       0.705086
    15071.590100       0.702411
    15094.339600       0.699730
    15117.158000       0.697043
    15140.045400       0.694350
    15163.002300       0.691652
    15186.028900       0.688947
    15209.125500       0.686238
    15232.292500       0.683522
    15255.530100       0.680802
    15278.838800       0.678076
    15302.218800       0.675345
    15325.670500       0.672609
    15349.194200       0.669869
    15372.790200       0.667124
    15396.458800       0.664374
    15420.200500       0.661619
    15444.015400       0.658860
    15467.904100       0.656097
    15491.866800       0.653330
    15515.903800       0.650559
    15540.015500       0.647783
    15564.202300       0.645004
    15588.464500       0.642222
    15612.802500       0.639435
    15637.216600       0.636646
    15661.707100       0.633853
    15686.274500       0.631057
    15710.919100       0.628258
    15735.641200       0.625456
    15760.441300       0.622652
    15785.319700       0.619844
    15810.276700       0.617035
    15835.312700       0.614223
    15860.428200       0.611409
    15885.623500       0.608592
    15910.899000       0.605774
    15936.255000       0.602954
    15961.691900       0.600133
    15987.210200       0.597310
    16012.810200       0.594485
    16038.492400       0.591660
    16064.257000       0.588833
    16090.104600       0.586006
    16116.035500       0.583177
    16142.050000       0.580348
    16168.148700       0.577519
    16194.332000       0.574689
    16220.600200       0.571859
    16246.953700       0.569029
    16273.393000       0.566199
    16299.918500       0.563370
    16326.530600       0.560541
    16353.229800       0.557712
    16380.016400       0.554884
    16406.890900       0.552057
    16433.853700       0.549231
    16460.905300       0.546406
    16488.046200       0.543583
    16515.276600       0.540761
    16542.597200       0.537940
    16570.008300       0.535122
    16597.510400       0.532305
    16625.103900       0.529490
    16652.789300       0.526678
    16680.567100       0.523867
    16708.437800       0.521060
    16736.401700       0.518255
    16764.459300       0.515452
    16792.611300       0.512653
    16820.857900       0.509857
    16849.199700       0.507064
    16877.637100       0.504275
    16906.170800       0.501489
    16934.801000       0.498706
    16963.528400       0.495928
    16992.353400       0.493153
    17021.276600       0.490382
    17050.298400       0.487616
    17079.419300       0.484854
    17108.639900       0.482097
    17137.960600       0.479344
    17167.382000       0.476596
    17196.904600       0.473852
    17226.528900       0.471114
    17256.255400       0.468381
    17286.084700       0.465653
    17316.017300       0.462931
    17346.053800       0.460214
    17376.194600       0.457503
    17406.440400       0.454797
    17436.791600       0.452098
    17467.248900       0.449404
    17497.812800       0.446717
    17528.483800       0.444035
    17559.262500       0.441360
    17590.149500       0.438692
    17621.145400       0.436030
    17652.250700       0.433374
    17683.466000       0.430726
    17714.791900       0.428084
    17746.228900       0.425449
    17777.777800       0.422821
    17809.439000       0.420200
    17841.213200       0.417587
    17873.101000       0.414980
    17905.103000       0.412381
    17937.219700       0.409790
    17969.451900       0.407206
    18001.800200       0.404629
    18034.265100       0.402060
    18066.847300       0.399499
    18099.547500       0.396946
    18132.366300       0.394400
    18165.304300       0.391863
    18198.362100       0.389333
    18231.540600       0.386811
    18264.840200       0.384297
    18298.261700       0.381792
    18331.805700       0.379294
    18365.472900       0.376805
    18399.264000       0.374323
    18433.179700       0.371850
    18467.220700       0.369385
    18501.387600       0.366929
    18535.681200       0.364480
    18570.102100       0.362040
    18604.651200       0.359608
    18639.329000       0.357184
    18674.136300       0.354769
    18709.073900       0.352362
    18744.142500       0.349963
    18779.342700       0.347573
    18814.675400       0.345190
    18850.141400       0.342816
    18885.741300       0.340450
    18921.475900       0.338092
    18957.346000       0.335742
    18993.352300       0.333400
    19029.495700       0.331067
    19065.776900       0.328741
    19102.196800       0.326423
    19138.756000       0.324113
    19175.455400       0.321811
    19212.295900       0.319517
    19249.278200       0.317231
    19286.403100       0.314952
    19323.671500       0.312680
    19361.084200       0.310416
    19398.642100       0.308160
    19436.346000       0.305910
    19474.196700       0.303668
    19512.195100       0.301433
    19550.342100       0.299205
    19588.638600       0.296984
    19627.085400       0.294770
    19665.683400       0.292563
    19704.433500       0.290362
    19743.336600       0.288167
    19782.393700       0.285979
    19821.605600       0.283797
    19860.973200       0.281621
    19900.497500       0.279451
    19940.179500       0.277286
    19980.020000       0.275128
    20020.020000       0.272975
    20060.180500       0.270827
    20100.502500       0.268684
    20140.986900       0.266546
    20181.634700       0.264414
    20222.446900       0.262286
    20263.424500       0.260162
    20304.568500       0.258043
    20345.880000       0.255928
    20387.359800       0.253817
    20429.009200       0.251710
    20470.829100       0.249606
    20512.820500       0.247506
    20554.984600       0.245410
    20597.322300       0.243316
    20639.834900       0.241225
    20682.523300       0.239137
    20725.388600       0.237052
    20768.432000       0.234968
    20811.654500       0.232887
    20855.057400       0.230808
    20898.641600       0.228730
    20942.408400       0.226654
    20986.358900       0.224579
    21030.494200       0.222505
    21074.815600       0.220432
    21119.324200       0.218360
    21164.021200       0.216288
    21208.907700       0.214216
    21253.985100       0.212144
    21299.254500       0.210073
    21344.717200       0.208000
    21390.374300       0.205927
    21436.227200       0.203853
    21482.277100       0.201779
    21528.525300       0.199702
    21574.973000       0.197625
    21621.621600       0.195545
    21668.472400       0.193464
    21715.526600       0.191381
    21762.785600       0.189295
    21810.250800       0.187207
    21857.923500       0.185116
    21905.805000       0.183022
    21953.896800       0.180925
    22002.200200       0.178825
    22050.716600       0.176721
    22099.447500       0.174614
    22148.394200       0.172503
    22197.558300       0.170387
    22246.941000       0.168268
    22296.544000       0.166144
    22346.368700       0.164016
    22396.416600       0.161882
    22446.689100       0.159744
    22497.187900       0.157601
    22547.914300       0.155453
    22598.870100       0.153300
    22650.056600       0.151141
    22701.475600       0.148976
    22753.128600       0.146806
    22805.017100       0.144630
    22857.142900       0.142449
    22909.507400       0.140261
    22962.112500       0.138067
    23014.959700       0.135867
    23068.050700       0.133661
    23121.387300       0.131449
    23174.971000       0.129230
    23228.803700       0.127006
    23282.887100       0.124774
    23337.222900       0.122537
    23391.812900       0.120293
    23446.658900       0.118042
    23501.762600       0.115786
    23557.126000       0.113522
    23612.750900       0.111253
    23668.639100       0.108978
    23724.792400       0.106696
    23781.212800       0.104408
    23837.902300       0.102115
    23894.862600       0.099815
    23952.095800       0.097510
    24009.603800       0.095200
    24067.388700       0.092883
    24125.452400       0.090562
    24183.796900       0.088236
    24242.424200       0.085905
    24301.336600       0.083569
    24360.535900       0.081229
    24420.024400       0.078885
    24479.804200       0.076538
    24539.877300       0.074187
    24600.246000       0.071832
    24660.912500       0.069475
    24721.878900       0.067116
    24783.147500       0.064755
    24844.720500       0.062392
    24906.600200       0.060028
    24968.789000       0.057663
    25031.289100       0.055298
    25094.102900       0.052934
    25157.232700       0.050570
    25220.681000       0.048208
    25284.450100       0.045848
    25348.542500       0.043490
    25412.960600       0.041136
    25477.707000       0.038786
