4,   4, MVIRI VIS channel from srf_MET6_1997168_1997169_1801-Release_S10EL_10.dat
Number of data points:
750
Wavenumber (cm-1)   Filter response
     8760.403000       0.000000
     8768.084200       0.000000
     8775.778900       0.000000
     8783.487000       0.000002
     8791.208800       0.000005
     8798.944100       0.000010
     8806.693100       0.000019
     8814.455700       0.000032
     8822.232000       0.000050
     8830.022100       0.000073
     8837.825900       0.000102
     8845.643500       0.000139
     8853.475000       0.000183
     8861.320300       0.000237
     8869.179600       0.000300
     8877.052800       0.000373
     8884.940000       0.000457
     8892.841300       0.000554
     8900.756600       0.000663
     8908.686000       0.000786
     8916.629500       0.000923
     8924.587200       0.001076
     8932.559200       0.001245
     8940.545400       0.001431
     8948.545900       0.001635
     8956.560700       0.001857
     8964.589900       0.002099
     8972.633500       0.002361
     8980.691500       0.002645
     8988.764000       0.002950
     8996.851100       0.003278
     9004.952700       0.003630
     9013.068900       0.004006
     9021.199800       0.004408
     9029.345400       0.004835
     9037.505600       0.005289
     9045.680700       0.005771
     9053.870500       0.006281
     9062.075200       0.006821
     9070.294800       0.007390
     9078.529300       0.007990
     9086.778700       0.008621
     9095.043200       0.009284
     9103.322700       0.009981
     9111.617300       0.010710
     9119.927000       0.011474
     9128.251900       0.012273
     9136.592100       0.013108
     9144.947400       0.013979
     9153.318100       0.014887
     9161.704100       0.015832
     9170.105500       0.016816
     9178.522300       0.017838
     9186.954500       0.018900
     9195.402300       0.020002
     9203.865600       0.021145
     9212.344500       0.022328
     9220.839100       0.023554
     9229.349300       0.024821
     9237.875300       0.026131
     9246.417000       0.027485
     9254.974500       0.028882
     9263.547900       0.030323
     9272.137200       0.031809
     9280.742500       0.033340
     9289.363700       0.034916
     9298.000900       0.036539
     9306.654300       0.038207
     9315.323700       0.039922
     9324.009300       0.041684
     9332.711200       0.043494
     9341.429200       0.045350
     9350.163600       0.047255
     9358.914400       0.049208
     9367.681500       0.051209
     9376.465100       0.053260
     9385.265100       0.055358
     9394.081700       0.057506
     9402.914900       0.059703
     9411.764700       0.061950
     9420.631200       0.064247
     9429.514400       0.066592
     9438.414300       0.068988
     9447.331100       0.071434
     9456.264800       0.073930
     9465.215300       0.076476
     9474.182900       0.079072
     9483.167400       0.081718
     9492.169000       0.084415
     9501.187600       0.087162
     9510.223500       0.089958
     9519.276500       0.092805
     9528.346800       0.095702
     9537.434400       0.098649
     9546.539400       0.101645
     9555.661700       0.104692
     9564.801500       0.107788
     9573.958800       0.110934
     9583.133700       0.114129
     9592.326100       0.117372
     9601.536200       0.120665
     9610.764100       0.124007
     9620.009600       0.127397
     9629.273000       0.130836
     9638.554200       0.134322
     9647.853400       0.137856
     9657.170400       0.141438
     9666.505600       0.145066
     9675.858700       0.148742
     9685.230000       0.152464
     9694.619500       0.156232
     9704.027200       0.160046
     9713.453100       0.163905
     9722.897400       0.167809
     9732.360100       0.171758
     9741.841200       0.175751
     9751.340800       0.179787
     9760.859000       0.183867
     9770.395700       0.187990
     9779.951100       0.192154
     9789.525200       0.196361
     9799.118100       0.200610
     9808.729800       0.204898
     9818.360300       0.209228
     9828.009800       0.213596
     9837.678300       0.218005
     9847.365800       0.222452
     9857.072400       0.226937
     9866.798200       0.231459
     9876.543200       0.236018
     9886.307500       0.240614
     9896.091000       0.245246
     9905.894000       0.249912
     9915.716400       0.254613
     9925.558300       0.259348
     9935.419800       0.264116
     9945.300800       0.268917
     9955.201600       0.273749
     9965.122100       0.278613
     9975.062300       0.283507
     9985.022500       0.288431
     9995.002500       0.293384
    10005.002500       0.298366
    10015.022500       0.303375
    10025.062700       0.308411
    10035.122900       0.313473
    10045.203400       0.318562
    10055.304200       0.323675
    10065.425300       0.328812
    10075.566800       0.333972
    10085.728700       0.339155
    10095.911200       0.344360
    10106.114200       0.349586
    10116.337900       0.354832
    10126.582300       0.360098
    10136.847400       0.365383
    10147.133400       0.370686
    10157.440300       0.376006
    10167.768200       0.381342
    10178.117000       0.386694
    10188.487000       0.392061
    10198.878100       0.397443
    10209.290500       0.402837
    10219.724100       0.408245
    10230.179000       0.413663
    10240.655400       0.419093
    10251.153300       0.424533
    10261.672700       0.429983
    10272.213700       0.435441
    10282.776300       0.440906
    10293.360800       0.446379
    10303.967000       0.451858
    10314.595200       0.457343
    10325.245200       0.462832
    10335.917300       0.468325
    10346.611500       0.473820
    10357.327800       0.479318
    10368.066400       0.484818
    10378.827200       0.490318
    10389.610400       0.495818
    10400.416000       0.501317
    10411.244100       0.506815
    10422.094800       0.512310
    10432.968200       0.517801
    10443.864200       0.523289
    10454.783100       0.528772
    10465.724800       0.534249
    10476.689400       0.539720
    10487.677000       0.545185
    10498.687700       0.550641
    10509.721500       0.556088
    10520.778500       0.561526
    10531.858900       0.566954
    10542.962600       0.572371
    10554.089700       0.577777
    10565.240400       0.583170
    10576.414600       0.588550
    10587.612500       0.593917
    10598.834100       0.599269
    10610.079600       0.604606
    10621.348900       0.609927
    10632.642200       0.615231
    10643.959600       0.620518
    10655.301000       0.625788
    10666.666700       0.631038
    10678.056600       0.636269
    10689.470900       0.641480
    10700.909600       0.646671
    10712.372800       0.651840
    10723.860600       0.656987
    10735.373100       0.662111
    10746.910300       0.667213
    10758.472300       0.672290
    10770.059200       0.677343
    10781.671200       0.682371
    10793.308100       0.687372
    10804.970300       0.692348
    10816.657700       0.697297
    10828.370300       0.702218
    10840.108400       0.707111
    10851.871900       0.711976
    10863.661100       0.716811
    10875.475800       0.721617
    10887.316300       0.726392
    10899.182600       0.731136
    10911.074700       0.735849
    10922.992900       0.740530
    10934.937100       0.745178
    10946.907500       0.749794
    10958.904100       0.754376
    10970.927000       0.758925
    10982.976400       0.763438
    10995.052200       0.767917
    11007.154700       0.772361
    11019.283700       0.776769
    11031.439600       0.781141
    11043.622300       0.785476
    11055.832000       0.789774
    11068.068600       0.794034
    11080.332400       0.798257
    11092.623400       0.802441
    11104.941700       0.806587
    11117.287400       0.810693
    11129.660500       0.814760
    11142.061300       0.818788
    11154.489700       0.822775
    11166.945800       0.826721
    11179.429800       0.830627
    11191.941800       0.834492
    11204.481800       0.838315
    11217.049900       0.842097
    11229.646300       0.845836
    11242.270900       0.849533
    11254.924000       0.853187
    11267.605600       0.856799
    11280.315800       0.860367
    11293.054800       0.863892
    11305.822500       0.867373
    11318.619100       0.870811
    11331.444800       0.874204
    11344.299500       0.877553
    11357.183400       0.880857
    11370.096600       0.884117
    11383.039300       0.887332
    11396.011400       0.890502
    11409.013100       0.893627
    11422.044500       0.896706
    11435.105800       0.899740
    11448.196900       0.902728
    11461.318100       0.905670
    11474.469300       0.908567
    11487.650800       0.911417
    11500.862600       0.914222
    11514.104800       0.916980
    11527.377500       0.919692
    11540.680900       0.922357
    11554.015000       0.924976
    11567.380000       0.927549
    11580.775900       0.930075
    11594.202900       0.932555
    11607.661100       0.934988
    11621.150500       0.937375
    11634.671300       0.939715
    11648.223600       0.942008
    11661.807600       0.944255
    11675.423200       0.946455
    11689.070700       0.948609
    11702.750100       0.950716
    11716.461600       0.952777
    11730.205300       0.954792
    11743.981200       0.956760
    11757.789500       0.958682
    11771.630400       0.960558
    11785.503800       0.962388
    11799.410000       0.964171
    11813.349100       0.965909
    11827.321100       0.967601
    11841.326200       0.969248
    11855.364600       0.970849
    11869.436200       0.972404
    11883.541300       0.973915
    11897.680000       0.975380
    11911.852300       0.976800
    11926.058400       0.978176
    11940.298500       0.979507
    11954.572600       0.980794
    11968.880900       0.982036
    11983.223500       0.983235
    11997.600500       0.984389
    12012.012000       0.985500
    12026.458200       0.986568
    12040.939200       0.987593
    12055.455100       0.988575
    12070.006000       0.989514
    12084.592100       0.990410
    12099.213600       0.991265
    12113.870400       0.992077
    12128.562800       0.992849
    12143.290800       0.993578
    12158.054700       0.994267
    12172.854500       0.994915
    12187.690400       0.995522
    12202.562500       0.996089
    12217.471000       0.996617
    12232.415900       0.997105
    12247.397400       0.997553
    12262.415700       0.997963
    12277.470800       0.998334
    12292.563000       0.998667
    12307.692300       0.998962
    12322.858900       0.999219
    12338.062900       0.999439
    12353.304500       0.999623
    12368.583800       0.999770
    12383.900900       0.999880
    12399.256000       0.999956
    12414.649300       0.999995
    12430.080800       1.000000
    12445.550700       0.999970
    12461.059200       0.999906
    12476.606400       0.999808
    12492.192400       0.999677
    12507.817400       0.999513
    12523.481500       0.999316
    12539.185000       0.999087
    12554.927800       0.998827
    12570.710200       0.998535
    12586.532400       0.998212
    12602.394500       0.997859
    12618.296500       0.997475
    12634.238800       0.997062
    12650.221400       0.996620
    12666.244500       0.996150
    12682.308200       0.995651
    12698.412700       0.995124
    12714.558200       0.994570
    12730.744700       0.993988
    12746.972600       0.993381
    12763.241900       0.992747
    12779.552700       0.992088
    12795.905300       0.991404
    12812.299800       0.990696
    12828.736400       0.989963
    12845.215200       0.989207
    12861.736300       0.988427
    12878.300100       0.987625
    12894.906500       0.986801
    12911.555800       0.985955
    12928.248200       0.985087
    12944.983800       0.984199
    12961.762800       0.983291
    12978.585300       0.982363
    12995.451600       0.981415
    13012.361700       0.980449
    13029.316000       0.979464
    13046.314400       0.978462
    13063.357300       0.977442
    13080.444700       0.976405
    13097.576900       0.975352
    13114.754100       0.974284
    13131.976400       0.973199
    13149.243900       0.972100
    13166.556900       0.970987
    13183.915600       0.969860
    13201.320100       0.968719
    13218.770700       0.967565
    13236.267400       0.966399
    13253.810500       0.965221
    13271.400100       0.964032
    13289.036500       0.962831
    13306.719900       0.961620
    13324.450400       0.960400
    13342.228200       0.959169
    13360.053400       0.957930
    13377.926400       0.956682
    13395.847300       0.955426
    13413.816200       0.954163
    13431.833400       0.952892
    13449.899100       0.951615
    13468.013500       0.950332
    13486.176700       0.949043
    13504.388900       0.947749
    13522.650400       0.946450
    13540.961400       0.945148
    13559.322000       0.943841
    13577.732500       0.942531
    13596.193100       0.941218
    13614.703900       0.939903
    13633.265200       0.938585
    13651.877100       0.937267
    13670.540000       0.935947
    13689.253900       0.934627
    13708.019200       0.933306
    13726.836000       0.931986
    13745.704500       0.930666
    13764.624900       0.929348
    13783.597500       0.928031
    13802.622500       0.926717
    13821.700100       0.925404
    13840.830400       0.924095
    13860.013900       0.922789
    13879.250500       0.921486
    13898.540700       0.920187
    13917.884500       0.918893
    13937.282200       0.917604
    13956.734100       0.916320
    13976.240400       0.915042
    13995.801300       0.913770
    14015.417000       0.912504
    14035.087700       0.911245
    14054.813800       0.909993
    14074.595400       0.908748
    14094.432700       0.907512
    14114.326000       0.906283
    14134.275600       0.905063
    14154.281700       0.903852
    14174.344400       0.902650
    14194.464200       0.901458
    14214.641100       0.900276
    14234.875400       0.899103
    14255.167500       0.897942
    14275.517500       0.896791
    14295.925700       0.895651
    14316.392300       0.894522
    14336.917600       0.893406
    14357.501800       0.892301
    14378.145200       0.891208
    14398.848100       0.890128
    14419.610700       0.889060
    14440.433200       0.888006
    14461.316000       0.886965
    14482.259200       0.885937
    14503.263200       0.884923
    14524.328200       0.883923
    14545.454500       0.882937
    14566.642400       0.881965
    14587.892000       0.881008
    14609.203800       0.880066
    14630.577900       0.879139
    14652.014700       0.878227
    14673.514300       0.877330
    14695.077100       0.876448
    14716.703500       0.875583
    14738.393500       0.874733
    14760.147600       0.873899
    14781.966000       0.873081
    14803.849000       0.872279
    14825.796900       0.871493
    14847.809900       0.870724
    14869.888500       0.869971
    14892.032800       0.869235
    14914.243100       0.868516
    14936.519800       0.867813
    14958.863100       0.867127
    14981.273400       0.866458
    15003.750900       0.865806
    15026.296000       0.865171
    15048.909000       0.864553
    15071.590100       0.863952
    15094.339600       0.863368
    15117.158000       0.862801
    15140.045400       0.862252
    15163.002300       0.861719
    15186.028900       0.861203
    15209.125500       0.860704
    15232.292500       0.860223
    15255.530100       0.859758
    15278.838800       0.859310
    15302.218800       0.858879
    15325.670500       0.858464
    15349.194200       0.858066
    15372.790200       0.857685
    15396.458800       0.857320
    15420.200500       0.856972
    15444.015400       0.856640
    15467.904100       0.856324
    15491.866800       0.856023
    15515.903800       0.855739
    15540.015500       0.855470
    15564.202300       0.855217
    15588.464500       0.854979
    15612.802500       0.854756
    15637.216600       0.854548
    15661.707100       0.854355
    15686.274500       0.854177
    15710.919100       0.854012
    15735.641200       0.853862
    15760.441300       0.853726
    15785.319700       0.853603
    15810.276700       0.853493
    15835.312700       0.853397
    15860.428200       0.853313
    15885.623500       0.853242
    15910.899000       0.853183
    15936.255000       0.853136
    15961.691900       0.853100
    15987.210200       0.853076
    16012.810200       0.853062
    16038.492400       0.853059
    16064.257000       0.853066
    16090.104600       0.853083
    16116.035500       0.853110
    16142.050000       0.853145
    16168.148700       0.853190
    16194.332000       0.853242
    16220.600200       0.853303
    16246.953700       0.853371
    16273.393000       0.853446
    16299.918500       0.853527
    16326.530600       0.853615
    16353.229800       0.853709
    16380.016400       0.853807
    16406.890900       0.853911
    16433.853700       0.854018
    16460.905300       0.854130
    16488.046200       0.854245
    16515.276600       0.854362
    16542.597200       0.854482
    16570.008300       0.854604
    16597.510400       0.854727
    16625.103900       0.854851
    16652.789300       0.854974
    16680.567100       0.855098
    16708.437800       0.855220
    16736.401700       0.855341
    16764.459300       0.855460
    16792.611300       0.855576
    16820.857900       0.855689
    16849.199700       0.855797
    16877.637100       0.855902
    16906.170800       0.856001
    16934.801000       0.856094
    16963.528400       0.856181
    16992.353400       0.856261
    17021.276600       0.856334
    17050.298400       0.856398
    17079.419300       0.856453
    17108.639900       0.856498
    17137.960600       0.856533
    17167.382000       0.856557
    17196.904600       0.856569
    17226.528900       0.856569
    17256.255400       0.856556
    17286.084700       0.856530
    17316.017300       0.856488
    17346.053800       0.856432
    17376.194600       0.856359
    17406.440400       0.856270
    17436.791600       0.856164
    17467.248900       0.856039
    17497.812800       0.855896
    17528.483800       0.855733
    17559.262500       0.855550
    17590.149500       0.855345
    17621.145400       0.855119
    17652.250700       0.854871
    17683.466000       0.854598
    17714.791900       0.854302
    17746.228900       0.853981
    17777.777800       0.853634
    17809.439000       0.853261
    17841.213200       0.852861
    17873.101000       0.852432
    17905.103000       0.851975
    17937.219700       0.851488
    17969.451900       0.850971
    18001.800200       0.850423
    18034.265100       0.849843
    18066.847300       0.849230
    18099.547500       0.848584
    18132.366300       0.847903
    18165.304300       0.847187
    18198.362100       0.846436
    18231.540600       0.845647
    18264.840200       0.844822
    18298.261700       0.843958
    18331.805700       0.843054
    18365.472900       0.842112
    18399.264000       0.841128
    18433.179700       0.840103
    18467.220700       0.839036
    18501.387600       0.837926
    18535.681200       0.836772
    18570.102100       0.835574
    18604.651200       0.834330
    18639.329000       0.833040
    18674.136300       0.831704
    18709.073900       0.830320
    18744.142500       0.828887
    18779.342700       0.827406
    18814.675400       0.825874
    18850.141400       0.824292
    18885.741300       0.822659
    18921.475900       0.820973
    18957.346000       0.819235
    18993.352300       0.817443
    19029.495700       0.815597
    19065.776900       0.813696
    19102.196800       0.811740
    19138.756000       0.809727
    19175.455400       0.807658
    19212.295900       0.805530
    19249.278200       0.803345
    19286.403100       0.801100
    19323.671500       0.798796
    19361.084200       0.796431
    19398.642100       0.794006
    19436.346000       0.791519
    19474.196700       0.788971
    19512.195100       0.786359
    19550.342100       0.783685
    19588.638600       0.780947
    19627.085400       0.778144
    19665.683400       0.775276
    19704.433500       0.772344
    19743.336600       0.769345
    19782.393700       0.766280
    19821.605600       0.763148
    19860.973200       0.759949
    19900.497500       0.756683
    19940.179500       0.753348
    19980.020000       0.749945
    20020.020000       0.746473
    20060.180500       0.742931
    20100.502500       0.739320
    20140.986900       0.735639
    20181.634700       0.731888
    20222.446900       0.728066
    20263.424500       0.724174
    20304.568500       0.720210
    20345.880000       0.716175
    20387.359800       0.712069
    20429.009200       0.707891
    20470.829100       0.703641
    20512.820500       0.699320
    20554.984600       0.694926
    20597.322300       0.690461
    20639.834900       0.685923
    20682.523300       0.681313
    20725.388600       0.676630
    20768.432000       0.671876
    20811.654500       0.667050
    20855.057400       0.662151
    20898.641600       0.657181
    20942.408400       0.652139
    20986.358900       0.647026
    21030.494200       0.641841
    21074.815600       0.636585
    21119.324200       0.631258
    21164.021200       0.625861
    21208.907700       0.620393
    21253.985100       0.614856
    21299.254500       0.609250
    21344.717200       0.603574
    21390.374300       0.597831
    21436.227200       0.592019
    21482.277100       0.586140
    21528.525300       0.580194
    21574.973000       0.574182
    21621.621600       0.568105
    21668.472400       0.561963
    21715.526600       0.555757
    21762.785600       0.549488
    21810.250800       0.543157
    21857.923500       0.536764
    21905.805000       0.530311
    21953.896800       0.523799
    22002.200200       0.517228
    22050.716600       0.510600
    22099.447500       0.503916
    22148.394200       0.497177
    22197.558300       0.490384
    22246.941000       0.483538
    22296.544000       0.476641
    22346.368700       0.469695
    22396.416600       0.462700
    22446.689100       0.455658
    22497.187900       0.448571
    22547.914300       0.441441
    22598.870100       0.434268
    22650.056600       0.427055
    22701.475600       0.419803
    22753.128600       0.412514
    22805.017100       0.405191
    22857.142900       0.397835
    22909.507400       0.390448
    22962.112500       0.383032
    23014.959700       0.375589
    23068.050700       0.368122
    23121.387300       0.360632
    23174.971000       0.353123
    23228.803700       0.345596
    23282.887100       0.338055
    23337.222900       0.330500
    23391.812900       0.322936
    23446.658900       0.315365
    23501.762600       0.307789
    23557.126000       0.300212
    23612.750900       0.292636
    23668.639100       0.285065
    23724.792400       0.277500
    23781.212800       0.269946
    23837.902300       0.262406
    23894.862600       0.254883
    23952.095800       0.247380
    24009.603800       0.239901
    24067.388700       0.232450
    24125.452400       0.225029
    24183.796900       0.217643
    24242.424200       0.210296
    24301.336600       0.202990
    24360.535900       0.195731
    24420.024400       0.188523
    24479.804200       0.181369
    24539.877300       0.174274
    24600.246000       0.167242
    24660.912500       0.160277
    24721.878900       0.153384
    24783.147500       0.146568
    24844.720500       0.139834
    24906.600200       0.133185
    24968.789000       0.126628
    25031.289100       0.120167
    25094.102900       0.113807
    25157.232700       0.107554
    25220.681000       0.101412
    25284.450100       0.095388
    25348.542500       0.089486
    25412.960600       0.083713
    25477.707000       0.078075
