  11  ,noaa_10_hirs_11.flt
Number of data points:
73
Wavenumber (cm-1)   Filter response
     1304.800000       0.000000
     1310.000000       0.004667
     1315.700000       0.010780
     1319.900000       0.012395
     1324.100000       0.015408
     1327.300000       0.019307
     1329.000000       0.029303
     1331.400000       0.042361
     1333.700000       0.060116
     1335.300000       0.084128
     1336.600000       0.110900
     1337.600000       0.137540
     1338.500000       0.159620
     1339.100000       0.190850
     1340.000000       0.233960
     1340.900000       0.276010
     1342.000000       0.328770
     1343.100000       0.395670
     1343.900000       0.443150
     1344.600000       0.486220
     1345.500000       0.542120
     1346.400000       0.585610
     1347.600000       0.643310
     1348.700000       0.693850
     1349.800000       0.740030
     1350.700000       0.782510
     1351.500000       0.809420
     1351.700000       0.833210
     1352.500000       0.864860
     1353.200000       0.896140
     1354.200000       0.924240
     1355.400000       0.948580
     1356.600000       0.966500
     1358.100000       0.980070
     1359.800000       0.993260
     1361.400000       1.000000
     1363.400000       0.999230
     1365.200000       0.996390
     1366.800000       0.984370
     1369.000000       0.957780
     1371.000000       0.931370
     1372.700000       0.899440
     1373.700000       0.868640
     1375.600000       0.828660
     1377.000000       0.789490
     1377.800000       0.742050
     1378.600000       0.689550
     1379.600000       0.646340
     1380.800000       0.600610
     1381.400000       0.554710
     1382.600000       0.511380
     1383.200000       0.470230
     1384.500000       0.406490
     1385.800000       0.345030
     1386.900000       0.300620
     1387.700000       0.272390
     1388.100000       0.251350
     1388.700000       0.222510
     1389.500000       0.193700
     1390.100000       0.162480
     1390.600000       0.142700
     1391.800000       0.120670
     1393.200000       0.097975
     1394.300000       0.086561
     1397.600000       0.060201
     1399.800000       0.040459
     1402.200000       0.025259
     1404.400000       0.012220
     1407.300000       0.010206
     1411.700000       0.008306
     1415.600000       0.004869
     1419.500000       0.003259
     1423.600000       0.000000
