           2  , Jan 12th 2012 http://fy3.satellite.cma.gov.cn/ArssEn/Download/FY3A_calibration_info_params.rar
Number of data points:
600
Wavenumber (cm-1)   Filter response
      651.296100       0.000232
      651.380900       0.000750
      651.465800       0.001420
      651.550700       0.002137
      651.635600       0.002891
      651.720500       0.003695
      651.805500       0.004496
      651.890500       0.005177
      651.975500       0.005838
      652.060500       0.006269
      652.145600       0.006599
      652.230700       0.006772
      652.315700       0.006660
      652.400800       0.006545
      652.486000       0.006101
      652.571100       0.005654
      652.656300       0.005136
      652.741500       0.004579
      652.826700       0.004038
      652.912000       0.003587
      652.997300       0.003134
      653.082500       0.002917
      653.167800       0.002707
      653.253200       0.002686
      653.338600       0.002780
      653.424000       0.002937
      653.509300       0.003257
      653.594800       0.003579
      653.680200       0.004107
      653.765700       0.004416
      653.851200       0.004604
      653.936700       0.004713
      654.022200       0.004752
      654.107800       0.004599
      654.193400       0.004447
      654.279000       0.004272
      654.364600       0.004096
      654.450300       0.004064
      654.535900       0.004138
      654.621600       0.004365
      654.707300       0.004967
      654.793100       0.005574
      654.878800       0.006555
      654.964700       0.007576
      655.050500       0.008585
      655.136300       0.009588
      655.222100       0.010462
      655.308000       0.010950
      655.393900       0.011364
      655.479900       0.011151
      655.565800       0.010882
      655.651700       0.010336
      655.737700       0.009603
      655.823700       0.008860
      655.909700       0.008095
      655.995800       0.007325
      656.081900       0.006977
      656.168000       0.006648
      656.254100       0.006559
      656.340300       0.006689
      656.426400       0.006843
      656.512600       0.007055
      656.598800       0.007268
      656.685100       0.007242
      656.771300       0.007213
      656.857600       0.006999
      656.943900       0.006693
      657.030200       0.006422
      657.116600       0.006174
      657.202900       0.005988
      657.289400       0.006238
      657.375700       0.006489
      657.462200       0.007071
      657.548600       0.007786
      657.635100       0.008534
      657.721600       0.009330
      657.808200       0.010090
      657.894800       0.010463
      657.981300       0.010757
      658.067900       0.010640
      658.154500       0.010386
      658.241100       0.009992
      658.327900       0.009442
      658.414600       0.008918
      658.501300       0.008545
      658.588000       0.008169
      658.674700       0.008175
      658.761500       0.008243
      658.848300       0.008437
      658.935200       0.008844
      659.022000       0.009270
      659.108900       0.009751
      659.195800       0.010235
      659.282700       0.010804
      659.369600       0.011381
      659.456600       0.012122
      659.543600       0.012953
      659.630600       0.013879
      659.717700       0.014888
      659.804700       0.016011
      659.891800       0.017032
      659.978900       0.018062
      660.066000       0.018632
      660.153100       0.019057
      660.240400       0.019153
      660.327500       0.018864
      660.414700       0.018496
      660.502000       0.017750
      660.589300       0.016873
      660.676600       0.016185
      660.763900       0.015500
      660.851200       0.015069
      660.938500       0.014818
      661.025900       0.014707
      661.113300       0.014933
      661.200700       0.015162
      661.288200       0.015690
      661.375700       0.016222
      661.463100       0.016759
      661.550700       0.017462
      661.638200       0.018304
      661.725800       0.019324
      661.813400       0.020438
      661.901000       0.022034
      661.988600       0.023643
      662.076300       0.025826
      662.163900       0.028112
      662.251600       0.030641
      662.339400       0.036429
      662.427100       0.038932
      662.514900       0.041323
      662.602700       0.043653
      662.690500       0.045385
      662.778400       0.047082
      662.866200       0.048137
      662.954200       0.048971
      663.042100       0.049435
      663.130000       0.049506
      663.218000       0.049473
      663.305900       0.049569
      663.393900       0.049664
      663.482000       0.049423
      663.570000       0.049260
      663.658100       0.049148
      663.746200       0.049032
      663.834300       0.049073
      663.922400       0.049368
      664.010600       0.049761
      664.098800       0.050250
      664.187100       0.051369
      664.275300       0.053262
      664.363500       0.055311
      664.451800       0.057730
      664.540100       0.060426
      664.628500       0.063215
      664.716900       0.066162
      664.805200       0.069136
      664.893600       0.071967
      664.982100       0.073918
      665.070500       0.076550
      665.158900       0.079153
      665.247500       0.081728
      665.336000       0.084283
      665.424600       0.086917
      665.513100       0.089711
      665.601700       0.092546
      665.690300       0.095757
      665.778900       0.099009
      665.867600       0.101214
      665.956300       0.104699
      666.045000       0.108155
      666.133700       0.111582
      666.222500       0.114964
      666.311300       0.118131
      666.400100       0.121336
      666.489000       0.124278
      666.577800       0.127253
      666.666700       0.130342
      666.755600       0.131904
      666.844500       0.135327
      666.933400       0.139064
      667.022400       0.143064
      667.111400       0.147762
      667.200400       0.152524
      667.289500       0.158580
      667.378500       0.164607
      667.467600       0.170930
      667.556800       0.177628
      667.645900       0.182714
      667.735000       0.190462
      667.824200       0.198201
      667.913500       0.205886
      668.002700       0.213584
      668.091900       0.221034
      668.181200       0.228507
      668.270500       0.235985
      668.359900       0.243477
      668.449200       0.250956
      668.538600       0.255354
      668.628000       0.262643
      668.717400       0.269689
      668.806900       0.276731
      668.896300       0.283484
      668.985800       0.290254
      669.075300       0.297301
      669.164900       0.304423
      669.254500       0.312227
      669.344100       0.320481
      669.433700       0.325348
      669.523300       0.334924
      669.613000       0.344634
      669.702600       0.355028
      669.792400       0.365440
      669.882100       0.375595
      669.971900       0.385740
      670.061600       0.395269
      670.151400       0.404527
      670.241300       0.413560
      670.331100       0.417258
      670.421000       0.426044
      670.510900       0.435194
      670.600900       0.444371
      670.690800       0.454847
      670.780800       0.465333
      670.870800       0.477085
      670.960800       0.489189
      671.050800       0.501908
      671.140900       0.515102
      671.231000       0.454165
      671.321200       0.472450
      671.411300       0.490944
      671.501500       0.509547
      671.591700       0.528352
      671.681900       0.547103
      671.772200       0.566016
      671.862400       0.584821
      671.952700       0.603659
      672.043000       0.622368
      672.133400       0.641383
      672.223700       0.647581
      672.314100       0.653300
      672.404500       0.658852
      672.494900       0.664311
      672.585400       0.669595
      672.675900       0.675145
      672.766400       0.680603
      672.856900       0.686399
      672.947500       0.692321
      673.038100       0.712194
      673.128700       0.718253
      673.219400       0.724030
      673.310000       0.729297
      673.400600       0.734370
      673.491400       0.738317
      673.582100       0.742102
      673.672900       0.745093
      673.763700       0.747775
      673.854400       0.750254
      673.945300       0.767448
      674.036100       0.769930
      674.127000       0.772606
      674.217900       0.775284
      674.308800       0.778427
      674.399800       0.781399
      674.490700       0.784391
      674.581700       0.787207
      674.672800       0.789431
      674.763900       0.791388
      674.854900       0.808165
      674.946000       0.809017
      675.037100       0.809412
      675.128200       0.811670
      675.219400       0.816366
      675.310700       0.820671
      675.401900       0.824932
      675.493100       0.828989
      675.584400       0.833005
      675.675700       0.836825
      675.767000       0.856747
      675.858300       0.860452
      675.949700       0.864042
      676.041100       0.867463
      676.132500       0.870690
      676.223900       0.873878
      676.315400       0.877011
      676.406900       0.880139
      676.498500       0.883600
      676.590000       0.887025
      676.681600       0.907920
      676.773100       0.912120
      676.864700       0.916722
      676.956400       0.921458
      677.048000       0.926358
      677.139800       0.931411
      677.231500       0.936317
      677.323200       0.940996
      677.415000       0.945500
      677.506800       0.949305
      677.598600       0.971012
      677.690400       0.973686
      677.782300       0.976303
      677.874200       0.978006
      677.966100       0.979463
      678.058000       0.980410
      678.150000       0.981051
      678.242000       0.981429
      678.334000       0.981500
      678.426100       0.981404
      678.518100       0.999281
      678.610200       0.998695
      678.702300       0.997139
      678.794400       0.995564
      678.886700       0.992600
      678.978800       0.990980
      679.071000       0.990277
      679.163300       0.989211
      679.255600       0.987235
      679.347800       0.984653
      679.440100       1.000000
      679.532500       0.995950
      679.624900       0.991462
      679.717200       0.985816
      679.809600       0.979996
      679.902100       0.972793
      679.994600       0.965574
      680.087000       0.957048
      680.179600       0.948425
      680.272100       0.938841
      680.364700       0.898796
      680.457300       0.894248
      680.549900       0.889047
      680.642500       0.882931
      680.735200       0.875745
      680.827900       0.867945
      680.920600       0.858924
      681.013400       0.849606
      681.106100       0.839372
      681.198900       0.828953
      681.291700       0.817990
      681.384600       0.803310
      681.477500       0.788674
      681.570300       0.774006
      681.663300       0.759023
      681.756200       0.743867
      681.849200       0.728005
      681.942200       0.711510
      682.035200       0.694326
      682.128200       0.676059
      682.221300       0.660606
      682.314400       0.641011
      682.407500       0.621391
      682.500700       0.602051
      682.593900       0.582660
      682.687100       0.564765
      682.780300       0.546945
      682.873500       0.529918
      682.966800       0.513137
      683.060100       0.497340
      683.153400       0.484512
      683.246800       0.469507
      683.340100       0.454848
      683.433600       0.440224
      683.527000       0.425652
      683.620400       0.411128
      683.713900       0.396729
      683.807400       0.382405
      683.901000       0.368739
      683.994500       0.355097
      684.088100       0.344454
      684.181700       0.332023
      684.275300       0.320739
      684.369000       0.309744
      684.462700       0.299520
      684.556400       0.289689
      684.650100       0.280136
      684.743900       0.270825
      684.837700       0.261583
      684.931500       0.252439
      685.025400       0.244629
      685.119200       0.235451
      685.213100       0.226307
      685.307000       0.217293
      685.400900       0.208298
      685.494900       0.200021
      685.588900       0.191755
      685.683000       0.184682
      685.777000       0.177781
      685.871000       0.172313
      685.965100       0.168228
      686.059300       0.164226
      686.153400       0.160829
      686.247600       0.157761
      686.341800       0.155015
      686.436000       0.152082
      686.530300       0.148841
      686.624600       0.145259
      686.718900       0.140686
      686.813200       0.135958
      686.907500       0.131022
      687.002000       0.125332
      687.096300       0.119375
      687.190700       0.113428
      687.285200       0.108097
      687.379700       0.102842
      687.474200       0.098436
      687.568800       0.094266
      687.663300       0.090710
      687.757900       0.087457
      687.852500       0.084995
      687.947100       0.082288
      688.041800       0.079643
      688.136500       0.077074
      688.231300       0.074513
      688.326000       0.071966
      688.420800       0.069454
      688.515600       0.067060
      688.610400       0.064727
      688.705200       0.062862
      688.800100       0.061352
      688.895000       0.060302
      688.989900       0.059254
      689.084900       0.058737
      689.179900       0.058284
      689.274800       0.057875
      689.369900       0.057478
      689.465000       0.056718
      689.560100       0.055792
      689.655200       0.054472
      689.750300       0.053184
      689.845500       0.051322
      689.940700       0.049189
      690.035900       0.046990
      690.131200       0.044680
      690.226400       0.042390
      690.321700       0.040141
      690.417000       0.037933
      690.512300       0.035900
      690.607700       0.033893
      690.703100       0.032237
      690.798600       0.030570
      690.894000       0.029377
      690.989500       0.028194
      691.085000       0.027702
      691.180500       0.027296
      691.276100       0.027565
      691.371700       0.028005
      691.467300       0.028815
      691.562900       0.029778
      691.658600       0.030702
      691.754300       0.031599
      691.850000       0.032167
      691.945700       0.032436
      692.041500       0.032347
      692.137300       0.031792
      692.233200       0.031089
      692.329000       0.030108
      692.424900       0.029145
      692.520800       0.028234
      692.616700       0.027392
      692.712600       0.026937
      692.808700       0.026522
      692.904700       0.026490
      693.000700       0.026459
      693.096700       0.026625
      693.192900       0.026791
      693.289000       0.026932
      693.385100       0.027071
      693.481300       0.027176
      693.577500       0.027251
      693.673700       0.027417
      693.770000       0.027603
      693.866200       0.027906
      693.962500       0.028260
      694.058800       0.028623
      694.155200       0.028991
      694.251600       0.029190
      694.348000       0.029242
      694.444500       0.029002
      694.540900       0.028368
      694.637400       0.027498
      694.733900       0.026191
      694.830400       0.024746
      694.927000       0.023006
      695.023700       0.021305
      695.120300       0.019725
      695.216900       0.018241
      695.313600       0.017200
      695.410300       0.016224
      695.507000       0.015760
      695.603800       0.015335
      695.700600       0.015225
      695.797400       0.015114
      695.894200       0.015155
      695.991100       0.015199
      696.088000       0.015324
      696.184900       0.015457
      696.281900       0.015607
      696.378800       0.015760
      696.475800       0.015752
      696.572900       0.015734
      696.669900       0.015488
      696.767000       0.015153
      696.864100       0.014659
      696.961200       0.014085
      697.058400       0.013582
      697.155600       0.013129
      697.252800       0.012857
      697.350000       0.012740
      697.447300       0.012746
      697.544600       0.012926
      697.642000       0.013120
      697.739300       0.013333
      697.836700       0.013462
      697.934100       0.013454
      698.031600       0.013345
      698.129000       0.013026
      698.226500       0.012645
      698.324000       0.012106
      698.421600       0.011528
      698.519200       0.010884
      698.616800       0.010228
      698.714400       0.009513
      698.812000       0.008791
      698.909700       0.008026
      699.007400       0.007265
      699.105200       0.006544
      699.202900       0.005827
      699.300700       0.005236
      699.398500       0.004302
      699.496400       0.003990
      699.594200       0.003673
      699.692100       0.003473
      699.790000       0.003277
      699.888000       0.002957
      699.986000       0.002616
      700.084000       0.002122
      700.182100       0.001593
      700.280200       0.001138
      700.378200       0.000692
      700.476300       0.000698
      700.574500       0.000834
      700.672600       0.001555
      700.770800       0.002480
      700.869100       0.003675
      700.967300       0.004982
      701.065600       0.006127
      701.163900       0.007192
      701.262300       0.007718
      701.360600       0.008015
      701.459000       0.007679
      701.557500       0.006977
      701.655900       0.006062
      701.754400       0.004988
      701.852900       0.004031
      701.951400       0.003175
      702.050000       0.002669
      702.148600       0.002505
      702.247200       0.002639
      702.345800       0.003132
      702.444500       0.003747
      702.543200       0.004543
      702.641900       0.005279
      702.740700       0.005932
      702.839500       0.006434
      702.938300       0.006711
      703.037100       0.006862
      703.136000       0.006806
      703.234900       0.006707
      703.333800       0.006600
      703.432800       0.006424
      703.531700       0.006252
      703.630700       0.006099
      703.729700       0.005988
      703.828800       0.005883
      703.927900       0.005795
      704.027000       0.005675
      704.126200       0.005473
      704.225300       0.005250
      704.324600       0.005018
      704.423800       0.004730
      704.523000       0.004447
      704.622300       0.004197
      704.721700       0.004059
      704.821000       0.003959
      704.920300       0.004002
      705.019700       0.004065
      705.119100       0.004210
      705.218600       0.004330
      705.318100       0.004389
      705.417600       0.004357
      705.517200       0.004118
      705.616700       0.003840
      705.716300       0.003365
      705.815900       0.002875
      705.915500       0.002310
      706.015300       0.001756
      706.115000       0.001246
      706.214700       0.000758
      706.314500       0.000397
      706.414200       0.000038
