2,    JPSS-1 VIIRS I2 0.865mu   SRF version 2.1 (V2.1) Nov 2016 J1_VIIRS_RSR_I2_BA_Fused_V2F.txt
Number of data points:
293
Wavenumber (cm-1)   Filter response
    10952.854500       0.000000
    11025.382600       0.000000
    11062.611400       0.000034
    11075.310800       0.000061
    11084.014400       0.000087
    11097.036400       0.000105
    11098.843200       0.000138
    11100.579100       0.000124
    11109.146000       0.000189
    11113.370800       0.000204
    11116.688000       0.000241
    11117.303400       0.000225
    11117.729900       0.000215
    11117.944900       0.000226
    11125.269900       0.000274
    11125.310700       0.000280
    11125.356500       0.000291
    11125.377600       0.000320
    11133.391500       0.000363
    11138.303400       0.000491
    11138.428700       0.000466
    11142.060000       0.000505
    11150.088100       0.000705
    11150.693600       0.000771
    11150.877600       0.000751
    11151.266800       0.000778
    11159.192400       0.001079
    11159.604600       0.001066
    11160.163800       0.001188
    11163.665900       0.001281
    11166.550600       0.001432
    11168.335200       0.001531
    11172.497800       0.001995
    11175.730400       0.002149
    11176.075200       0.002168
    11180.729800       0.002773
    11184.462500       0.003219
    11185.677300       0.003563
    11192.434100       0.004897
    11192.808700       0.004872
    11198.057800       0.006391
    11200.172400       0.007048
    11201.225000       0.007430
    11201.739400       0.007658
    11208.323400       0.010817
    11209.319700       0.011456
    11209.983200       0.011833
    11210.503400       0.012238
    11210.551200       0.012309
    11217.087700       0.017500
    11218.069200       0.018735
    11218.747500       0.019269
    11223.004500       0.024200
    11231.144600       0.038133
    11235.578900       0.048806
    11235.754300       0.049351
    11244.064700       0.076776
    11248.182700       0.097143
    11250.537800       0.109266
    11251.927700       0.115901
    11252.188600       0.118503
    11259.014500       0.164870
    11259.664900       0.169923
    11260.658900       0.177933
    11260.954400       0.179979
    11260.967100       0.180266
    11267.420300       0.238719
    11268.790300       0.250423
    11269.045500       0.253600
    11273.729700       0.302229
    11277.795700       0.347296
    11285.464000       0.436194
    11285.661400       0.439306
    11286.164500       0.446709
    11292.762700       0.525456
    11294.229500       0.539134
    11302.243300       0.629441
    11303.011100       0.636395
    11303.214300       0.640402
    11310.112500       0.708733
    11311.010600       0.717061
    11318.206600       0.778550
    11319.773500       0.790487
    11327.360500       0.845140
    11328.023900       0.850910
    11328.515400       0.853108
    11335.576900       0.893514
    11336.477800       0.897763
    11336.801600       0.900517
    11343.481100       0.928937
    11344.716500       0.934261
    11345.255800       0.936340
    11352.240300       0.958434
    11353.507200       0.960953
    11353.654200       0.965140
    11361.712600       0.979559
    11362.288400       0.981808
    11369.699800       0.993189
    11378.495600       0.999531
    11378.899600       1.000000
    11386.094100       0.999433
    11386.940800       0.998087
    11394.248000       0.998373
    11395.247800       0.999273
    11395.728300       0.998224
    11402.292700       0.995223
    11411.062300       0.991233
    11412.127500       0.991291
    11419.501100       0.988851
    11420.210500       0.987949
    11421.237000       0.988208
    11427.859600       0.987122
    11428.273600       0.988317
    11429.361700       0.987575
    11431.866400       0.987015
    11436.669900       0.987636
    11437.771300       0.990372
    11438.154600       0.988702
    11444.648900       0.990273
    11445.834400       0.990318
    11446.556300       0.991007
    11453.157100       0.993125
    11453.428600       0.993670
    11454.642200       0.993955
    11461.605700       0.996674
    11462.949800       0.995017
    11465.634900       0.996856
    11470.019500       0.996016
    11478.450900       0.996044
    11479.908300       0.995580
    11486.704700       0.994971
    11487.253600       0.995191
    11488.298800       0.994644
    11495.284800       0.991634
    11495.488300       0.991932
    11496.435900       0.991771
    11498.907900       0.991212
    11503.712400       0.989891
    11504.262900       0.988037
    11505.237100       0.988928
    11512.491600       0.985418
    11513.453900       0.984367
    11521.654500       0.983868
    11524.033900       0.982913
    11529.986600       0.983616
    11530.840100       0.982976
    11537.255000       0.983586
    11545.825600       0.985134
    11546.061500       0.985450
    11554.239300       0.985593
    11554.667800       0.988214
    11555.180600       0.988344
    11558.768100       0.987332
    11562.709400       0.988477
    11571.232200       0.988638
    11579.408100       0.985581
    11580.037000       0.986900
    11584.021000       0.985772
    11588.190500       0.983292
    11588.832400       0.983465
    11592.021600       0.982759
    11596.494000       0.980190
    11596.983500       0.979485
    11600.948300       0.978365
    11604.849800       0.975111
    11606.475500       0.975145
    11613.402400       0.973232
    11613.627600       0.971005
    11614.106400       0.971630
    11622.216100       0.969903
    11625.823800       0.969047
    11631.001400       0.969434
    11633.779300       0.969506
    11638.641600       0.968548
    11639.793100       0.969456
    11647.440800       0.971616
    11648.254900       0.971014
    11656.266900       0.973028
    11659.282600       0.973893
    11664.013900       0.973367
    11664.533600       0.973762
    11668.004200       0.973691
    11674.092900       0.972714
    11680.863400       0.969089
    11681.246800       0.968837
    11681.929100       0.969130
    11685.102800       0.967412
    11689.308500       0.964603
    11697.597500       0.958263
    11698.150300       0.957684
    11706.427200       0.948790
    11706.483300       0.949442
    11714.287600       0.938779
    11714.938100       0.938248
    11715.262000       0.937740
    11723.121900       0.922675
    11731.597900       0.898670
    11732.299900       0.896545
    11739.817500       0.863035
    11740.418400       0.858934
    11743.327500       0.842294
    11748.016800       0.805125
    11748.639300       0.802175
    11749.234200       0.797324
    11756.263500       0.731273
    11757.174400       0.722530
    11764.696200       0.644747
    11765.319100       0.629012
    11765.889400       0.622650
    11768.910800       0.586060
    11773.567900       0.528249
    11774.176500       0.520811
    11777.363100       0.479574
    11781.778400       0.426354
    11782.423900       0.418609
    11786.990200       0.366002
    11790.210200       0.329561
    11790.614700       0.325466
    11794.443100       0.277284
    11799.467100       0.240245
    11799.826300       0.236964
    11807.295500       0.178315
    11807.874100       0.174280
    11810.862700       0.154580
    11815.840700       0.125582
    11816.150600       0.123806
    11816.308400       0.123230
    11819.614200       0.107316
    11820.129800       0.098285
    11824.322700       0.086335
    11825.005100       0.083675
    11828.736900       0.070701
    11840.396700       0.040032
    11841.700600       0.037730
    11845.319600       0.031531
    11849.218700       0.025596
    11854.195300       0.019623
    11858.082000       0.016029
    11866.681200       0.010029
    11867.041700       0.009785
    11867.265600       0.009697
    11874.544000       0.006265
    11875.175800       0.006131
    11878.250800       0.005253
    11879.516500       0.004935
    11882.670000       0.003992
    11892.219900       0.002517
    11900.048600       0.001617
    11900.772300       0.001513
    11904.863900       0.001309
    11911.789900       0.000901
    11916.613300       0.000651
    11917.473900       0.000651
    11917.740900       0.000706
    11920.639100       0.000602
    11925.712800       0.000416
    11925.977400       0.000440
    11930.231500       0.000402
    11944.795500       0.000238
    11951.907900       0.000192
    11956.439300       0.000179
    11959.211900       0.000192
    11966.645100       0.000119
    11967.829500       0.000134
    11968.007100       0.000123
    11972.169500       0.000124
    11976.448100       0.000128
    11984.649600       0.000109
    11997.341400       0.000084
    12010.130800       0.000084
    12022.709000       0.000080
    12035.617700       0.000073
    12048.478700       0.000058
    12061.058900       0.000059
    12077.226100       0.000075
    12089.926300       0.000081
    12102.845100       0.000050
    12115.374700       0.000065
    12128.349500       0.000040
    12140.855300       0.000054
    12157.034900       0.000043
    12166.073200       0.000049
    12182.649600       0.000051
    12195.455100       0.000048
    12207.922400       0.000047
    12220.788600       0.000060
    12233.461900       0.000060
    12246.094100       0.000051
    12262.325500       0.000056
    12275.009800       0.000072
    12287.931800       0.000060
    12300.552700       0.000054
    12313.484600       0.000063
