4,   Trishna TIR channel 4 SRF from file ISRF_TIR_V3_121120.txt sent by Emilie Delogu (CNES) April 2021
Number of data points:
3631
Wavenumber (cm-1)   Filter response
      732.010800       0.000186
      732.064400       0.000187
      732.118000       0.000187
      732.171600       0.000187
      732.225200       0.000188
      732.278900       0.000188
      732.332500       0.000188
      732.386100       0.000189
      732.439800       0.000189
      732.493400       0.000189
      732.547100       0.000190
      732.600700       0.000190
      732.654400       0.000190
      732.708100       0.000191
      732.761800       0.000191
      732.815500       0.000191
      732.869200       0.000192
      732.922900       0.000192
      732.976600       0.000192
      733.030300       0.000193
      733.084100       0.000193
      733.137800       0.000193
      733.191600       0.000194
      733.245300       0.000194
      733.299100       0.000194
      733.352900       0.000195
      733.406700       0.000195
      733.460500       0.000195
      733.514300       0.000196
      733.568100       0.000196
      733.621900       0.000196
      733.675700       0.000197
      733.729500       0.000197
      733.783400       0.000197
      733.837200       0.000198
      733.891100       0.000198
      733.945000       0.000198
      733.998800       0.000199
      734.052700       0.000199
      734.106600       0.000200
      734.160500       0.000200
      734.214400       0.000200
      734.268300       0.000201
      734.322200       0.000201
      734.376100       0.000201
      734.430100       0.000202
      734.484000       0.000202
      734.538000       0.000202
      734.591900       0.000203
      734.645900       0.000203
      734.699900       0.000204
      734.753900       0.000204
      734.807800       0.000204
      734.861800       0.000205
      734.915900       0.000205
      734.969900       0.000205
      735.023900       0.000206
      735.077900       0.000206
      735.132000       0.000206
      735.186000       0.000207
      735.240100       0.000207
      735.294100       0.000208
      735.348200       0.000208
      735.402300       0.000208
      735.456400       0.000209
      735.510400       0.000209
      735.564500       0.000210
      735.618700       0.000210
      735.672800       0.000210
      735.726900       0.000211
      735.781000       0.000211
      735.835200       0.000212
      735.889300       0.000212
      735.943500       0.000212
      735.997600       0.000213
      736.051800       0.000213
      736.106000       0.000214
      736.160200       0.000214
      736.214400       0.000214
      736.268600       0.000215
      736.322800       0.000215
      736.377000       0.000216
      736.431300       0.000216
      736.485500       0.000216
      736.539700       0.000217
      736.594000       0.000217
      736.648300       0.000218
      736.702500       0.000218
      736.756800       0.000218
      736.811100       0.000219
      736.865400       0.000219
      736.919700       0.000220
      736.974000       0.000220
      737.028300       0.000221
      737.082600       0.000221
      737.137000       0.000221
      737.191300       0.000222
      737.245700       0.000222
      737.300000       0.000223
      737.354400       0.000223
      737.408700       0.000224
      737.463100       0.000224
      737.517500       0.000224
      737.571900       0.000225
      737.626300       0.000225
      737.680700       0.000226
      737.735200       0.000226
      737.789600       0.000227
      737.844000       0.000227
      737.898500       0.000227
      737.952900       0.000228
      738.007400       0.000228
      738.061800       0.000229
      738.116300       0.000229
      738.170800       0.000230
      738.225300       0.000230
      738.279800       0.000231
      738.334300       0.000231
      738.388800       0.000232
      738.443400       0.000232
      738.497900       0.000232
      738.552400       0.000233
      738.607000       0.000233
      738.661500       0.000234
      738.716100       0.000234
      738.770700       0.000235
      738.825300       0.000235
      738.879900       0.000236
      738.934500       0.000236
      738.989100       0.000237
      739.043700       0.000237
      739.098300       0.000238
      739.152900       0.000238
      739.207600       0.000239
      739.262200       0.000239
      739.316900       0.000240
      739.371500       0.000240
      739.426200       0.000241
      739.480900       0.000241
      739.535600       0.000242
      739.590300       0.000242
      739.645000       0.000243
      739.699700       0.000243
      739.754400       0.000243
      739.809100       0.000244
      739.863900       0.000244
      739.918600       0.000245
      739.973400       0.000245
      740.028100       0.000246
      740.082900       0.000246
      740.137700       0.000247
      740.192500       0.000247
      740.247200       0.000248
      740.302000       0.000249
      740.356900       0.000249
      740.411700       0.000250
      740.466500       0.000250
      740.521300       0.000251
      740.576200       0.000251
      740.631000       0.000252
      740.685900       0.000252
      740.740700       0.000253
      740.795600       0.000253
      740.850500       0.000254
      740.905400       0.000254
      740.960300       0.000255
      741.015200       0.000255
      741.070100       0.000256
      741.125000       0.000256
      741.180000       0.000257
      741.234900       0.000257
      741.289800       0.000258
      741.344800       0.000259
      741.399800       0.000259
      741.454700       0.000260
      741.509700       0.000260
      741.564700       0.000261
      741.619700       0.000261
      741.674700       0.000262
      741.729700       0.000262
      741.784700       0.000263
      741.839800       0.000264
      741.894800       0.000264
      741.949800       0.000265
      742.004900       0.000265
      742.060000       0.000266
      742.115000       0.000266
      742.170100       0.000267
      742.225200       0.000268
      742.280300       0.000268
      742.335400       0.000269
      742.390500       0.000269
      742.445600       0.000270
      742.500700       0.000271
      742.555900       0.000271
      742.611000       0.000272
      742.666200       0.000272
      742.721300       0.000273
      742.776500       0.000273
      742.831700       0.000274
      742.886900       0.000275
      742.942100       0.000275
      742.997300       0.000276
      743.052500       0.000276
      743.107700       0.000277
      743.162900       0.000278
      743.218100       0.000278
      743.273400       0.000279
      743.328600       0.000279
      743.383900       0.000280
      743.439100       0.000281
      743.494400       0.000281
      743.549700       0.000282
      743.605000       0.000283
      743.660300       0.000283
      743.715600       0.000284
      743.770900       0.000284
      743.826200       0.000285
      743.881600       0.000286
      743.936900       0.000286
      743.992300       0.000287
      744.047600       0.000288
      744.103000       0.000288
      744.158400       0.000289
      744.213700       0.000290
      744.269100       0.000290
      744.324500       0.000291
      744.379900       0.000292
      744.435300       0.000292
      744.490800       0.000293
      744.546200       0.000294
      744.601600       0.000294
      744.657100       0.000295
      744.712500       0.000296
      744.768000       0.000296
      744.823500       0.000297
      744.879000       0.000298
      744.934400       0.000298
      744.989900       0.000299
      745.045400       0.000300
      745.101000       0.000300
      745.156500       0.000301
      745.212000       0.000302
      745.267600       0.000303
      745.323100       0.000303
      745.378700       0.000304
      745.434200       0.000305
      745.489800       0.000305
      745.545400       0.000306
      745.601000       0.000307
      745.656600       0.000307
      745.712200       0.000308
      745.767800       0.000309
      745.823400       0.000310
      745.879000       0.000310
      745.934700       0.000311
      745.990300       0.000312
      746.046000       0.000313
      746.101600       0.000313
      746.157300       0.000314
      746.213000       0.000315
      746.268700       0.000315
      746.324400       0.000316
      746.380100       0.000317
      746.435800       0.000318
      746.491500       0.000318
      746.547200       0.000319
      746.603000       0.000320
      746.658700       0.000321
      746.714500       0.000322
      746.770200       0.000322
      746.826000       0.000323
      746.881800       0.000324
      746.937600       0.000325
      746.993400       0.000325
      747.049200       0.000326
      747.105000       0.000327
      747.160800       0.000328
      747.216600       0.000329
      747.272500       0.000329
      747.328300       0.000330
      747.384200       0.000331
      747.440000       0.000332
      747.495900       0.000333
      747.551800       0.000333
      747.607700       0.000334
      747.663600       0.000335
      747.719500       0.000336
      747.775400       0.000337
      747.831300       0.000337
      747.887200       0.000338
      747.943200       0.000339
      747.999100       0.000340
      748.055100       0.000341
      748.111000       0.000342
      748.167000       0.000342
      748.223000       0.000343
      748.279000       0.000344
      748.335000       0.000345
      748.391000       0.000346
      748.447000       0.000347
      748.503000       0.000348
      748.559000       0.000348
      748.615100       0.000349
      748.671100       0.000350
      748.727200       0.000351
      748.783200       0.000352
      748.839300       0.000353
      748.895400       0.000354
      748.951500       0.000354
      749.007600       0.000355
      749.063700       0.000356
      749.119800       0.000357
      749.175900       0.000358
      749.232000       0.000359
      749.288200       0.000360
      749.344300       0.000361
      749.400500       0.000362
      749.456600       0.000363
      749.512800       0.000363
      749.569000       0.000364
      749.625200       0.000365
      749.681400       0.000366
      749.737600       0.000367
      749.793800       0.000368
      749.850000       0.000369
      749.906300       0.000370
      749.962500       0.000371
      750.018800       0.000372
      750.075000       0.000373
      750.131300       0.000374
      750.187500       0.000375
      750.243800       0.000376
      750.300100       0.000377
      750.356400       0.000378
      750.412700       0.000379
      750.469000       0.000380
      750.525400       0.000381
      750.581700       0.000382
      750.638000       0.000383
      750.694400       0.000384
      750.750800       0.000385
      750.807100       0.000386
      750.863500       0.000387
      750.919900       0.000388
      750.976300       0.000389
      751.032700       0.000390
      751.089100       0.000391
      751.145500       0.000392
      751.201900       0.000393
      751.258400       0.000394
      751.314800       0.000395
      751.371300       0.000396
      751.427700       0.000397
      751.484200       0.000398
      751.540700       0.000399
      751.597100       0.000400
      751.653600       0.000401
      751.710100       0.000402
      751.766700       0.000403
      751.823200       0.000404
      751.879700       0.000405
      751.936200       0.000406
      751.992800       0.000407
      752.049300       0.000408
      752.105900       0.000410
      752.162500       0.000411
      752.219000       0.000412
      752.275600       0.000413
      752.332200       0.000414
      752.388800       0.000415
      752.445400       0.000416
      752.502100       0.000417
      752.558700       0.000418
      752.615300       0.000420
      752.672000       0.000421
      752.728600       0.000422
      752.785300       0.000423
      752.842000       0.000424
      752.898700       0.000425
      752.955300       0.000426
      753.012000       0.000428
      753.068800       0.000429
      753.125500       0.000430
      753.182200       0.000431
      753.238900       0.000432
      753.295700       0.000433
      753.352400       0.000435
      753.409200       0.000436
      753.465900       0.000437
      753.522700       0.000438
      753.579500       0.000439
      753.636300       0.000441
      753.693100       0.000442
      753.749900       0.000443
      753.806700       0.000444
      753.863600       0.000445
      753.920400       0.000447
      753.977200       0.000448
      754.034100       0.000449
      754.090900       0.000450
      754.147800       0.000452
      754.204700       0.000453
      754.261600       0.000454
      754.318500       0.000455
      754.375400       0.000457
      754.432300       0.000458
      754.489200       0.000459
      754.546100       0.000460
      754.603100       0.000462
      754.660000       0.000463
      754.717000       0.000464
      754.773900       0.000466
      754.830900       0.000467
      754.887900       0.000468
      754.944900       0.000470
      755.001900       0.000471
      755.058900       0.000472
      755.115900       0.000474
      755.172900       0.000475
      755.230000       0.000476
      755.287000       0.000478
      755.344100       0.000479
      755.401100       0.000480
      755.458200       0.000482
      755.515300       0.000483
      755.572300       0.000485
      755.629400       0.000486
      755.686500       0.000487
      755.743700       0.000489
      755.800800       0.000490
      755.857900       0.000492
      755.915000       0.000493
      755.972200       0.000494
      756.029300       0.000496
      756.086500       0.000497
      756.143700       0.000499
      756.200800       0.000500
      756.258000       0.000502
      756.315200       0.000503
      756.372400       0.000504
      756.429700       0.000506
      756.486900       0.000507
      756.544100       0.000509
      756.601300       0.000510
      756.658600       0.000512
      756.715900       0.000513
      756.773100       0.000515
      756.830400       0.000516
      756.887700       0.000518
      756.945000       0.000519
      757.002300       0.000521
      757.059600       0.000522
      757.116900       0.000524
      757.174200       0.000525
      757.231600       0.000527
      757.288900       0.000528
      757.346300       0.000530
      757.403600       0.000531
      757.461000       0.000533
      757.518400       0.000535
      757.575800       0.000536
      757.633200       0.000538
      757.690600       0.000539
      757.748000       0.000541
      757.805400       0.000543
      757.862800       0.000544
      757.920300       0.000546
      757.977700       0.000547
      758.035200       0.000549
      758.092600       0.000551
      758.150100       0.000552
      758.207600       0.000554
      758.265100       0.000556
      758.322600       0.000557
      758.380100       0.000559
      758.437600       0.000561
      758.495100       0.000562
      758.552700       0.000564
      758.610200       0.000566
      758.667800       0.000568
      758.725300       0.000569
      758.782900       0.000571
      758.840500       0.000573
      758.898100       0.000574
      758.955700       0.000576
      759.013300       0.000578
      759.070900       0.000580
      759.128500       0.000581
      759.186200       0.000583
      759.243800       0.000585
      759.301400       0.000587
      759.359100       0.000589
      759.416800       0.000590
      759.474400       0.000592
      759.532100       0.000594
      759.589800       0.000596
      759.647500       0.000598
      759.705200       0.000599
      759.763000       0.000601
      759.820700       0.000603
      759.878400       0.000605
      759.936200       0.000607
      759.993900       0.000609
      760.051700       0.000611
      760.109500       0.000612
      760.167200       0.000614
      760.225000       0.000616
      760.282800       0.000618
      760.340600       0.000620
      760.398400       0.000622
      760.456300       0.000624
      760.514100       0.000626
      760.572000       0.000628
      760.629800       0.000630
      760.687700       0.000632
      760.745500       0.000634
      760.803400       0.000636
      760.861300       0.000638
      760.919200       0.000640
      760.977100       0.000642
      761.035000       0.000644
      761.092900       0.000646
      761.150900       0.000648
      761.208800       0.000650
      761.266700       0.000652
      761.324700       0.000654
      761.382700       0.000656
      761.440600       0.000658
      761.498600       0.000660
      761.556600       0.000662
      761.614600       0.000664
      761.672600       0.000667
      761.730700       0.000669
      761.788700       0.000671
      761.846700       0.000673
      761.904800       0.000675
      761.962800       0.000677
      762.020900       0.000679
      762.079000       0.000682
      762.137000       0.000684
      762.195100       0.000686
      762.253200       0.000688
      762.311300       0.000690
      762.369400       0.000693
      762.427600       0.000695
      762.485700       0.000697
      762.543800       0.000699
      762.602000       0.000702
      762.660200       0.000704
      762.718300       0.000706
      762.776500       0.000708
      762.834700       0.000711
      762.892900       0.000713
      762.951100       0.000715
      763.009300       0.000718
      763.067500       0.000720
      763.125800       0.000722
      763.184000       0.000725
      763.242300       0.000727
      763.300500       0.000729
      763.358800       0.000732
      763.417100       0.000734
      763.475300       0.000736
      763.533600       0.000739
      763.591900       0.000741
      763.650200       0.000744
      763.708600       0.000746
      763.766900       0.000749
      763.825200       0.000751
      763.883600       0.000754
      763.941900       0.000756
      764.000300       0.000759
      764.058700       0.000761
      764.117100       0.000764
      764.175500       0.000766
      764.233900       0.000769
      764.292300       0.000772
      764.350700       0.000774
      764.409100       0.000777
      764.467500       0.000779
      764.526000       0.000782
      764.584400       0.000785
      764.642900       0.000787
      764.701400       0.000790
      764.759900       0.000792
      764.818400       0.000795
      764.876900       0.000798
      764.935400       0.000801
      764.993900       0.000803
      765.052400       0.000806
      765.110900       0.000809
      765.169500       0.000811
      765.228000       0.000814
      765.286600       0.000817
      765.345200       0.000820
      765.403800       0.000822
      765.462300       0.000825
      765.520900       0.000828
      765.579500       0.000831
      765.638200       0.000834
      765.696800       0.000836
      765.755400       0.000839
      765.814100       0.000842
      765.872700       0.000845
      765.931400       0.000848
      765.990000       0.000851
      766.048700       0.000854
      766.107400       0.000857
      766.166100       0.000859
      766.224800       0.000862
      766.283500       0.000865
      766.342200       0.000868
      766.401000       0.000871
      766.459700       0.000874
      766.518500       0.000878
      766.577200       0.000881
      766.636000       0.000884
      766.694800       0.000887
      766.753600       0.000890
      766.812400       0.000893
      766.871200       0.000896
      766.930000       0.000899
      766.988800       0.000902
      767.047600       0.000906
      767.106500       0.000909
      767.165300       0.000912
      767.224200       0.000915
      767.283100       0.000918
      767.341900       0.000922
      767.400800       0.000925
      767.459700       0.000928
      767.518600       0.000931
      767.577500       0.000935
      767.636400       0.000938
      767.695400       0.000941
      767.754300       0.000945
      767.813300       0.000948
      767.872200       0.000951
      767.931200       0.000955
      767.990200       0.000958
      768.049200       0.000962
      768.108100       0.000965
      768.167200       0.000968
      768.226200       0.000972
      768.285200       0.000975
      768.344200       0.000979
      768.403300       0.000982
      768.462300       0.000986
      768.521400       0.000989
      768.580400       0.000993
      768.639500       0.000996
      768.698600       0.001000
      768.757700       0.001004
      768.816800       0.001007
      768.875900       0.001011
      768.935000       0.001014
      768.994200       0.001018
      769.053300       0.001022
      769.112400       0.001025
      769.171600       0.001029
      769.230800       0.001033
      769.289900       0.001037
      769.349100       0.001040
      769.408300       0.001044
      769.467500       0.001048
      769.526700       0.001052
      769.586000       0.001056
      769.645200       0.001060
      769.704400       0.001064
      769.763700       0.001068
      769.822900       0.001071
      769.882200       0.001075
      769.941500       0.001079
      770.000800       0.001083
      770.060100       0.001087
      770.119400       0.001091
      770.178700       0.001095
      770.238000       0.001100
      770.297300       0.001104
      770.356700       0.001108
      770.416000       0.001112
      770.475400       0.001116
      770.534800       0.001120
      770.594100       0.001124
      770.653500       0.001129
      770.712900       0.001133
      770.772300       0.001137
      770.831700       0.001141
      770.891200       0.001145
      770.950600       0.001150
      771.010000       0.001154
      771.069500       0.001158
      771.128900       0.001163
      771.188400       0.001167
      771.247900       0.001172
      771.307400       0.001176
      771.366900       0.001180
      771.426400       0.001185
      771.485900       0.001189
      771.545400       0.001194
      771.604900       0.001198
      771.664500       0.001203
      771.724000       0.001207
      771.783600       0.001212
      771.843200       0.001216
      771.902700       0.001221
      771.962300       0.001226
      772.021900       0.001230
      772.081500       0.001235
      772.141100       0.001240
      772.200800       0.001244
      772.260400       0.001249
      772.320000       0.001254
      772.379700       0.001259
      772.439400       0.001264
      772.499000       0.001269
      772.558700       0.001274
      772.618400       0.001279
      772.678100       0.001284
      772.737800       0.001289
      772.797500       0.001294
      772.857300       0.001299
      772.917000       0.001304
      772.976700       0.001309
      773.036500       0.001314
      773.096300       0.001319
      773.156000       0.001324
      773.215800       0.001329
      773.275600       0.001335
      773.335400       0.001340
      773.395200       0.001345
      773.455000       0.001350
      773.514900       0.001356
      773.574700       0.001361
      773.634500       0.001367
      773.694400       0.001372
      773.754300       0.001377
      773.814100       0.001383
      773.874000       0.001388
      773.933900       0.001394
      773.993800       0.001399
      774.053700       0.001405
      774.113600       0.001410
      774.173600       0.001416
      774.233500       0.001422
      774.293500       0.001427
      774.353400       0.001433
      774.413400       0.001439
      774.473400       0.001444
      774.533300       0.001450
      774.593300       0.001456
      774.653300       0.001462
      774.713400       0.001468
      774.773400       0.001473
      774.833400       0.001479
      774.893500       0.001485
      774.953500       0.001491
      775.013600       0.001497
      775.073600       0.001503
      775.133700       0.001509
      775.193800       0.001515
      775.253900       0.001522
      775.314000       0.001528
      775.374100       0.001534
      775.434200       0.001540
      775.494400       0.001547
      775.554500       0.001553
      775.614700       0.001559
      775.674800       0.001566
      775.735000       0.001572
      775.795200       0.001579
      775.855400       0.001585
      775.915600       0.001592
      775.975800       0.001598
      776.036000       0.001605
      776.096200       0.001612
      776.156500       0.001618
      776.216700       0.001625
      776.277000       0.001632
      776.337200       0.001639
      776.397500       0.001645
      776.457800       0.001652
      776.518100       0.001659
      776.578400       0.001666
      776.638700       0.001673
      776.699000       0.001680
      776.759400       0.001687
      776.819700       0.001694
      776.880000       0.001701
      776.940400       0.001708
      777.000800       0.001715
      777.061200       0.001723
      777.121500       0.001730
      777.181900       0.001737
      777.242300       0.001744
      777.302800       0.001752
      777.363200       0.001759
      777.423600       0.001766
      777.484100       0.001774
      777.544500       0.001781
      777.605000       0.001789
      777.665400       0.001797
      777.725900       0.001804
      777.786400       0.001812
      777.846900       0.001819
      777.907400       0.001827
      777.967900       0.001835
      778.028500       0.001843
      778.089000       0.001851
      778.149600       0.001859
      778.210100       0.001866
      778.270700       0.001875
      778.331300       0.001883
      778.391800       0.001891
      778.452400       0.001899
      778.513000       0.001907
      778.573700       0.001916
      778.634300       0.001924
      778.694900       0.001932
      778.755500       0.001941
      778.816200       0.001949
      778.876900       0.001958
      778.937500       0.001966
      778.998200       0.001975
      779.058900       0.001983
      779.119600       0.001992
      779.180300       0.002001
      779.241000       0.002010
      779.301700       0.002018
      779.362500       0.002027
      779.423200       0.002036
      779.484000       0.002045
      779.544700       0.002054
      779.605500       0.002063
      779.666300       0.002072
      779.727100       0.002082
      779.787900       0.002091
      779.848700       0.002100
      779.909500       0.002109
      779.970400       0.002119
      780.031200       0.002128
      780.092100       0.002138
      780.152900       0.002147
      780.213800       0.002157
      780.274700       0.002166
      780.335500       0.002176
      780.396400       0.002186
      780.457300       0.002195
      780.518300       0.002205
      780.579200       0.002215
      780.640100       0.002225
      780.701100       0.002235
      780.762000       0.002245
      780.823000       0.002255
      780.884000       0.002265
      780.944900       0.002276
      781.005900       0.002286
      781.066900       0.002296
      781.127900       0.002306
      781.189000       0.002317
      781.250000       0.002327
      781.311000       0.002338
      781.372100       0.002349
      781.433100       0.002360
      781.494200       0.002370
      781.555300       0.002381
      781.616400       0.002392
      781.677500       0.002403
      781.738600       0.002414
      781.799700       0.002425
      781.860800       0.002437
      781.922000       0.002448
      781.983100       0.002459
      782.044300       0.002471
      782.105400       0.002482
      782.166600       0.002494
      782.227800       0.002505
      782.289000       0.002517
      782.350200       0.002529
      782.411400       0.002540
      782.472600       0.002552
      782.533800       0.002564
      782.595100       0.002576
      782.656300       0.002588
      782.717600       0.002600
      782.778900       0.002612
      782.840100       0.002625
      782.901400       0.002637
      782.962700       0.002649
      783.024000       0.002662
      783.085400       0.002674
      783.146700       0.002687
      783.208000       0.002700
      783.269400       0.002712
      783.330700       0.002725
      783.392100       0.002738
      783.453500       0.002751
      783.514800       0.002764
      783.576200       0.002777
      783.637600       0.002790
      783.699100       0.002804
      783.760500       0.002817
      783.821900       0.002830
      783.883400       0.002844
      783.944800       0.002858
      784.006300       0.002871
      784.067700       0.002885
      784.129200       0.002899
      784.190700       0.002913
      784.252200       0.002927
      784.313700       0.002941
      784.375200       0.002955
      784.436800       0.002969
      784.498300       0.002984
      784.559900       0.002998
      784.621400       0.003013
      784.683000       0.003028
      784.744600       0.003042
      784.806200       0.003057
      784.867700       0.003072
      784.929400       0.003087
      784.991000       0.003102
      785.052600       0.003118
      785.114200       0.003133
      785.175900       0.003148
      785.237500       0.003164
      785.299200       0.003179
      785.360900       0.003195
      785.422600       0.003211
      785.484300       0.003227
      785.546000       0.003243
      785.607700       0.003259
      785.669400       0.003275
      785.731100       0.003291
      785.792900       0.003307
      785.854600       0.003324
      785.916400       0.003340
      785.978100       0.003357
      786.039900       0.003374
      786.101700       0.003390
      786.163500       0.003407
      786.225300       0.003424
      786.287200       0.003442
      786.349000       0.003459
      786.410800       0.003476
      786.472700       0.003494
      786.534500       0.003511
      786.596400       0.003529
      786.658300       0.003547
      786.720200       0.003564
      786.782100       0.003582
      786.844000       0.003601
      786.905900       0.003619
      786.967800       0.003637
      787.029700       0.003655
      787.091700       0.003674
      787.153700       0.003693
      787.215600       0.003711
      787.277600       0.003730
      787.339600       0.003749
      787.401600       0.003768
      787.463600       0.003788
      787.525600       0.003807
      787.587600       0.003827
      787.649700       0.003847
      787.711700       0.003866
      787.773800       0.003886
      787.835800       0.003906
      787.897900       0.003927
      787.960000       0.003947
      788.022100       0.003967
      788.084200       0.003988
      788.146300       0.004009
      788.208400       0.004030
      788.270500       0.004051
      788.332700       0.004072
      788.394800       0.004093
      788.457000       0.004114
      788.519200       0.004136
      788.581300       0.004157
      788.643500       0.004179
      788.705700       0.004201
      788.767900       0.004223
      788.830200       0.004245
      788.892400       0.004268
      788.954600       0.004290
      789.016900       0.004313
      789.079100       0.004335
      789.141400       0.004358
      789.203700       0.004381
      789.266000       0.004405
      789.328300       0.004428
      789.390600       0.004451
      789.452900       0.004475
      789.515200       0.004499
      789.577600       0.004523
      789.639900       0.004547
      789.702300       0.004571
      789.764700       0.004595
      789.827000       0.004620
      789.889400       0.004645
      789.951800       0.004669
      790.014200       0.004694
      790.076600       0.004720
      790.139100       0.004745
      790.201500       0.004770
      790.263900       0.004796
      790.326400       0.004822
      790.388900       0.004848
      790.451300       0.004874
      790.513800       0.004901
      790.576300       0.004927
      790.638800       0.004954
      790.701400       0.004981
      790.763900       0.005008
      790.826400       0.005035
      790.889000       0.005063
      790.951500       0.005090
      791.014100       0.005118
      791.076700       0.005146
      791.139200       0.005174
      791.201800       0.005203
      791.264400       0.005231
      791.327100       0.005260
      791.389700       0.005289
      791.452300       0.005318
      791.515000       0.005348
      791.577600       0.005377
      791.640300       0.005407
      791.703000       0.005437
      791.765600       0.005467
      791.828300       0.005497
      791.891000       0.005528
      791.953700       0.005558
      792.016500       0.005589
      792.079200       0.005621
      792.142000       0.005652
      792.204700       0.005683
      792.267500       0.005715
      792.330200       0.005747
      792.393000       0.005779
      792.455800       0.005812
      792.518600       0.005844
      792.581400       0.005877
      792.644300       0.005910
      792.707100       0.005944
      792.769900       0.005977
      792.832800       0.006011
      792.895700       0.006045
      792.958500       0.006079
      793.021400       0.006113
      793.084300       0.006148
      793.147200       0.006183
      793.210100       0.006218
      793.273000       0.006253
      793.336000       0.006289
      793.398900       0.006325
      793.461900       0.006361
      793.524800       0.006397
      793.587800       0.006434
      793.650800       0.006471
      793.713800       0.006508
      793.776800       0.006545
      793.839800       0.006583
      793.902800       0.006620
      793.965900       0.006659
      794.028900       0.006697
      794.092000       0.006735
      794.155000       0.006774
      794.218100       0.006814
      794.281200       0.006853
      794.344300       0.006893
      794.407400       0.006933
      794.470500       0.006973
      794.533600       0.007013
      794.596700       0.007054
      794.659900       0.007095
      794.723000       0.007137
      794.786200       0.007178
      794.849400       0.007220
      794.912600       0.007263
      794.975800       0.007305
      795.039000       0.007348
      795.102200       0.007391
      795.165400       0.007435
      795.228600       0.007478
      795.291900       0.007522
      795.355100       0.007567
      795.418400       0.007611
      795.481700       0.007656
      795.544900       0.007702
      795.608200       0.007747
      795.671500       0.007793
      795.734900       0.007840
      795.798200       0.007886
      795.861500       0.007933
      795.924900       0.007981
      795.988200       0.008028
      796.051600       0.008076
      796.115000       0.008124
      796.178300       0.008173
      796.241700       0.008222
      796.305100       0.008271
      796.368600       0.008321
      796.432000       0.008371
      796.495400       0.008422
      796.558900       0.008472
      796.622300       0.008523
      796.685800       0.008575
      796.749300       0.008627
      796.812700       0.008679
      796.876200       0.008732
      796.939800       0.008784
      797.003300       0.008838
      797.066800       0.008891
      797.130300       0.008945
      797.193900       0.009000
      797.257400       0.009055
      797.321000       0.009110
      797.384600       0.009166
      797.448200       0.009222
      797.511800       0.009278
      797.575400       0.009335
      797.639000       0.009392
      797.702600       0.009450
      797.766300       0.009508
      797.829900       0.009567
      797.893600       0.009626
      797.957200       0.009685
      798.020900       0.009745
      798.084600       0.009805
      798.148300       0.009866
      798.212000       0.009927
      798.275700       0.009989
      798.339500       0.010051
      798.403200       0.010114
      798.466900       0.010177
      798.530700       0.010240
      798.594500       0.010304
      798.658300       0.010369
      798.722000       0.010434
      798.785800       0.010499
      798.849700       0.010565
      798.913500       0.010631
      798.977300       0.010698
      799.041200       0.010766
      799.105000       0.010834
      799.168900       0.010902
      799.232700       0.010971
      799.296600       0.011041
      799.360500       0.011111
      799.424400       0.011181
      799.488300       0.011252
      799.552300       0.011324
      799.616200       0.011396
      799.680100       0.011469
      799.744100       0.011542
      799.808000       0.011616
      799.872000       0.011690
      799.936000       0.011765
      800.000000       0.011841
      800.064000       0.011916
      800.128000       0.011993
      800.192000       0.012069
      800.256100       0.012147
      800.320100       0.012225
      800.384200       0.012304
      800.448300       0.012383
      800.512300       0.012463
      800.576400       0.012543
      800.640500       0.012624
      800.704600       0.012706
      800.768700       0.012788
      800.832900       0.012871
      800.897000       0.012955
      800.961200       0.013039
      801.025300       0.013124
      801.089500       0.013210
      801.153700       0.013296
      801.217900       0.013383
      801.282100       0.013471
      801.346300       0.013559
      801.410500       0.013648
      801.474700       0.013738
      801.539000       0.013828
      801.603200       0.013919
      801.667500       0.014011
      801.731700       0.014104
      801.796000       0.014197
      801.860300       0.014291
      801.924600       0.014386
      801.988900       0.014482
      802.053300       0.014578
      802.117600       0.014675
      802.181900       0.014773
      802.246300       0.014871
      802.310700       0.014971
      802.375000       0.015071
      802.439400       0.015172
      802.503800       0.015274
      802.568200       0.015376
      802.632600       0.015480
      802.697100       0.015584
      802.761500       0.015689
      802.825900       0.015795
      802.890400       0.015902
      802.954900       0.016010
      803.019400       0.016118
      803.083800       0.016228
      803.148300       0.016338
      803.212900       0.016449
      803.277400       0.016561
      803.341900       0.016673
      803.406400       0.016787
      803.471000       0.016901
      803.535600       0.017016
      803.600100       0.017132
      803.664700       0.017249
      803.729300       0.017367
      803.793900       0.017486
      803.858500       0.017606
      803.923100       0.017727
      803.987800       0.017849
      804.052400       0.017972
      804.117100       0.018096
      804.181700       0.018221
      804.246400       0.018347
      804.311100       0.018474
      804.375800       0.018602
      804.440500       0.018731
      804.505200       0.018862
      804.570000       0.018993
      804.634700       0.019125
      804.699400       0.019259
      804.764200       0.019394
      804.829000       0.019529
      804.893800       0.019666
      804.958500       0.019804
      805.023300       0.019944
      805.088200       0.020084
      805.153000       0.020226
      805.217800       0.020368
      805.282700       0.020512
      805.347500       0.020657
      805.412400       0.020804
      805.477200       0.020952
      805.542100       0.021100
      805.607000       0.021251
      805.671900       0.021402
      805.736800       0.021555
      805.801800       0.021709
      805.866700       0.021864
      805.931700       0.022021
      805.996600       0.022179
      806.061600       0.022338
      806.126600       0.022499
      806.191600       0.022661
      806.256600       0.022825
      806.321600       0.022989
      806.386600       0.023156
      806.451600       0.023324
      806.516700       0.023492
      806.581700       0.023661
      806.646800       0.023832
      806.711800       0.024005
      806.776900       0.024179
      806.842000       0.024354
      806.907100       0.024531
      806.972200       0.024710
      807.037400       0.024890
      807.102500       0.025072
      807.167600       0.025255
      807.232800       0.025440
      807.298000       0.025626
      807.363200       0.025815
      807.428300       0.026004
      807.493500       0.026196
      807.558700       0.026389
      807.624000       0.026584
      807.689200       0.026780
      807.754400       0.026979
      807.819700       0.027179
      807.885000       0.027380
      807.950200       0.027584
      808.015500       0.027789
      808.080800       0.027997
      808.146100       0.028206
      808.211400       0.028416
      808.276800       0.028629
      808.342100       0.028844
      808.407400       0.029061
      808.472800       0.029279
      808.538200       0.029500
      808.603500       0.029722
      808.668900       0.029947
      808.734300       0.030173
      808.799700       0.030402
      808.865200       0.030632
      808.930600       0.030865
      808.996000       0.031100
      809.061500       0.031336
      809.127000       0.031575
      809.192400       0.031817
      809.257900       0.032060
      809.323400       0.032306
      809.388900       0.032553
      809.454400       0.032803
      809.520000       0.033056
      809.585500       0.033311
      809.651000       0.033568
      809.716600       0.033827
      809.782200       0.034087
      809.847700       0.034350
      809.913300       0.034615
      809.978900       0.034882
      810.044600       0.035152
      810.110200       0.035425
      810.175800       0.035700
      810.241500       0.035977
      810.307100       0.036257
      810.372800       0.036540
      810.438400       0.036825
      810.504100       0.037113
      810.569800       0.037404
      810.635500       0.037697
      810.701300       0.037993
      810.767000       0.038292
      810.832700       0.038593
      810.898500       0.038897
      810.964200       0.039205
      811.030000       0.039515
      811.095800       0.039828
      811.161600       0.040143
      811.227400       0.040462
      811.293200       0.040784
      811.359000       0.041109
      811.424900       0.041437
      811.490700       0.041768
      811.556600       0.042102
      811.622400       0.042439
      811.688300       0.042779
      811.754200       0.043123
      811.820100       0.043470
      811.886000       0.043820
      811.951900       0.044174
      812.017900       0.044531
      812.083800       0.044891
      812.149800       0.045255
      812.215700       0.045622
      812.281700       0.045992
      812.347700       0.046367
      812.413700       0.046744
      812.479700       0.047126
      812.545700       0.047511
      812.611700       0.047900
      812.677800       0.048292
      812.743800       0.048688
      812.809900       0.049088
      812.876000       0.049492
      812.942000       0.049900
      813.008100       0.050312
      813.074200       0.050727
      813.140300       0.051146
      813.206500       0.051569
      813.272600       0.051996
      813.338800       0.052427
      813.404900       0.052863
      813.471100       0.053303
      813.537300       0.053747
      813.603400       0.054195
      813.669700       0.054648
      813.735900       0.055105
      813.802100       0.055566
      813.868300       0.056032
      813.934600       0.056503
      814.000800       0.056978
      814.067100       0.057458
      814.133400       0.057943
      814.199600       0.058432
      814.265900       0.058926
      814.332200       0.059425
      814.398600       0.059929
      814.464900       0.060438
      814.531200       0.060952
      814.597600       0.061471
      814.664000       0.061996
      814.730300       0.062525
      814.796700       0.063059
      814.863100       0.063599
      814.929500       0.064145
      814.995900       0.064695
      815.062400       0.065251
      815.128800       0.065813
      815.195200       0.066380
      815.261700       0.066953
      815.328200       0.067532
      815.394700       0.068116
      815.461100       0.068706
      815.527600       0.069302
      815.594200       0.069904
      815.660700       0.070512
      815.727200       0.071126
      815.793800       0.071747
      815.860300       0.072373
      815.926900       0.073006
      815.993500       0.073645
      816.060100       0.074290
      816.126700       0.074942
      816.193300       0.075601
      816.259900       0.076266
      816.326500       0.076938
      816.393200       0.077613
      816.459800       0.078296
      816.526500       0.078985
      816.593200       0.079681
      816.659900       0.080384
      816.726600       0.081095
      816.793300       0.081812
      816.860000       0.082537
      816.926700       0.083269
      816.993500       0.084008
      817.060200       0.084755
      817.127000       0.085509
      817.193800       0.086271
      817.260500       0.087041
      817.327300       0.087818
      817.394100       0.088603
      817.461000       0.089397
      817.527800       0.090198
      817.594600       0.091007
      817.661500       0.091825
      817.728400       0.092650
      817.795200       0.093485
      817.862100       0.094327
      817.929000       0.095178
      817.995900       0.096038
      818.062800       0.096907
      818.129800       0.097784
      818.196700       0.098670
      818.263600       0.099565
      818.330600       0.100469
      818.397600       0.101383
      818.464600       0.102305
      818.531600       0.103237
      818.598600       0.104179
      818.665600       0.105130
      818.732600       0.106090
      818.799600       0.107061
      818.866700       0.108041
      818.933700       0.109031
      819.000800       0.110031
      819.067900       0.111041
      819.135000       0.112062
      819.202100       0.113093
      819.269200       0.114134
      819.336300       0.115186
      819.403500       0.116249
      819.470600       0.117322
      819.537800       0.118406
      819.605000       0.119501
      819.672100       0.120607
      819.739300       0.121715
      819.806500       0.122834
      819.873700       0.123964
      819.941000       0.125105
      820.008200       0.126258
      820.075400       0.127423
      820.142700       0.128599
      820.210000       0.129786
      820.277300       0.130986
      820.344500       0.132198
      820.411800       0.133421
      820.479200       0.134657
      820.546500       0.135905
      820.613800       0.137166
      820.681200       0.138439
      820.748500       0.139724
      820.815900       0.141023
      820.883300       0.142334
      820.950700       0.143658
      821.018100       0.144995
      821.085500       0.146346
      821.152900       0.147710
      821.220300       0.149087
      821.287800       0.150478
      821.355200       0.151882
      821.422700       0.153300
      821.490200       0.154732
      821.557700       0.156178
      821.625200       0.157639
      821.692700       0.159113
      821.760200       0.160602
      821.827700       0.162105
      821.895300       0.163623
      821.962800       0.165156
      822.030400       0.166703
      822.098000       0.168265
      822.165600       0.169843
      822.233200       0.171435
      822.300800       0.173043
      822.368400       0.174667
      822.436100       0.176305
      822.503700       0.177960
      822.571400       0.179630
      822.639000       0.181316
      822.706700       0.183018
      822.774400       0.184736
      822.842100       0.186471
      822.909800       0.188221
      822.977500       0.189988
      823.045300       0.191772
      823.113000       0.193566
      823.180800       0.195377
      823.248500       0.197205
      823.316300       0.199050
      823.384100       0.200911
      823.451900       0.202790
      823.519700       0.204686
      823.587500       0.206599
      823.655400       0.208529
      823.723200       0.210477
      823.791100       0.212443
      823.859000       0.214426
      823.926800       0.216427
      823.994700       0.218446
      824.062600       0.220483
      824.130500       0.222538
      824.198500       0.224611
      824.266400       0.226702
      824.334400       0.228812
      824.402300       0.230940
      824.470300       0.233086
      824.538300       0.235251
      824.606300       0.237435
      824.674300       0.239637
      824.742300       0.241858
      824.810300       0.244098
      824.878300       0.246357
      824.946400       0.248635
      825.014400       0.250932
      825.082500       0.253248
      825.150600       0.255583
      825.218700       0.257937
      825.286800       0.260311
      825.354900       0.262704
      825.423000       0.265116
      825.491200       0.267547
      825.559300       0.269998
      825.627500       0.272468
      825.695600       0.274958
      825.763800       0.277468
      825.832000       0.279996
      825.900200       0.282545
      825.968400       0.285113
      826.036700       0.287700
      826.104900       0.290307
      826.173200       0.292934
      826.241400       0.295580
      826.309700       0.298245
      826.378000       0.300930
      826.446300       0.303635
      826.514600       0.306363
      826.582900       0.309112
      826.651200       0.311879
      826.719600       0.314666
      826.787900       0.317473
      826.856300       0.320299
      826.924700       0.323144
      826.993100       0.326009
      827.061500       0.328893
      827.129900       0.331796
      827.198300       0.334719
      827.266700       0.337660
      827.335200       0.340620
      827.403600       0.343599
      827.472100       0.346597
      827.540500       0.349613
      827.609000       0.352648
      827.677500       0.355701
      827.746000       0.358773
      827.814600       0.361863
      827.883100       0.364970
      827.951600       0.368096
      828.020200       0.371239
      828.088800       0.374400
      828.157300       0.377578
      828.225900       0.380773
      828.294500       0.383985
      828.363200       0.387214
      828.431800       0.390460
      828.500400       0.393722
      828.569100       0.397000
      828.637700       0.400295
      828.706400       0.403605
      828.775100       0.406930
      828.843800       0.410271
      828.912500       0.413627
      828.981200       0.416998
      829.049900       0.420383
      829.118600       0.423782
      829.187400       0.427196
      829.256200       0.430623
      829.324900       0.434063
      829.393700       0.437517
      829.462500       0.440983
      829.531300       0.444462
      829.600100       0.447953
      829.669000       0.451456
      829.737800       0.454970
      829.806700       0.458496
      829.875500       0.462032
      829.944400       0.465568
      830.013300       0.469113
      830.082200       0.472668
      830.151100       0.476232
      830.220000       0.479805
      830.288900       0.483386
      830.357900       0.486976
      830.426800       0.490573
      830.495800       0.494177
      830.564800       0.497787
      830.633800       0.501405
      830.702800       0.505028
      830.771800       0.508656
      830.840800       0.512290
      830.909800       0.515928
      830.978900       0.519570
      831.048000       0.523216
      831.117000       0.526866
      831.186100       0.530518
      831.255200       0.534172
      831.324300       0.537828
      831.393400       0.541486
      831.462500       0.545144
      831.531700       0.548803
      831.600800       0.552462
      831.670000       0.556120
      831.739200       0.559777
      831.808400       0.563433
      831.877500       0.567086
      831.946800       0.570737
      832.016000       0.574385
      832.085200       0.578029
      832.154400       0.581670
      832.223700       0.585305
      832.293000       0.588936
      832.362200       0.592561
      832.431500       0.596180
      832.500800       0.599792
      832.570100       0.603398
      832.639500       0.606995
      832.708800       0.610585
      832.778100       0.614166
      832.847500       0.617738
      832.916900       0.621300
      832.986300       0.624852
      833.055600       0.628393
      833.125100       0.631924
      833.194500       0.635443
      833.263900       0.638949
      833.333300       0.642444
      833.402800       0.645919
      833.472200       0.649382
      833.541700       0.652829
      833.611200       0.656263
      833.680700       0.659681
      833.750200       0.663083
      833.819700       0.666470
      833.889300       0.669839
      833.958800       0.673192
      834.028400       0.676528
      834.097900       0.679846
      834.167500       0.683145
      834.237100       0.686426
      834.306700       0.689687
      834.376300       0.692930
      834.445900       0.696152
      834.515600       0.699354
      834.585200       0.702535
      834.654900       0.705696
      834.724500       0.708835
      834.794200       0.711952
      834.863900       0.715047
      834.933600       0.718120
      835.003300       0.721170
      835.073100       0.724196
      835.142800       0.727200
      835.212600       0.730179
      835.282300       0.733135
      835.352100       0.736067
      835.421900       0.738973
      835.491700       0.741855
      835.561500       0.744712
      835.631300       0.747544
      835.701200       0.750350
      835.771000       0.753130
      835.840900       0.755885
      835.910700       0.758613
      835.980600       0.761314
      836.050500       0.763990
      836.120400       0.766638
      836.190300       0.769259
      836.260200       0.771854
      836.330200       0.774421
      836.400100       0.776961
      836.470100       0.779473
      836.540100       0.781958
      836.610100       0.784415
      836.680100       0.786845
      836.750100       0.789246
      836.820100       0.791620
      836.890100       0.793950
      836.960200       0.796252
      837.030200       0.798526
      837.100300       0.800772
      837.170400       0.802990
      837.240500       0.805179
      837.310600       0.807340
      837.380700       0.809474
      837.450800       0.811578
      837.520900       0.813655
      837.591100       0.815704
      837.661200       0.817724
      837.731400       0.819717
      837.801600       0.821682
      837.871800       0.823618
      837.942000       0.825527
      838.012200       0.827409
      838.082500       0.829262
      838.152700       0.831089
      838.223000       0.832888
      838.293200       0.834659
      838.363500       0.836404
      838.433800       0.838121
      838.504100       0.839812
      838.574400       0.841475
      838.644800       0.843113
      838.715100       0.844724
      838.785400       0.846308
      838.855800       0.847867
      838.926200       0.849400
      838.996600       0.850907
      839.067000       0.852389
      839.137400       0.853845
      839.207800       0.855276
      839.278200       0.856682
      839.348700       0.858064
      839.419100       0.859421
      839.489600       0.860754
      839.560100       0.862063
      839.630600       0.863348
      839.701100       0.864610
      839.771600       0.865848
      839.842100       0.867063
      839.912600       0.868255
      839.983200       0.869425
      840.053800       0.870572
      840.124300       0.871697
      840.194900       0.872801
      840.265500       0.873883
      840.336100       0.874943
      840.406800       0.875925
      840.477400       0.876886
      840.548000       0.877826
      840.618700       0.878746
      840.689400       0.879646
      840.760000       0.880527
      840.830700       0.881388
      840.901400       0.882230
      840.972200       0.883053
      841.042900       0.883857
      841.113600       0.884643
      841.184400       0.885411
      841.255200       0.886162
      841.325900       0.886895
      841.396700       0.887610
      841.467500       0.888309
      841.538300       0.888991
      841.609200       0.889657
      841.680000       0.890307
      841.750800       0.890941
      841.821700       0.891559
      841.892600       0.892163
      841.963500       0.892751
      842.034400       0.893325
      842.105300       0.893884
      842.176200       0.894429
      842.247100       0.894961
      842.318100       0.895478
      842.389000       0.895983
      842.460000       0.896474
      842.531000       0.896953
      842.602000       0.897419
      842.673000       0.897873
      842.744000       0.898315
      842.815000       0.898745
      842.886000       0.899164
      842.957100       0.899571
      843.028200       0.899968
      843.099200       0.900354
      843.170300       0.900729
      843.241400       0.901095
      843.312500       0.901450
      843.383700       0.901796
      843.454800       0.902132
      843.525900       0.902459
      843.597100       0.902777
      843.668300       0.903087
      843.739500       0.903388
      843.810600       0.903680
      843.881900       0.903965
      843.953100       0.904227
      844.024300       0.904481
      844.095600       0.904729
      844.166800       0.904969
      844.238100       0.905202
      844.309400       0.905428
      844.380600       0.905648
      844.452000       0.905861
      844.523300       0.906069
      844.594600       0.906270
      844.665900       0.906466
      844.737300       0.906657
      844.808700       0.906842
      844.880000       0.907022
      844.951400       0.907197
      845.022800       0.907368
      845.094200       0.907534
      845.165700       0.907695
      845.237100       0.907853
      845.308500       0.908006
      845.380000       0.908156
      845.451500       0.908302
      845.523000       0.908445
      845.594500       0.908584
      845.666000       0.908720
      845.737500       0.908853
      845.809000       0.908984
      845.880600       0.909112
      845.952100       0.909237
      846.023700       0.909360
      846.095300       0.909481
      846.166900       0.909599
      846.238500       0.909716
      846.310100       0.909831
      846.381700       0.909945
      846.453400       0.910056
      846.525000       0.910167
      846.596700       0.910276
      846.668400       0.910385
      846.740100       0.910492
      846.811800       0.910599
      846.883500       0.910704
      846.955200       0.910809
      847.026900       0.910914
      847.098700       0.911019
      847.170500       0.911123
      847.242200       0.911227
      847.314000       0.911331
      847.385800       0.911434
      847.457600       0.911539
      847.529500       0.911629
      847.601300       0.911721
      847.673100       0.911812
      847.745000       0.911905
      847.816900       0.911998
      847.888800       0.912091
      847.960700       0.912186
      848.032600       0.912281
      848.104500       0.912378
      848.176400       0.912475
      848.248400       0.912574
      848.320300       0.912674
      848.392300       0.912775
      848.464300       0.912878
      848.536300       0.912982
      848.608300       0.913088
      848.680300       0.913195
      848.752300       0.913304
      848.824400       0.913415
      848.896400       0.913527
      848.968500       0.913642
      849.040600       0.913758
      849.112700       0.913876
      849.184800       0.913997
      849.256900       0.914119
      849.329000       0.914244
      849.401200       0.914370
      849.473300       0.914499
      849.545500       0.914631
      849.617700       0.914764
      849.689900       0.914900
      849.762100       0.915038
      849.834300       0.915179
      849.906500       0.915322
      849.978800       0.915468
      850.051000       0.915616
      850.123300       0.915767
      850.195500       0.915921
      850.267800       0.916077
      850.340100       0.916236
      850.412500       0.916397
      850.484800       0.916561
      850.557100       0.916728
      850.629500       0.916898
      850.701800       0.917070
      850.774200       0.917246
      850.846600       0.917424
      850.919000       0.917605
      850.991400       0.917789
      851.063800       0.917975
      851.136300       0.918152
      851.208700       0.918332
      851.281200       0.918514
      851.353700       0.918700
      851.426100       0.918888
      851.498600       0.919080
      851.571100       0.919274
      851.643700       0.919471
      851.716200       0.919671
      851.788800       0.919874
      851.861300       0.920080
      851.933900       0.920289
      852.006500       0.920501
      852.079100       0.920716
      852.151700       0.920933
      852.224300       0.921154
      852.296900       0.921377
      852.369600       0.921604
      852.442200       0.921833
      852.514900       0.922065
      852.587600       0.922300
      852.660300       0.922538
      852.733000       0.922778
      852.805700       0.923022
      852.878500       0.923268
      852.951200       0.923517
      853.024000       0.923769
      853.096700       0.924023
      853.169500       0.924280
      853.242300       0.924540
      853.315100       0.924803
      853.388000       0.925068
      853.460800       0.925336
      853.533600       0.925606
      853.606500       0.925879
      853.679400       0.926155
      853.752200       0.926433
      853.825100       0.926714
      853.898000       0.926997
      853.971000       0.927282
      854.043900       0.927570
      854.116800       0.927860
      854.189800       0.928153
      854.262800       0.928448
      854.335800       0.928745
      854.408700       0.929044
      854.481800       0.929346
      854.554800       0.929650
      854.627800       0.929955
      854.700900       0.930263
      854.773900       0.930561
      854.847000       0.930861
      854.920100       0.931163
      854.993200       0.931466
      855.066300       0.931772
      855.139400       0.932079
      855.212500       0.932388
      855.285700       0.932699
      855.358800       0.933011
      855.432000       0.933326
      855.505200       0.933641
      855.578400       0.933959
      855.651600       0.934277
      855.724800       0.934598
      855.798000       0.934919
      855.871300       0.935242
      855.944500       0.935567
      856.017800       0.935893
      856.091100       0.936219
      856.164400       0.936547
      856.237700       0.936877
      856.311000       0.937207
      856.384300       0.937538
      856.457700       0.937870
      856.531000       0.938203
      856.604400       0.938537
      856.677800       0.938872
      856.751200       0.939208
      856.824600       0.939544
      856.898000       0.939881
      856.971500       0.940218
      857.044900       0.940556
      857.118400       0.940895
      857.191800       0.941234
      857.265300       0.941573
      857.338800       0.941912
      857.412300       0.942252
      857.485900       0.942592
      857.559400       0.942932
      857.632900       0.943273
      857.706500       0.943613
      857.780100       0.943953
      857.853700       0.944293
      857.927200       0.944633
      858.000900       0.944973
      858.074500       0.945313
      858.148100       0.945652
      858.221800       0.945991
      858.295400       0.946330
      858.369100       0.946668
      858.442800       0.946994
      858.516500       0.947319
      858.590200       0.947644
      858.663900       0.947968
      858.737700       0.948291
      858.811400       0.948614
      858.885200       0.948935
      858.958900       0.949256
      859.032700       0.949575
      859.106500       0.949894
      859.180300       0.950212
      859.254200       0.950528
      859.328000       0.950843
      859.401900       0.951157
      859.475700       0.951470
      859.549600       0.951781
      859.623500       0.952091
      859.697400       0.952400
      859.771300       0.952707
      859.845200       0.953012
      859.919200       0.953316
      859.993100       0.953618
      860.067100       0.953918
      860.141100       0.954217
      860.215100       0.954514
      860.289100       0.954808
      860.363100       0.955102
      860.437100       0.955393
      860.511100       0.955682
      860.585200       0.955969
      860.659300       0.956254
      860.733300       0.956537
      860.807400       0.956817
      860.881500       0.957096
      860.955700       0.957372
      861.029800       0.957646
      861.103900       0.957917
      861.178100       0.958186
      861.252300       0.958453
      861.326400       0.958717
      861.400600       0.958979
      861.474800       0.959238
      861.549100       0.959495
      861.623300       0.959749
      861.697500       0.960000
      861.771800       0.960249
      861.846100       0.960495
      861.920400       0.960738
      861.994700       0.960978
      862.069000       0.961216
      862.143300       0.961440
      862.217600       0.961661
      862.292000       0.961878
      862.366300       0.962093
      862.440700       0.962306
      862.515100       0.962515
      862.589500       0.962721
      862.663900       0.962924
      862.738300       0.963124
      862.812800       0.963321
      862.887200       0.963515
      862.961700       0.963706
      863.036200       0.963894
      863.110700       0.964079
      863.185200       0.964261
      863.259700       0.964439
      863.334200       0.964615
      863.408700       0.964787
      863.483300       0.964956
      863.557900       0.965122
      863.632400       0.965285
      863.707000       0.965445
      863.781600       0.965601
      863.856300       0.965755
      863.930900       0.965905
      864.005500       0.966052
      864.080200       0.966196
      864.154900       0.966337
      864.229500       0.966474
      864.304200       0.966608
      864.378900       0.966740
      864.453700       0.966868
      864.528400       0.966993
      864.603100       0.967115
      864.677900       0.967233
      864.752700       0.967349
      864.827500       0.967462
      864.902300       0.967571
      864.977100       0.967678
      865.051900       0.967781
      865.126700       0.967882
      865.201600       0.967979
      865.276500       0.968074
      865.351300       0.968165
      865.426200       0.968254
      865.501100       0.968340
      865.576000       0.968423
      865.651000       0.968503
      865.725900       0.968581
      865.800900       0.968655
      865.875800       0.968716
      865.950800       0.968775
      866.025800       0.968831
      866.100800       0.968884
      866.175800       0.968935
      866.250900       0.968983
      866.325900       0.969029
      866.401000       0.969072
      866.476000       0.969113
      866.551100       0.969151
      866.626200       0.969187
      866.701300       0.969221
      866.776500       0.969253
      866.851600       0.969282
      866.926700       0.969309
      867.001900       0.969335
      867.077100       0.969358
      867.152300       0.969379
      867.227500       0.969398
      867.302700       0.969416
      867.377900       0.969432
      867.453200       0.969446
      867.528400       0.969458
      867.603700       0.969468
      867.679000       0.969477
      867.754300       0.969485
      867.829600       0.969491
      867.904900       0.969496
      867.980200       0.969499
      868.055600       0.969502
      868.130900       0.969503
      868.206300       0.969503
      868.281700       0.969501
      868.357100       0.969499
      868.432500       0.969496
      868.507900       0.969492
      868.583300       0.969488
      868.658800       0.969483
      868.734300       0.969477
      868.809700       0.969470
      868.885200       0.969463
      868.960700       0.969456
      869.036200       0.969448
      869.111800       0.969440
      869.187300       0.969432
      869.262900       0.969424
      869.338400       0.969415
      869.414000       0.969407
      869.489600       0.969399
      869.565200       0.969391
      869.640800       0.969374
      869.716500       0.969357
      869.792100       0.969341
      869.867800       0.969325
      869.943500       0.969310
      870.019100       0.969296
      870.094800       0.969282
      870.170600       0.969269
      870.246300       0.969257
      870.322000       0.969246
      870.397800       0.969236
      870.473500       0.969228
      870.549300       0.969220
      870.625100       0.969214
      870.700900       0.969209
      870.776700       0.969205
      870.852600       0.969203
      870.928400       0.969203
      871.004300       0.969205
      871.080100       0.969208
      871.156000       0.969213
      871.231900       0.969220
      871.307800       0.969229
      871.383800       0.969240
      871.459700       0.969253
      871.535600       0.969268
      871.611600       0.969286
      871.687600       0.969306
      871.763600       0.969328
      871.839600       0.969353
      871.915600       0.969381
      871.991600       0.969411
      872.067700       0.969444
      872.143700       0.969480
      872.219800       0.969519
      872.295900       0.969561
      872.372000       0.969605
      872.448100       0.969653
      872.524200       0.969704
      872.600300       0.969758
      872.676500       0.969815
      872.752700       0.969876
      872.828800       0.969940
      872.905000       0.970008
      872.981200       0.970079
      873.057400       0.970154
      873.133700       0.970233
      873.209900       0.970315
      873.286200       0.970401
      873.362400       0.970490
      873.438700       0.970574
      873.515000       0.970662
      873.591300       0.970753
      873.667700       0.970849
      873.744000       0.970948
      873.820300       0.971052
      873.896700       0.971160
      873.973100       0.971272
      874.049500       0.971389
      874.125900       0.971509
      874.202300       0.971634
      874.278700       0.971764
      874.355200       0.971897
      874.431600       0.972035
      874.508100       0.972178
      874.584600       0.972325
      874.661100       0.972476
      874.737600       0.972632
      874.814100       0.972793
      874.890600       0.972958
      874.967200       0.973128
      875.043800       0.973302
      875.120300       0.973481
      875.196900       0.973664
      875.273500       0.973852
      875.350100       0.974045
      875.426800       0.974242
      875.503400       0.974444
      875.580100       0.974651
      875.656700       0.974862
      875.733400       0.975078
      875.810100       0.975298
      875.886800       0.975523
      875.963600       0.975752
      876.040300       0.975986
      876.117000       0.976225
      876.193800       0.976468
      876.270600       0.976715
      876.347400       0.976967
      876.424200       0.977223
      876.501000       0.977483
      876.577800       0.977748
      876.654700       0.978017
      876.731500       0.978291
      876.808400       0.978568
      876.885300       0.978849
      876.962200       0.979135
      877.039100       0.979424
      877.116000       0.979718
      877.193000       0.980015
      877.269900       0.980306
      877.346900       0.980601
      877.423900       0.980899
      877.500900       0.981201
      877.577900       0.981506
      877.654900       0.981815
      877.731900       0.982126
      877.809000       0.982441
      877.886100       0.982759
      877.963100       0.983079
      878.040200       0.983403
      878.117300       0.983729
      878.194400       0.984057
      878.271600       0.984388
      878.348700       0.984721
      878.425900       0.985056
      878.503000       0.985393
      878.580200       0.985731
      878.657400       0.986071
      878.734600       0.986413
      878.811800       0.986756
      878.889100       0.987100
      878.966300       0.987445
      879.043600       0.987791
      879.120900       0.988137
      879.198200       0.988484
      879.275500       0.988831
      879.352800       0.989178
      879.430100       0.989524
      879.507500       0.989870
      879.584800       0.990215
      879.662200       0.990560
      879.739600       0.990903
      879.817000       0.991245
      879.894400       0.991585
      879.971800       0.991923
      880.049300       0.992259
      880.126700       0.992593
      880.204200       0.992924
      880.281700       0.993251
      880.359200       0.993576
      880.436700       0.993897
      880.514200       0.994214
      880.591800       0.994527
      880.669300       0.994836
      880.746900       0.995140
      880.824500       0.995439
      880.902000       0.995732
      880.979600       0.996019
      881.057300       0.996301
      881.134900       0.996566
      881.212500       0.996825
      881.290200       0.997076
      881.367900       0.997320
      881.445600       0.997556
      881.523300       0.997784
      881.601000       0.998003
      881.678700       0.998213
      881.756500       0.998414
      881.834200       0.998605
      881.912000       0.998785
      881.989800       0.998955
      882.067600       0.999114
      882.145400       0.999261
      882.223200       0.999396
      882.301000       0.999519
      882.378900       0.999629
      882.456800       0.999725
      882.534600       0.999808
      882.612500       0.999877
      882.690400       0.999931
      882.768400       0.999970
      882.846300       0.999993
      882.924200       1.000000
      883.002200       0.999990
      883.080200       0.999964
      883.158200       0.999920
      883.236200       0.999857
      883.314200       0.999776
      883.392200       0.999676
      883.470300       0.999556
      883.548300       0.999416
      883.626400       0.999256
      883.704500       0.999074
      883.782600       0.998871
      883.860700       0.998645
      883.938800       0.998396
      884.017000       0.998124
      884.095100       0.997828
      884.173300       0.997508
      884.251500       0.997162
      884.329700       0.996792
      884.407900       0.996395
      884.486100       0.995971
      884.564400       0.995520
      884.642600       0.995042
      884.720900       0.994535
      884.799200       0.994000
      884.877400       0.993435
      884.955800       0.992840
      885.034100       0.992205
      885.112400       0.991540
      885.190800       0.990843
      885.269100       0.990114
      885.347500       0.989352
      885.425900       0.988557
      885.504300       0.987729
      885.582700       0.986866
      885.661100       0.985969
      885.739600       0.985036
      885.818100       0.984068
      885.896500       0.983063
      885.975000       0.982022
      886.053500       0.980943
      886.132000       0.979827
      886.210600       0.978673
      886.289100       0.977480
      886.367700       0.976247
      886.446200       0.974976
      886.524800       0.973664
      886.603400       0.972312
      886.682000       0.970919
      886.760700       0.969484
      886.839300       0.968008
      886.918000       0.966490
      886.996600       0.964930
      887.075300       0.963327
      887.154000       0.961681
      887.232700       0.959991
      887.311400       0.958257
      887.390200       0.956480
      887.468900       0.954658
      887.547700       0.952791
      887.626500       0.950879
      887.705300       0.948922
      887.784100       0.946920
      887.862900       0.944873
      887.941800       0.942779
      888.020600       0.940640
      888.099500       0.938454
      888.178300       0.936222
      888.257200       0.933944
      888.336100       0.931620
      888.415100       0.929248
      888.494000       0.926831
      888.573000       0.924366
      888.651900       0.921855
      888.730900       0.919297
      888.809900       0.916693
      888.888900       0.914042
      888.967900       0.911336
      889.046900       0.908584
      889.126000       0.905786
      889.205100       0.902941
      889.284100       0.900050
      889.363200       0.897114
      889.442300       0.894132
      889.521400       0.891104
      889.600600       0.888032
      889.679700       0.884914
      889.758900       0.881752
      889.838000       0.878545
      889.917200       0.875295
      889.996400       0.872001
      890.075700       0.868663
      890.154900       0.865283
      890.234100       0.861860
      890.313400       0.858396
      890.392700       0.854889
      890.472000       0.851342
      890.551300       0.847754
      890.630600       0.844125
      890.709900       0.840458
      890.789200       0.836751
      890.868600       0.833006
      890.948000       0.829223
      891.027400       0.825403
      891.106800       0.821546
      891.186200       0.817653
      891.265600       0.813725
      891.345000       0.809762
      891.424500       0.805765
      891.504000       0.801736
      891.583500       0.797673
      891.663000       0.793579
      891.742500       0.789454
      891.822000       0.785299
      891.901500       0.781114
      891.981100       0.776900
      892.060700       0.772659
      892.140200       0.768391
      892.219800       0.764096
      892.299500       0.759776
      892.379100       0.755431
      892.458700       0.751063
      892.538400       0.746672
      892.618000       0.742258
      892.697700       0.737824
      892.777400       0.733369
      892.857100       0.728895
      892.936900       0.724399
      893.016600       0.719885
      893.096400       0.715354
      893.176100       0.710808
      893.255900       0.706246
      893.335700       0.701671
      893.415500       0.697083
      893.495400       0.692483
      893.575200       0.687871
      893.655000       0.683249
      893.734900       0.678617
      893.814800       0.673977
      893.894700       0.669329
      893.974600       0.664675
      894.054500       0.660014
      894.134500       0.655349
      894.214400       0.650679
      894.294400       0.646006
      894.374400       0.641330
      894.454400       0.636653
      894.534400       0.631975
      894.614400       0.627296
      894.694500       0.622619
      894.774500       0.617944
      894.854600       0.613270
      894.934700       0.608601
      895.014800       0.603935
      895.094900       0.599274
      895.175000       0.594618
      895.255100       0.589969
      895.335300       0.585327
      895.415500       0.580693
      895.495700       0.576068
      895.575900       0.571451
      895.656100       0.566845
      895.736300       0.562249
      895.816500       0.557664
      895.896800       0.553092
      895.977100       0.548531
      896.057300       0.543985
      896.137600       0.539451
      896.218000       0.534933
      896.298300       0.530429
      896.378600       0.525941
      896.459000       0.521469
      896.539400       0.517014
      896.619700       0.512576
      896.700100       0.508156
      896.780600       0.503754
      896.861000       0.499370
      896.941400       0.495002
      897.021900       0.490653
      897.102400       0.486324
      897.182800       0.482016
      897.263300       0.477729
      897.343900       0.473464
      897.424400       0.469220
      897.504900       0.464999
      897.585500       0.460800
      897.666100       0.456624
      897.746700       0.452471
      897.827300       0.448342
      897.907900       0.444236
      897.988500       0.440155
      898.069200       0.436098
      898.149800       0.432066
      898.230500       0.428059
      898.311200       0.424077
      898.391900       0.420120
      898.472600       0.416189
      898.553300       0.412284
      898.634100       0.408405
      898.714800       0.404552
      898.795600       0.400726
      898.876400       0.396926
      898.957200       0.393152
      899.038000       0.389406
      899.118900       0.385687
      899.199700       0.381994
      899.280600       0.378329
      899.361500       0.374691
      899.442300       0.371080
      899.523300       0.367497
      899.604200       0.363942
      899.685100       0.360414
      899.766100       0.356913
      899.847000       0.353440
      899.928000       0.349995
      900.009000       0.346577
      900.090000       0.343188
      900.171000       0.339825
      900.252100       0.336491
      900.333100       0.333184
      900.414200       0.329905
      900.495300       0.326654
      900.576400       0.323430
      900.657500       0.320234
      900.738600       0.317065
      900.819700       0.313924
      900.900900       0.310810
      900.982100       0.307721
      901.063300       0.304660
      901.144500       0.301625
      901.225700       0.298618
      901.306900       0.295638
      901.388100       0.292686
      901.469400       0.289759
      901.550700       0.286860
      901.632000       0.283988
      901.713300       0.281142
      901.794600       0.278322
      901.875900       0.275529
      901.957200       0.272762
      902.038600       0.270021
      902.120000       0.267306
      902.201400       0.264617
      902.282800       0.261953
      902.364200       0.259316
      902.445600       0.256703
      902.527100       0.254116
      902.608500       0.251554
      902.690000       0.249017
      902.771500       0.246504
      902.853000       0.244017
      902.934500       0.241553
      903.016100       0.239115
      903.097600       0.236700
      903.179200       0.234309
      903.260800       0.231943
      903.342400       0.229599
      903.424000       0.227280
      903.505600       0.224984
      903.587200       0.222711
      903.668900       0.220461
      903.750600       0.218233
      903.832200       0.216029
      903.913900       0.213847
      903.995700       0.211687
      904.077400       0.209549
      904.159100       0.207434
      904.240900       0.205340
      904.322700       0.203268
      904.404400       0.201217
      904.486300       0.199187
      904.568100       0.197179
      904.649900       0.195191
      904.731700       0.193224
      904.813600       0.191278
      904.895500       0.189352
      904.977400       0.187446
      905.059300       0.185559
      905.141200       0.183691
      905.223100       0.181844
      905.305100       0.180015
      905.387100       0.178206
      905.469000       0.176416
      905.551000       0.174646
      905.633000       0.172894
      905.715100       0.171160
      905.797100       0.169445
      905.879200       0.167748
      905.961200       0.166070
      906.043300       0.164409
      906.125400       0.162766
      906.207500       0.161141
      906.289700       0.159533
      906.371800       0.157942
      906.454000       0.156368
      906.536100       0.154811
      906.618300       0.153271
      906.700500       0.151748
      906.782700       0.150241
      906.865000       0.148750
      906.947200       0.147275
      907.029500       0.145816
      907.111800       0.144373
      907.194000       0.142945
      907.276400       0.141533
      907.358700       0.140136
      907.441000       0.138754
      907.523400       0.137387
      907.605700       0.136035
      907.688100       0.134698
      907.770500       0.133375
      907.852900       0.132066
      907.935400       0.130772
      908.017800       0.129492
      908.100300       0.128225
      908.182700       0.126972
      908.265200       0.125733
      908.347700       0.124508
      908.430200       0.123295
      908.512800       0.122096
      908.595300       0.120910
      908.677900       0.119736
      908.760500       0.118576
      908.843000       0.117428
      908.925600       0.116292
      909.008300       0.115169
      909.090900       0.114058
      909.173600       0.112954
      909.256200       0.111862
      909.338900       0.110782
      909.421600       0.109714
      909.504300       0.108657
      909.587000       0.107612
      909.669800       0.106578
      909.752500       0.105556
      909.835300       0.104544
      909.918100       0.103544
      910.000900       0.102554
      910.083700       0.101576
      910.166600       0.100608
      910.249400       0.099650
      910.332300       0.098703
      910.415100       0.097766
      910.498000       0.096840
      910.581000       0.095923
      910.663900       0.095016
      910.746800       0.094119
      910.829800       0.093232
      910.912700       0.092355
      910.995700       0.091487
      911.078700       0.090628
      911.161700       0.089779
      911.244800       0.088939
      911.327800       0.088108
      911.410900       0.087286
      911.493900       0.086472
      911.577000       0.085668
      911.660100       0.084872
      911.743300       0.084085
      911.826400       0.083306
      911.909500       0.082536
      911.992700       0.081774
      912.075900       0.081020
      912.159100       0.080274
      912.242300       0.079536
      912.325500       0.078806
      912.408800       0.078084
      912.492000       0.077370
      912.575300       0.076663
      912.658600       0.075964
      912.741900       0.075272
      912.825200       0.074588
      912.908500       0.073911
      912.991900       0.073241
      913.075200       0.072579
      913.158600       0.071923
      913.242000       0.071274
      913.325400       0.070632
      913.408800       0.069996
      913.492300       0.069367
      913.575700       0.068745
      913.659200       0.068130
      913.742700       0.067520
      913.826200       0.066918
      913.909700       0.066321
      913.993200       0.065731
      914.076800       0.065147
      914.160300       0.064570
      914.243900       0.063998
      914.327500       0.063432
      914.411100       0.062873
      914.494700       0.062319
      914.578400       0.061771
      914.662000       0.061228
      914.745700       0.060691
      914.829400       0.060160
      914.913100       0.059634
      914.996800       0.059114
      915.080500       0.058599
      915.164300       0.058090
      915.248000       0.057586
      915.331800       0.057087
      915.415600       0.056593
      915.499400       0.056104
      915.583200       0.055620
      915.667100       0.055141
      915.750900       0.054667
      915.834800       0.054198
      915.918700       0.053734
      916.002600       0.053274
      916.086500       0.052819
      916.170400       0.052369
      916.254400       0.051924
      916.338300       0.051482
      916.422300       0.051046
      916.506300       0.050613
      916.590300       0.050186
      916.674300       0.049762
      916.758300       0.049343
      916.842400       0.048928
      916.926500       0.048517
      917.010500       0.048110
      917.094600       0.047707
      917.178800       0.047308
      917.262900       0.046913
      917.347000       0.046523
      917.431200       0.046136
      917.515400       0.045752
      917.599600       0.045373
      917.683800       0.044997
      917.768000       0.044625
      917.852200       0.044256
      917.936500       0.043891
      918.020700       0.043530
      918.105000       0.043172
      918.189300       0.042818
      918.273600       0.042467
      918.358000       0.042120
      918.442300       0.041776
      918.526700       0.041435
      918.611100       0.041098
      918.695500       0.040764
      918.779900       0.040433
      918.864300       0.040105
      918.948700       0.039781
      919.033200       0.039460
      919.117600       0.039141
      919.202100       0.038826
      919.286600       0.038514
      919.371200       0.038204
      919.455700       0.037898
      919.540200       0.037594
      919.624800       0.037294
      919.709400       0.036996
      919.794000       0.036701
      919.878600       0.036409
      919.963200       0.036120
      920.047800       0.035833
      920.132500       0.035549
      920.217200       0.035267
      920.301900       0.034989
      920.386600       0.034712
      920.471300       0.034439
      920.556000       0.034168
      920.640800       0.033899
      920.725500       0.033633
      920.810300       0.033369
      920.895100       0.033108
      920.979900       0.032849
      921.064800       0.032592
      921.149600       0.032338
      921.234500       0.032086
      921.319300       0.031837
      921.404200       0.031589
      921.489100       0.031344
      921.574000       0.031101
      921.659000       0.030861
      921.743900       0.030622
      921.828900       0.030385
      921.913900       0.030151
      921.998900       0.029918
      922.083900       0.029688
      922.168900       0.029459
      922.254000       0.029233
      922.339100       0.029009
      922.424100       0.028786
      922.509200       0.028566
      922.594300       0.028348
      922.679500       0.028131
      922.764600       0.027916
      922.849800       0.027704
      922.934900       0.027493
      923.020100       0.027284
      923.105300       0.027076
      923.190500       0.026871
      923.275800       0.026667
      923.361000       0.026465
      923.446300       0.026265
      923.531600       0.026066
      923.616900       0.025869
      923.702200       0.025674
      923.787500       0.025480
      923.872900       0.025289
      923.958200       0.025098
      924.043600       0.024910
      924.129000       0.024723
      924.214400       0.024537
      924.299800       0.024353
      924.385300       0.024171
      924.470700       0.023990
      924.556200       0.023810
      924.641700       0.023633
      924.727200       0.023456
      924.812700       0.023281
      924.898300       0.023108
      924.983800       0.022936
      925.069400       0.022765
      925.155000       0.022596
      925.240600       0.022428
      925.326200       0.022261
      925.411800       0.022096
      925.497500       0.021933
      925.583100       0.021770
      925.668800       0.021609
      925.754500       0.021449
      925.840200       0.021291
      925.925900       0.021133
      926.011700       0.020977
      926.097400       0.020823
      926.183200       0.020669
      926.269000       0.020517
      926.354800       0.020365
      926.440600       0.020216
      926.526500       0.020067
      926.612300       0.019919
      926.698200       0.019773
      926.784100       0.019628
      926.870000       0.019484
      926.955900       0.019341
      927.041800       0.019199
      927.127800       0.019058
      927.213700       0.018919
      927.299700       0.018781
      927.385700       0.018643
      927.471700       0.018507
      927.557700       0.018372
      927.643800       0.018238
      927.729800       0.018105
      927.815900       0.017973
      927.902000       0.017842
      927.988100       0.017712
      928.074200       0.017583
      928.160400       0.017455
      928.246500       0.017328
      928.332700       0.017202
      928.418900       0.017077
      928.505100       0.016953
      928.591300       0.016830
      928.677600       0.016708
      928.763800       0.016587
      928.850100       0.016467
      928.936400       0.016347
      929.022700       0.016229
      929.109000       0.016112
      929.195300       0.015995
      929.281700       0.015880
      929.368000       0.015765
      929.454400       0.015651
      929.540800       0.015538
      929.627200       0.015426
      929.713600       0.015315
      929.800100       0.015205
      929.886600       0.015095
      929.973000       0.014987
      930.059500       0.014879
      930.146000       0.014772
      930.232600       0.014666
      930.319100       0.014561
      930.405700       0.014456
      930.492200       0.014352
      930.578800       0.014249
      930.665400       0.014147
      930.752000       0.014046
      930.838700       0.013945
      930.925300       0.013846
      931.012000       0.013747
      931.098700       0.013648
      931.185400       0.013551
      931.272100       0.013454
      931.358900       0.013358
      931.445600       0.013263
      931.532400       0.013168
      931.619200       0.013075
      931.706000       0.012982
      931.792800       0.012889
      931.879600       0.012798
      931.966400       0.012707
      932.053300       0.012617
      932.140200       0.012527
      932.227100       0.012439
      932.314000       0.012351
      932.400900       0.012263
      932.487900       0.012177
      932.574800       0.012091
      932.661800       0.012005
      932.748800       0.011921
      932.835800       0.011837
      932.922800       0.011753
      933.009900       0.011671
      933.096900       0.011589
      933.184000       0.011507
      933.271100       0.011427
      933.358200       0.011346
      933.445300       0.011267
      933.532500       0.011188
      933.619600       0.011110
      933.706800       0.011032
      933.794000       0.010955
      933.881200       0.010879
      933.968400       0.010803
      934.055700       0.010728
      934.142900       0.010653
      934.230200       0.010579
      934.317500       0.010506
      934.404800       0.010433
      934.492100       0.010361
      934.579400       0.010289
      934.666800       0.010218
      934.754200       0.010147
      934.841500       0.010077
      934.928900       0.010008
      935.016400       0.009939
      935.103800       0.009870
      935.191200       0.009802
      935.278700       0.009735
      935.366200       0.009668
      935.453700       0.009602
      935.541200       0.009536
      935.628700       0.009471
      935.716300       0.009406
      935.803900       0.009342
      935.891400       0.009278
      935.979000       0.009215
      936.066600       0.009152
      936.154300       0.009090
      936.241900       0.009028
      936.329600       0.008967
      936.417300       0.008906
      936.505000       0.008846
      936.592700       0.008786
      936.680400       0.008727
      936.768100       0.008668
      936.855900       0.008609
      936.943700       0.008551
      937.031500       0.008494
      937.119300       0.008436
      937.207100       0.008380
      937.295000       0.008323
      937.382800       0.008268
      937.470700       0.008212
      937.558600       0.008157
      937.646500       0.008102
      937.734400       0.008048
      937.822400       0.007994
      937.910300       0.007941
      937.998300       0.007888
      938.086300       0.007835
      938.174300       0.007783
      938.262300       0.007731
      938.350400       0.007679
      938.438400       0.007628
      938.526500       0.007577
      938.614600       0.007527
      938.702700       0.007476
      938.790800       0.007427
      938.879000       0.007377
      938.967100       0.007328
      939.055300       0.007279
      939.143500       0.007231
      939.231700       0.007182
      939.319900       0.007134
      939.408200       0.007087
      939.496400       0.007039
      939.584700       0.006992
      939.673000       0.006946
      939.761300       0.006899
      939.849600       0.006853
      939.938000       0.006807
      940.026300       0.006761
      940.114700       0.006716
      940.203100       0.006671
      940.291500       0.006626
      940.379900       0.006581
      940.468400       0.006537
      940.556800       0.006492
      940.645300       0.006448
      940.733800       0.006404
      940.822300       0.006361
      940.910800       0.006317
      940.999300       0.006274
      941.087900       0.006231
      941.176500       0.006188
      941.265100       0.006146
      941.353700       0.006103
      941.442300       0.006061
      941.530900       0.006019
      941.619600       0.005977
      941.708300       0.005935
      941.796900       0.005893
      941.885700       0.005852
      941.974400       0.005810
      942.063100       0.005769
      942.151900       0.005727
      942.240600       0.005686
      942.329400       0.005645
      942.418200       0.005604
      942.507100       0.005564
      942.595900       0.005523
      942.684800       0.005482
      942.773600       0.005442
      942.862500       0.005401
      942.951400       0.005361
      943.040400       0.005320
      943.129300       0.005280
      943.218300       0.005240
      943.307200       0.005199
      943.396200       0.005159
      943.485200       0.005119
      943.574300       0.005079
      943.663300       0.005039
      943.752400       0.004998
      943.841400       0.004958
      943.930500       0.004918
      944.019600       0.004878
      944.108800       0.004838
      944.197900       0.004798
      944.287100       0.004758
      944.376200       0.004718
      944.465400       0.004678
      944.554600       0.004637
      944.643900       0.004597
      944.733100       0.004557
      944.822400       0.004517
      944.911700       0.004477
      945.000900       0.004436
      945.090300       0.004396
      945.179600       0.004356
      945.268900       0.004315
      945.358300       0.004275
      945.447700       0.004235
      945.537100       0.004194
      945.626500       0.004154
      945.715900       0.004113
      945.805400       0.004073
      945.894800       0.004032
      945.984300       0.003992
      946.073800       0.003951
      946.163300       0.003910
      946.252800       0.003870
      946.342400       0.003829
      946.432000       0.003788
      946.521500       0.003748
      946.611100       0.003707
      946.700700       0.003666
      946.790400       0.003626
      946.880000       0.003585
      946.969700       0.003544
      947.059400       0.003503
      947.149100       0.003463
      947.238800       0.003422
      947.328500       0.003381
      947.418300       0.003341
      947.508100       0.003300
      947.597800       0.003260
      947.687600       0.003219
      947.777500       0.003179
      947.867300       0.003138
      947.957200       0.003098
      948.047000       0.003058
      948.136900       0.003018
      948.226800       0.002978
      948.316700       0.002938
      948.406700       0.002898
      948.496600       0.002858
      948.586600       0.002819
      948.676600       0.002779
      948.766600       0.002740
      948.856600       0.002701
      948.946700       0.002662
      949.036700       0.002623
      949.126800       0.002585
      949.216900       0.002546
      949.307000       0.002508
      949.397100       0.002470
      949.487300       0.002432
      949.577400       0.002395
      949.667600       0.002357
      949.757800       0.002320
      949.848000       0.002283
      949.938300       0.002247
      950.028500       0.002211
      950.118800       0.002175
      950.209000       0.002139
      950.299300       0.002103
      950.389700       0.002068
      950.480000       0.002033
      950.570300       0.001999
      950.660700       0.001965
      950.751100       0.001931
      950.841500       0.001897
      950.931900       0.001864
      951.022300       0.001831
      951.112800       0.001798
      951.203300       0.001766
      951.293800       0.001734
      951.384300       0.001703
      951.474800       0.001672
      951.565300       0.001641
      951.655900       0.001610
      951.746500       0.001580
      951.837000       0.001551
      951.927700       0.001522
      952.018300       0.001493
      952.108900       0.001464
      952.199600       0.001436
      952.290300       0.001408
      952.381000       0.001381
      952.471700       0.001355
      952.562400       0.001329
      952.653100       0.001303
      952.743900       0.001278
      952.834700       0.001253
      952.925500       0.001228
      953.016300       0.001204
      953.107100       0.001180
      953.198000       0.001157
      953.288800       0.001134
      953.379700       0.001111
      953.470600       0.001089
      953.561600       0.001067
      953.652500       0.001045
      953.743400       0.001024
      953.834400       0.001003
      953.925400       0.000983
      954.016400       0.000963
      954.107400       0.000943
      954.198500       0.000923
      954.289500       0.000904
      954.380600       0.000886
      954.471700       0.000867
      954.562800       0.000849
      954.653900       0.000832
      954.745100       0.000814
      954.836200       0.000797
      954.927400       0.000780
      955.018600       0.000764
      955.109800       0.000748
      955.201100       0.000732
      955.292300       0.000717
      955.383600       0.000702
      955.474900       0.000687
      955.566200       0.000672
      955.657500       0.000658
      955.748800       0.000644
      955.840200       0.000630
      955.931600       0.000617
      956.022900       0.000604
      956.114400       0.000591
      956.205800       0.000578
      956.297200       0.000566
      956.388700       0.000554
      956.480200       0.000542
      956.571600       0.000530
      956.663200       0.000519
      956.754700       0.000508
      956.846200       0.000497
      956.937800       0.000486
      957.029400       0.000476
      957.121000       0.000466
      957.212600       0.000456
      957.304200       0.000446
      957.395900       0.000436
      957.487600       0.000427
      957.579200       0.000418
      957.670900       0.000409
      957.762700       0.000400
      957.854400       0.000392
      957.946200       0.000383
      958.037900       0.000375
      958.129700       0.000367
      958.221500       0.000359
      958.313400       0.000351
      958.405200       0.000344
      958.497100       0.000337
      958.589000       0.000329
      958.680900       0.000322
      958.772800       0.000316
      958.864700       0.000309
      958.956700       0.000302
      959.048600       0.000296
      959.140600       0.000290
      959.232600       0.000284
      959.324600       0.000278
      959.416700       0.000272
      959.508700       0.000266
      959.600800       0.000260
      959.692900       0.000255
      959.785000       0.000250
      959.877100       0.000244
      959.969300       0.000239
      960.061400       0.000234
      960.153600       0.000229
      960.245800       0.000225
      960.338000       0.000220
      960.430300       0.000215
      960.522500       0.000211
      960.614800       0.000206
      960.707100       0.000202
      960.799400       0.000198
      960.891700       0.000194
      960.984000       0.000190
      961.076400       0.000186
      961.168800       0.000182
      961.261200       0.000179
      961.353600       0.000175
      961.446000       0.000171
      961.538500       0.000168
      961.630900       0.000164
      961.723400       0.000161
      961.815900       0.000158
      961.908400       0.000154
      962.001000       0.000151
      962.093500       0.000148
      962.186100       0.000145
      962.278700       0.000142
      962.371300       0.000139
      962.463900       0.000136
      962.556600       0.000134
      962.649200       0.000131
      962.741900       0.000128
      962.834600       0.000126
      962.927300       0.000123
      963.020000       0.000121
      963.112800       0.000118
      963.205500       0.000116
      963.298300       0.000113
      963.391100       0.000111
      963.484000       0.000109
      963.576800       0.000107
      963.669700       0.000105
      963.762500       0.000103
      963.855400       0.000101
      963.948300       0.000099
      964.041300       0.000097
      964.134200       0.000095
      964.227200       0.000093
      964.320200       0.000091
      964.413200       0.000089
      964.506200       0.000088
      964.599200       0.000086
      964.692300       0.000084
      964.785300       0.000083
      964.878400       0.000081
      964.971500       0.000079
      965.064700       0.000078
      965.157800       0.000076
      965.251000       0.000075
      965.344100       0.000073
      965.437300       0.000072
      965.530600       0.000071
      965.623800       0.000069
      965.717000       0.000068
      965.810300       0.000067
      965.903600       0.000066
      965.996900       0.000064
      966.090200       0.000063
      966.183600       0.000062
      966.276900       0.000061
      966.370300       0.000060
      966.463700       0.000059
      966.557100       0.000057
      966.650600       0.000056
      966.744000       0.000055
      966.837500       0.000054
      966.931000       0.000053
      967.024500       0.000052
      967.118000       0.000051
      967.211500       0.000051
      967.305100       0.000050
      967.398700       0.000049
      967.492300       0.000048
      967.585900       0.000047
      967.679500       0.000046
      967.773200       0.000045
      967.866800       0.000045
      967.960500       0.000044
      968.054200       0.000043
      968.147900       0.000042
      968.241700       0.000041
      968.335400       0.000041
      968.429200       0.000040
      968.523000       0.000039
      968.616800       0.000039
      968.710600       0.000038
      968.804500       0.000037
      968.898400       0.000037
      968.992200       0.000036
      969.086200       0.000035
      969.180100       0.000035
      969.274000       0.000034
      969.368000       0.000034
      969.461900       0.000033
      969.555900       0.000032
      969.650000       0.000032
      969.744000       0.000031
      969.838000       0.000031
      969.932100       0.000030
      970.026200       0.000030
      970.120300       0.000029
      970.214400       0.000029
      970.308600       0.000028
      970.402700       0.000028
      970.496900       0.000027
      970.591100       0.000027
      970.685300       0.000026
      970.779500       0.000026
      970.873800       0.000026
      970.968100       0.000025
      971.062300       0.000025
      971.156600       0.000024
      971.251000       0.000024
      971.345300       0.000024
      971.439700       0.000023
      971.534100       0.000023
      971.628400       0.000022
      971.722900       0.000022
      971.817300       0.000022
      971.911800       0.000021
      972.006200       0.000021
      972.100700       0.000021
      972.195200       0.000020
      972.289700       0.000020
      972.384300       0.000020
      972.478800       0.000020
      972.573400       0.000019
      972.668000       0.000019
      972.762600       0.000019
      972.857300       0.000018
      972.951900       0.000018
      973.046600       0.000018
      973.141300       0.000017
      973.236000       0.000017
      973.330700       0.000017
      973.425500       0.000017
      973.520200       0.000016
      973.615000       0.000016
      973.709800       0.000016
      973.804700       0.000016
      973.899500       0.000015
      973.994400       0.000015
      974.089200       0.000015
      974.184100       0.000015
      974.279000       0.000015
      974.374000       0.000014
      974.468900       0.000014
      974.563900       0.000014
      974.658900       0.000014
      974.753900       0.000014
      974.848900       0.000013
      974.943900       0.000013
      975.039000       0.000013
      975.134100       0.000013
      975.229200       0.000013
      975.324300       0.000012
      975.419400       0.000012
      975.514600       0.000012
      975.609800       0.000012
      975.704900       0.000012
      975.800200       0.000012
      975.895400       0.000011
      975.990600       0.000011
      976.085900       0.000011
      976.181200       0.000011
      976.276500       0.000011
      976.371800       0.000011
      976.467100       0.000010
      976.562500       0.000010
      976.657900       0.000010
      976.753300       0.000010
      976.848700       0.000010
      976.944100       0.000010
      977.039600       0.000010
      977.135000       0.000010
      977.230500       0.000009
      977.326000       0.000009
      977.421600       0.000009
      977.517100       0.000009
      977.612700       0.000009
      977.708300       0.000009
      977.803900       0.000009
      977.899500       0.000009
      977.995100       0.000008
      978.090800       0.000008
      978.186400       0.000008
      978.282100       0.000008
      978.377800       0.000008
      978.473600       0.000008
      978.569300       0.000008
      978.665100       0.000008
      978.760900       0.000008
      978.856700       0.000008
      978.952500       0.000007
      979.048400       0.000007
      979.144200       0.000007
      979.240100       0.000007
      979.336000       0.000007
      979.431900       0.000007
      979.527900       0.000007
      979.623800       0.000007
      979.719800       0.000007
      979.815800       0.000007
      979.911800       0.000007
      980.007800       0.000006
      980.103900       0.000006
      980.200000       0.000006
      980.296000       0.000006
      980.392200       0.000006
      980.488300       0.000006
      980.584400       0.000006
      980.680600       0.000006
      980.776800       0.000006
      980.873000       0.000006
      980.969200       0.000006
      981.065400       0.000006
      981.161700       0.000006
      981.258000       0.000006
      981.354300       0.000005
      981.450600       0.000005
      981.546900       0.000005
      981.643300       0.000005
      981.739600       0.000005
      981.836000       0.000005
      981.932400       0.000005
      982.028900       0.000005
      982.125300       0.000005
      982.221800       0.000005
      982.318300       0.000005
      982.414800       0.000005
      982.511300       0.000005
      982.607800       0.000005
      982.704400       0.000005
      982.801000       0.000005
      982.897600       0.000005
      982.994200       0.000005
      983.090800       0.000004
      983.187500       0.000004
      983.284200       0.000004
      983.380900       0.000004
      983.477600       0.000004
      983.574300       0.000004
      983.671100       0.000004
      983.767800       0.000004
      983.864600       0.000004
      983.961400       0.000004
      984.058300       0.000004
      984.155100       0.000004
      984.252000       0.000004
      984.348900       0.000004
      984.445800       0.000004
      984.542700       0.000004
      984.639600       0.000004
      984.736600       0.000004
      984.833600       0.000004
      984.930600       0.000004
      985.027600       0.000004
      985.124600       0.000004
      985.221700       0.000004
      985.318800       0.000004
      985.415800       0.000003
      985.513000       0.000003
      985.610100       0.000003
      985.707200       0.000003
      985.804400       0.000003
      985.901600       0.000003
      985.998800       0.000003
      986.096000       0.000003
      986.193300       0.000003
      986.290600       0.000003
      986.387800       0.000003
      986.485200       0.000003
      986.582500       0.000003
      986.679800       0.000003
      986.777200       0.000003
      986.874600       0.000003
      986.972000       0.000003
      987.069400       0.000003
      987.166800       0.000003
      987.264300       0.000003
      987.361800       0.000003
      987.459300       0.000003
      987.556800       0.000003
      987.654300       0.000003
      987.751900       0.000003
      987.849500       0.000003
      987.947000       0.000003
      988.044700       0.000003
      988.142300       0.000003
      988.239900       0.000003
      988.337600       0.000003
      988.435300       0.000003
      988.533000       0.000003
      988.630700       0.000003
      988.728500       0.000003
      988.826300       0.000003
      988.924100       0.000003
      989.021900       0.000002
      989.119700       0.000002
      989.217500       0.000002
      989.315400       0.000002
      989.413300       0.000002
      989.511200       0.000002
      989.609100       0.000002
      989.707000       0.000002
      989.805000       0.000002
      989.903000       0.000002
      990.001000       0.000002
      990.099000       0.000002
      990.197000       0.000002
      990.295100       0.000002
      990.393200       0.000002
      990.491300       0.000002
      990.589400       0.000002
      990.687500       0.000002
      990.785700       0.000002
      990.883900       0.000002
      990.982100       0.000002
      991.080300       0.000002
      991.178500       0.000002
      991.276800       0.000002
      991.375000       0.000002
      991.473300       0.000002
      991.571600       0.000002
      991.670000       0.000002
      991.768300       0.000002
      991.866700       0.000002
      991.965100       0.000002
      992.063500       0.000002
      992.161900       0.000002
      992.260400       0.000002
      992.358800       0.000002
      992.457300       0.000002
      992.555800       0.000002
      992.654400       0.000002
      992.752900       0.000002
      992.851500       0.000002
      992.950100       0.000002
      993.048700       0.000002
      993.147300       0.000002
      993.245900       0.000002
      993.344600       0.000002
      993.443300       0.000002
      993.542000       0.000002
      993.640700       0.000002
      993.739400       0.000002
      993.838200       0.000002
      993.937000       0.000002
      994.035800       0.000002
      994.134600       0.000002
      994.233400       0.000002
      994.332300       0.000002
      994.431200       0.000002
      994.530100       0.000002
      994.629000       0.000002
      994.727900       0.000002
      994.826900       0.000002
      994.925900       0.000002
      995.024900       0.000002
      995.123900       0.000002
      995.222900       0.000002
      995.322000       0.000002
      995.421100       0.000002
      995.520200       0.000002
      995.619300       0.000002
      995.718400       0.000002
      995.817600       0.000002
      995.916700       0.000002
      996.015900       0.000002
      996.115200       0.000002
      996.214400       0.000002
      996.313600       0.000001
      996.412900       0.000001
      996.512200       0.000001
      996.611500       0.000001
      996.710900       0.000001
      996.810200       0.000001
      996.909600       0.000001
