7,   channel 7 SRF from file SRF_SSH-1_Delivery_220520/SRF_DMSP-F3_SSH_Chan07.asc received June 2022 from SPASCIA
Number of data points:
1291
Wavenumber (cm-1)   Filter response
      372.700000       0.001800
      372.800000       0.001800
      372.900000       0.001800
      373.000000       0.001800
      373.100000       0.001800
      373.200000       0.001800
      373.300000       0.001800
      373.400000       0.001800
      373.500000       0.001800
      373.600000       0.001800
      373.700000       0.001800
      373.800000       0.001900
      373.900000       0.001900
      374.000000       0.001900
      374.100000       0.002000
      374.200000       0.002000
      374.300000       0.002000
      374.400000       0.002000
      374.500000       0.002000
      374.600000       0.002000
      374.700000       0.002000
      374.800000       0.002000
      374.900000       0.002000
      375.000000       0.002000
      375.100000       0.002000
      375.200000       0.002000
      375.300000       0.002000
      375.400000       0.002000
      375.500000       0.002000
      375.600000       0.002000
      375.700000       0.002000
      375.800000       0.002000
      375.900000       0.002100
      376.000000       0.002100
      376.100000       0.002100
      376.200000       0.002200
      376.300000       0.002200
      376.400000       0.002200
      376.500000       0.002200
      376.600000       0.002200
      376.700000       0.002200
      376.800000       0.002200
      376.900000       0.002200
      377.000000       0.002200
      377.100000       0.002200
      377.200000       0.002200
      377.300000       0.002200
      377.400000       0.002200
      377.500000       0.002200
      377.600000       0.002200
      377.700000       0.002200
      377.800000       0.002200
      377.900000       0.002200
      378.000000       0.002200
      378.100000       0.002200
      378.200000       0.002200
      378.300000       0.002200
      378.400000       0.002300
      378.500000       0.002300
      378.600000       0.002300
      378.700000       0.002400
      378.800000       0.002400
      378.900000       0.002400
      379.000000       0.002400
      379.100000       0.002400
      379.200000       0.002400
      379.300000       0.002400
      379.400000       0.002400
      379.500000       0.002400
      379.600000       0.002400
      379.700000       0.002400
      379.800000       0.002400
      379.900000       0.002400
      380.000000       0.002500
      380.100000       0.002500
      380.200000       0.002500
      380.300000       0.002500
      380.400000       0.002500
      380.500000       0.002500
      380.600000       0.002500
      380.700000       0.002500
      380.800000       0.002600
      380.900000       0.002600
      381.000000       0.002700
      381.100000       0.002700
      381.200000       0.002700
      381.300000       0.002700
      381.400000       0.002700
      381.500000       0.002700
      381.600000       0.002700
      381.700000       0.002700
      381.800000       0.002700
      381.900000       0.002700
      382.000000       0.002700
      382.100000       0.002700
      382.200000       0.002700
      382.300000       0.002700
      382.400000       0.002700
      382.500000       0.002700
      382.600000       0.002700
      382.700000       0.002700
      382.800000       0.002700
      382.900000       0.002700
      383.000000       0.002700
      383.100000       0.002700
      383.200000       0.002700
      383.300000       0.002700
      383.400000       0.002700
      383.500000       0.002700
      383.600000       0.002700
      383.700000       0.002700
      383.800000       0.002700
      383.900000       0.002700
      384.000000       0.002700
      384.100000       0.002700
      384.200000       0.002700
      384.300000       0.002700
      384.400000       0.002700
      384.500000       0.002700
      384.600000       0.002700
      384.700000       0.002700
      384.800000       0.002800
      384.900000       0.002800
      385.000000       0.002800
      385.100000       0.002900
      385.200000       0.002900
      385.300000       0.002900
      385.400000       0.003000
      385.500000       0.003000
      385.600000       0.003100
      385.700000       0.003100
      385.800000       0.003100
      385.900000       0.003100
      386.000000       0.003100
      386.100000       0.003100
      386.200000       0.003100
      386.300000       0.003100
      386.400000       0.003100
      386.500000       0.003100
      386.600000       0.003100
      386.700000       0.003100
      386.800000       0.003100
      386.900000       0.003200
      387.000000       0.003200
      387.100000       0.003200
      387.200000       0.003300
      387.300000       0.003300
      387.400000       0.003300
      387.500000       0.003300
      387.600000       0.003300
      387.700000       0.003300
      387.800000       0.003300
      387.900000       0.003300
      388.000000       0.003300
      388.100000       0.003300
      388.200000       0.003300
      388.300000       0.003300
      388.400000       0.003300
      388.500000       0.003400
      388.600000       0.003400
      388.700000       0.003500
      388.800000       0.003500
      388.900000       0.003500
      389.000000       0.003500
      389.100000       0.003500
      389.200000       0.003500
      389.300000       0.003500
      389.400000       0.003500
      389.500000       0.003600
      389.600000       0.003600
      389.700000       0.003600
      389.800000       0.003600
      389.900000       0.003600
      390.000000       0.003600
      390.100000       0.003600
      390.200000       0.003600
      390.300000       0.003700
      390.400000       0.003700
      390.500000       0.003700
      390.600000       0.003800
      390.700000       0.003800
      390.800000       0.003800
      390.900000       0.003800
      391.000000       0.003800
      391.100000       0.003800
      391.200000       0.003800
      391.300000       0.003900
      391.400000       0.003900
      391.500000       0.003900
      391.600000       0.004000
      391.700000       0.004000
      391.800000       0.004000
      391.900000       0.004100
      392.000000       0.004100
      392.100000       0.004100
      392.200000       0.004200
      392.300000       0.004200
      392.400000       0.004200
      392.500000       0.004200
      392.600000       0.004200
      392.700000       0.004200
      392.800000       0.004200
      392.900000       0.004300
      393.000000       0.004300
      393.100000       0.004300
      393.200000       0.004400
      393.300000       0.004400
      393.400000       0.004400
      393.500000       0.004400
      393.600000       0.004400
      393.700000       0.004400
      393.800000       0.004400
      393.900000       0.004400
      394.000000       0.004400
      394.100000       0.004400
      394.200000       0.004400
      394.300000       0.004400
      394.400000       0.004400
      394.500000       0.004500
      394.600000       0.004500
      394.700000       0.004500
      394.800000       0.004500
      394.900000       0.004500
      395.000000       0.004500
      395.100000       0.004500
      395.200000       0.004500
      395.300000       0.004600
      395.400000       0.004600
      395.500000       0.004700
      395.600000       0.004700
      395.700000       0.004700
      395.800000       0.004700
      395.900000       0.004700
      396.000000       0.004700
      396.100000       0.004700
      396.200000       0.004700
      396.300000       0.004800
      396.400000       0.004800
      396.500000       0.004800
      396.600000       0.004900
      396.700000       0.004900
      396.800000       0.004900
      396.900000       0.004900
      397.000000       0.004900
      397.100000       0.004900
      397.200000       0.004900
      397.300000       0.004900
      397.400000       0.005000
      397.500000       0.005000
      397.600000       0.005100
      397.700000       0.005100
      397.800000       0.005100
      397.900000       0.005200
      398.000000       0.005200
      398.100000       0.005200
      398.200000       0.005300
      398.300000       0.005300
      398.400000       0.005300
      398.500000       0.005400
      398.600000       0.005400
      398.700000       0.005500
      398.800000       0.005500
      398.900000       0.005500
      399.000000       0.005600
      399.100000       0.005600
      399.200000       0.005600
      399.300000       0.005700
      399.400000       0.005700
      399.500000       0.005700
      399.600000       0.005800
      399.700000       0.005800
      399.800000       0.005900
      399.900000       0.005900
      400.000000       0.005900
      400.100000       0.006000
      400.200000       0.006000
      400.300000       0.006000
      400.400000       0.006100
      400.500000       0.006100
      400.600000       0.006100
      400.700000       0.006200
      400.800000       0.006300
      400.900000       0.006300
      401.000000       0.006400
      401.100000       0.006500
      401.200000       0.006500
      401.300000       0.006600
      401.400000       0.006600
      401.500000       0.006700
      401.600000       0.006700
      401.700000       0.006700
      401.800000       0.006800
      401.900000       0.006800
      402.000000       0.006800
      402.100000       0.006900
      402.200000       0.006900
      402.300000       0.006900
      402.400000       0.007000
      402.500000       0.007000
      402.600000       0.007100
      402.700000       0.007100
      402.800000       0.007200
      402.900000       0.007200
      403.000000       0.007300
      403.100000       0.007400
      403.200000       0.007500
      403.300000       0.007500
      403.400000       0.007500
      403.500000       0.007600
      403.600000       0.007600
      403.700000       0.007600
      403.800000       0.007700
      403.900000       0.007700
      404.000000       0.007700
      404.100000       0.007800
      404.200000       0.007800
      404.300000       0.007900
      404.400000       0.007900
      404.500000       0.007900
      404.600000       0.008000
      404.700000       0.008000
      404.800000       0.008000
      404.900000       0.008100
      405.000000       0.008100
      405.100000       0.008100
      405.200000       0.008200
      405.300000       0.008200
      405.400000       0.008300
      405.500000       0.008300
      405.600000       0.008300
      405.700000       0.008400
      405.800000       0.008400
      405.900000       0.008400
      406.000000       0.008500
      406.100000       0.008500
      406.200000       0.008500
      406.300000       0.008600
      406.400000       0.008600
      406.500000       0.008700
      406.600000       0.008700
      406.700000       0.008700
      406.800000       0.008800
      406.900000       0.008900
      407.000000       0.008900
      407.100000       0.009000
      407.200000       0.009100
      407.300000       0.009200
      407.400000       0.009200
      407.500000       0.009300
      407.600000       0.009400
      407.700000       0.009500
      407.800000       0.009500
      407.900000       0.009600
      408.000000       0.009700
      408.100000       0.009700
      408.200000       0.009800
      408.300000       0.009900
      408.400000       0.009900
      408.500000       0.009900
      408.600000       0.010000
      408.700000       0.010000
      408.800000       0.010000
      408.900000       0.010100
      409.000000       0.010100
      409.100000       0.010100
      409.200000       0.010200
      409.300000       0.010300
      409.400000       0.010300
      409.500000       0.010400
      409.600000       0.010500
      409.700000       0.010500
      409.800000       0.010700
      409.900000       0.010800
      410.000000       0.011000
      410.100000       0.011100
      410.200000       0.011300
      410.300000       0.011300
      410.400000       0.011400
      410.500000       0.011500
      410.600000       0.011600
      410.700000       0.011600
      410.800000       0.011700
      410.900000       0.011800
      411.000000       0.011900
      411.100000       0.011900
      411.200000       0.012000
      411.300000       0.012100
      411.400000       0.012300
      411.500000       0.012400
      411.600000       0.012600
      411.700000       0.012700
      411.800000       0.012800
      411.900000       0.012900
      412.000000       0.013100
      412.100000       0.013200
      412.200000       0.013300
      412.300000       0.013400
      412.400000       0.013500
      412.500000       0.013600
      412.600000       0.013700
      412.700000       0.013800
      412.800000       0.014000
      412.900000       0.014300
      413.000000       0.014500
      413.100000       0.014700
      413.200000       0.014900
      413.300000       0.015100
      413.400000       0.015300
      413.500000       0.015600
      413.600000       0.015800
      413.700000       0.016000
      413.800000       0.016200
      413.900000       0.016400
      414.000000       0.016700
      414.100000       0.016900
      414.200000       0.017100
      414.300000       0.017300
      414.400000       0.017500
      414.500000       0.017700
      414.600000       0.018000
      414.700000       0.018200
      414.800000       0.018500
      414.900000       0.018900
      415.000000       0.019300
      415.100000       0.019600
      415.200000       0.020000
      415.300000       0.020200
      415.400000       0.020400
      415.500000       0.020500
      415.600000       0.020700
      415.700000       0.020900
      415.800000       0.021200
      415.900000       0.021400
      416.000000       0.021700
      416.100000       0.021900
      416.200000       0.022200
      416.300000       0.022500
      416.400000       0.022800
      416.500000       0.023100
      416.600000       0.023300
      416.700000       0.023600
      416.800000       0.024400
      416.900000       0.025100
      417.000000       0.025800
      417.100000       0.026500
      417.200000       0.027300
      417.300000       0.027600
      417.400000       0.028000
      417.500000       0.028400
      417.600000       0.028700
      417.700000       0.029100
      417.800000       0.029500
      417.900000       0.029800
      418.000000       0.030200
      418.100000       0.030500
      418.200000       0.030900
      418.300000       0.031300
      418.400000       0.031600
      418.500000       0.032000
      418.600000       0.032400
      418.700000       0.032700
      418.800000       0.033500
      418.900000       0.034200
      419.000000       0.034900
      419.100000       0.035600
      419.200000       0.036400
      419.300000       0.037100
      419.400000       0.037800
      419.500000       0.038500
      419.600000       0.039300
      419.700000       0.040000
      419.800000       0.040400
      419.900000       0.040700
      420.000000       0.041100
      420.100000       0.041500
      420.200000       0.041800
      420.300000       0.042500
      420.400000       0.043300
      420.500000       0.044000
      420.600000       0.044700
      420.700000       0.045500
      420.800000       0.046500
      420.900000       0.047600
      421.000000       0.048700
      421.100000       0.049800
      421.200000       0.050900
      421.300000       0.052000
      421.400000       0.053100
      421.500000       0.054200
      421.600000       0.055300
      421.700000       0.056400
      421.800000       0.057100
      421.900000       0.057800
      422.000000       0.058500
      422.100000       0.059300
      422.200000       0.060000
      422.300000       0.061100
      422.400000       0.062200
      422.500000       0.063300
      422.600000       0.064400
      422.700000       0.065500
      422.800000       0.067300
      422.900000       0.069100
      423.000000       0.070900
      423.100000       0.072700
      423.200000       0.074500
      423.300000       0.075600
      423.400000       0.076700
      423.500000       0.077800
      423.600000       0.078900
      423.700000       0.080000
      423.800000       0.081100
      423.900000       0.082200
      424.000000       0.083300
      424.100000       0.084400
      424.200000       0.085500
      424.300000       0.086500
      424.400000       0.087600
      424.500000       0.088700
      424.600000       0.089800
      424.700000       0.090900
      424.800000       0.092700
      424.900000       0.094500
      425.000000       0.096400
      425.100000       0.098200
      425.200000       0.100000
      425.300000       0.102500
      425.400000       0.105100
      425.500000       0.107600
      425.600000       0.110200
      425.700000       0.112700
      425.800000       0.114900
      425.900000       0.117100
      426.000000       0.119300
      426.100000       0.121500
      426.200000       0.123600
      426.300000       0.126200
      426.400000       0.128700
      426.500000       0.131300
      426.600000       0.133800
      426.700000       0.136400
      426.800000       0.140000
      426.900000       0.143600
      427.000000       0.147300
      427.100000       0.150900
      427.200000       0.154500
      427.300000       0.157800
      427.400000       0.161100
      427.500000       0.164400
      427.600000       0.167600
      427.700000       0.170900
      427.800000       0.174200
      427.900000       0.177500
      428.000000       0.180700
      428.100000       0.184000
      428.200000       0.187300
      428.300000       0.190900
      428.400000       0.194500
      428.500000       0.198200
      428.600000       0.201800
      428.700000       0.205500
      428.800000       0.209500
      428.900000       0.213500
      429.000000       0.217500
      429.100000       0.221500
      429.200000       0.225500
      429.300000       0.229500
      429.400000       0.233500
      429.500000       0.237500
      429.600000       0.241500
      429.700000       0.245500
      429.800000       0.247300
      429.900000       0.249100
      430.000000       0.250900
      430.100000       0.252700
      430.200000       0.254500
      430.300000       0.262500
      430.400000       0.270500
      430.500000       0.278500
      430.600000       0.286500
      430.700000       0.294500
      430.800000       0.299300
      430.900000       0.304000
      431.000000       0.308700
      431.100000       0.313500
      431.200000       0.318200
      431.300000       0.324400
      431.400000       0.330500
      431.500000       0.336700
      431.600000       0.342900
      431.700000       0.349100
      431.800000       0.356400
      431.900000       0.363600
      432.000000       0.370900
      432.100000       0.378200
      432.200000       0.385500
      432.300000       0.392700
      432.400000       0.400000
      432.500000       0.407300
      432.600000       0.414500
      432.700000       0.421800
      432.800000       0.428700
      432.900000       0.435600
      433.000000       0.442500
      433.100000       0.449500
      433.200000       0.456400
      433.300000       0.465500
      433.400000       0.474500
      433.500000       0.483600
      433.600000       0.492700
      433.700000       0.501800
      433.800000       0.511600
      433.900000       0.521500
      434.000000       0.531300
      434.100000       0.541100
      434.200000       0.550900
      434.300000       0.558900
      434.400000       0.566900
      434.500000       0.574900
      434.600000       0.582900
      434.700000       0.590900
      434.800000       0.598200
      434.900000       0.605500
      435.000000       0.612700
      435.100000       0.620000
      435.200000       0.627300
      435.300000       0.636400
      435.400000       0.645500
      435.500000       0.654500
      435.600000       0.663600
      435.700000       0.672700
      435.800000       0.681800
      435.900000       0.690900
      436.000000       0.700000
      436.100000       0.709100
      436.200000       0.718200
      436.300000       0.725500
      436.400000       0.732700
      436.500000       0.740000
      436.600000       0.747300
      436.700000       0.754500
      436.800000       0.762200
      436.900000       0.769800
      437.000000       0.777500
      437.100000       0.785100
      437.200000       0.792700
      437.300000       0.800400
      437.400000       0.808000
      437.500000       0.815600
      437.600000       0.823300
      437.700000       0.830900
      437.800000       0.837100
      437.900000       0.843300
      438.000000       0.849500
      438.100000       0.855600
      438.200000       0.861800
      438.300000       0.868400
      438.400000       0.874900
      438.500000       0.881500
      438.600000       0.888000
      438.700000       0.894500
      438.800000       0.899300
      438.900000       0.904000
      439.000000       0.908700
      439.100000       0.913500
      439.200000       0.918200
      439.300000       0.921800
      439.400000       0.925500
      439.500000       0.929100
      439.600000       0.932700
      439.700000       0.936400
      439.800000       0.940400
      439.900000       0.944400
      440.000000       0.948400
      440.100000       0.952400
      440.200000       0.956400
      440.300000       0.958900
      440.400000       0.961500
      440.500000       0.964000
      440.600000       0.966500
      440.700000       0.969100
      440.800000       0.971600
      440.900000       0.974200
      441.000000       0.976700
      441.100000       0.979300
      441.200000       0.981800
      441.300000       0.982500
      441.400000       0.983300
      441.500000       0.984000
      441.600000       0.984700
      441.700000       0.985500
      441.800000       0.987300
      441.900000       0.989100
      442.000000       0.990900
      442.100000       0.992700
      442.200000       0.994500
      442.300000       0.995600
      442.400000       0.996700
      442.500000       0.997800
      442.600000       0.998900
      442.700000       1.000000
      442.800000       0.999600
      442.900000       0.999300
      443.000000       0.998900
      443.100000       0.998500
      443.200000       0.998200
      443.300000       0.997500
      443.400000       0.996700
      443.500000       0.996000
      443.600000       0.995300
      443.700000       0.994500
      443.800000       0.993800
      443.900000       0.993100
      444.000000       0.992400
      444.100000       0.991600
      444.200000       0.990900
      444.300000       0.988700
      444.400000       0.986500
      444.500000       0.984400
      444.600000       0.982200
      444.700000       0.980000
      444.800000       0.977800
      444.900000       0.975600
      445.000000       0.973500
      445.100000       0.971300
      445.200000       0.969100
      445.300000       0.966200
      445.400000       0.963300
      445.500000       0.960400
      445.600000       0.957500
      445.700000       0.954500
      445.800000       0.951300
      445.900000       0.948000
      446.000000       0.944700
      446.100000       0.941500
      446.200000       0.938200
      446.300000       0.933500
      446.400000       0.928700
      446.500000       0.924000
      446.600000       0.919300
      446.700000       0.914500
      446.800000       0.909100
      446.900000       0.903600
      447.000000       0.898200
      447.100000       0.892700
      447.200000       0.887300
      447.300000       0.882500
      447.400000       0.877800
      447.500000       0.873100
      447.600000       0.868400
      447.700000       0.863600
      447.800000       0.858200
      447.900000       0.852700
      448.000000       0.847300
      448.100000       0.841800
      448.200000       0.836400
      448.300000       0.830200
      448.400000       0.824000
      448.500000       0.817800
      448.600000       0.811600
      448.700000       0.805500
      448.800000       0.797800
      448.900000       0.790200
      449.000000       0.782500
      449.100000       0.774900
      449.200000       0.767300
      449.300000       0.760700
      449.400000       0.754200
      449.500000       0.747600
      449.600000       0.741100
      449.700000       0.734500
      449.800000       0.727600
      449.900000       0.720700
      450.000000       0.713800
      450.100000       0.706900
      450.200000       0.700000
      450.300000       0.693100
      450.400000       0.686200
      450.500000       0.679300
      450.600000       0.672400
      450.700000       0.665500
      450.800000       0.657800
      450.900000       0.650200
      451.000000       0.642500
      451.100000       0.634900
      451.200000       0.627300
      451.300000       0.620400
      451.400000       0.613500
      451.500000       0.606500
      451.600000       0.599600
      451.700000       0.592700
      451.800000       0.584700
      451.900000       0.576700
      452.000000       0.568700
      452.100000       0.560700
      452.200000       0.552700
      452.300000       0.544000
      452.400000       0.535300
      452.500000       0.526500
      452.600000       0.517800
      452.700000       0.509100
      452.800000       0.501100
      452.900000       0.493100
      453.000000       0.485100
      453.100000       0.477100
      453.200000       0.469100
      453.300000       0.462900
      453.400000       0.456700
      453.500000       0.450500
      453.600000       0.444400
      453.700000       0.438200
      453.800000       0.432000
      453.900000       0.425800
      454.000000       0.419600
      454.100000       0.413500
      454.200000       0.407300
      454.300000       0.401100
      454.400000       0.394900
      454.500000       0.388700
      454.600000       0.382500
      454.700000       0.376400
      454.800000       0.370200
      454.900000       0.364000
      455.000000       0.357800
      455.100000       0.351600
      455.200000       0.345500
      455.300000       0.340000
      455.400000       0.334500
      455.500000       0.329100
      455.600000       0.323600
      455.700000       0.318200
      455.800000       0.311600
      455.900000       0.305100
      456.000000       0.298500
      456.100000       0.292000
      456.200000       0.285500
      456.300000       0.280700
      456.400000       0.276000
      456.500000       0.271300
      456.600000       0.266500
      456.700000       0.261800
      456.800000       0.257100
      456.900000       0.252400
      457.000000       0.247600
      457.100000       0.242900
      457.200000       0.238200
      457.300000       0.234900
      457.400000       0.231600
      457.500000       0.228400
      457.600000       0.225100
      457.700000       0.221800
      457.800000       0.217500
      457.900000       0.213100
      458.000000       0.208700
      458.100000       0.204400
      458.200000       0.200000
      458.300000       0.196400
      458.400000       0.192700
      458.500000       0.189100
      458.600000       0.185500
      458.700000       0.181800
      458.800000       0.179300
      458.900000       0.176700
      459.000000       0.174200
      459.100000       0.171600
      459.200000       0.169100
      459.300000       0.165800
      459.400000       0.162500
      459.500000       0.159300
      459.600000       0.156000
      459.700000       0.152700
      459.800000       0.150200
      459.900000       0.147600
      460.000000       0.145100
      460.100000       0.142500
      460.200000       0.140000
      460.300000       0.137500
      460.400000       0.134900
      460.500000       0.132400
      460.600000       0.129800
      460.700000       0.127300
      460.800000       0.125100
      460.900000       0.122900
      461.000000       0.120700
      461.100000       0.118500
      461.200000       0.116400
      461.300000       0.114200
      461.400000       0.112000
      461.500000       0.109800
      461.600000       0.107600
      461.700000       0.105500
      461.800000       0.103600
      461.900000       0.101800
      462.000000       0.100000
      462.100000       0.098200
      462.200000       0.096400
      462.300000       0.094500
      462.400000       0.092700
      462.500000       0.090900
      462.600000       0.089100
      462.700000       0.087300
      462.800000       0.085800
      462.900000       0.084400
      463.000000       0.082900
      463.100000       0.081500
      463.200000       0.080000
      463.300000       0.078500
      463.400000       0.077100
      463.500000       0.075600
      463.600000       0.074200
      463.700000       0.072700
      463.800000       0.071600
      463.900000       0.070500
      464.000000       0.069500
      464.100000       0.068400
      464.200000       0.067300
      464.300000       0.066200
      464.400000       0.065100
      464.500000       0.064000
      464.600000       0.062900
      464.700000       0.061800
      464.800000       0.060700
      464.900000       0.059600
      465.000000       0.058500
      465.100000       0.057500
      465.200000       0.056400
      465.300000       0.055600
      465.400000       0.054900
      465.500000       0.054200
      465.600000       0.053500
      465.700000       0.052700
      465.800000       0.052000
      465.900000       0.051300
      466.000000       0.050500
      466.100000       0.049800
      466.200000       0.049100
      466.300000       0.048400
      466.400000       0.047600
      466.500000       0.046900
      466.600000       0.046200
      466.700000       0.045500
      466.800000       0.044700
      466.900000       0.044000
      467.000000       0.043300
      467.100000       0.042500
      467.200000       0.041800
      467.300000       0.041100
      467.400000       0.040400
      467.500000       0.039600
      467.600000       0.038900
      467.700000       0.038200
      467.800000       0.037800
      467.900000       0.037500
      468.000000       0.037100
      468.100000       0.036700
      468.200000       0.036400
      468.300000       0.036000
      468.400000       0.035600
      468.500000       0.035300
      468.600000       0.034900
      468.700000       0.034500
      468.800000       0.033800
      468.900000       0.033100
      469.000000       0.032400
      469.100000       0.031600
      469.200000       0.030900
      469.300000       0.030500
      469.400000       0.030200
      469.500000       0.029800
      469.600000       0.029500
      469.700000       0.029100
      469.800000       0.028700
      469.900000       0.028400
      470.000000       0.028000
      470.100000       0.027600
      470.200000       0.027300
      470.300000       0.026900
      470.400000       0.026500
      470.500000       0.026200
      470.600000       0.025800
      470.700000       0.025500
      470.800000       0.025100
      470.900000       0.024700
      471.000000       0.024400
      471.100000       0.024000
      471.200000       0.023600
      471.300000       0.023300
      471.400000       0.022900
      471.500000       0.022500
      471.600000       0.022200
      471.700000       0.021800
      471.800000       0.021500
      471.900000       0.021100
      472.000000       0.020700
      472.100000       0.020400
      472.200000       0.020000
      472.300000       0.020000
      472.400000       0.020000
      472.500000       0.020000
      472.600000       0.020000
      472.700000       0.020000
      472.800000       0.019600
      472.900000       0.019100
      473.000000       0.018700
      473.100000       0.018300
      473.200000       0.017800
      473.300000       0.017600
      473.400000       0.017500
      473.500000       0.017300
      473.600000       0.017100
      473.700000       0.016900
      473.800000       0.016700
      473.900000       0.016500
      474.000000       0.016300
      474.100000       0.016000
      474.200000       0.015800
      474.300000       0.015600
      474.400000       0.015500
      474.500000       0.015300
      474.600000       0.015100
      474.700000       0.014900
      474.800000       0.014800
      474.900000       0.014600
      475.000000       0.014500
      475.100000       0.014300
      475.200000       0.014200
      475.300000       0.014000
      475.400000       0.013900
      475.500000       0.013700
      475.600000       0.013600
      475.700000       0.013500
      475.800000       0.013300
      475.900000       0.013200
      476.000000       0.013000
      476.100000       0.012900
      476.200000       0.012700
      476.300000       0.012700
      476.400000       0.012600
      476.500000       0.012500
      476.600000       0.012400
      476.700000       0.012400
      476.800000       0.012200
      476.900000       0.012100
      477.000000       0.011900
      477.100000       0.011800
      477.200000       0.011600
      477.300000       0.011600
      477.400000       0.011500
      477.500000       0.011400
      477.600000       0.011300
      477.700000       0.011300
      477.800000       0.011200
      477.900000       0.011100
      478.000000       0.010900
      478.100000       0.010800
      478.200000       0.010700
      478.300000       0.010600
      478.400000       0.010400
      478.500000       0.010300
      478.600000       0.010100
      478.700000       0.010000
      478.800000       0.009900
      478.900000       0.009800
      479.000000       0.009700
      479.100000       0.009600
      479.200000       0.009500
      479.300000       0.009400
      479.400000       0.009300
      479.500000       0.009200
      479.600000       0.009200
      479.700000       0.009100
      479.800000       0.009000
      479.900000       0.008900
      480.000000       0.008900
      480.100000       0.008800
      480.200000       0.008700
      480.300000       0.008700
      480.400000       0.008600
      480.500000       0.008500
      480.600000       0.008400
      480.700000       0.008400
      480.800000       0.008300
      480.900000       0.008100
      481.000000       0.008000
      481.100000       0.007900
      481.200000       0.007800
      481.300000       0.007700
      481.400000       0.007700
      481.500000       0.007600
      481.600000       0.007500
      481.700000       0.007500
      481.800000       0.007400
      481.900000       0.007300
      482.000000       0.007200
      482.100000       0.007200
      482.200000       0.007100
      482.300000       0.007000
      482.400000       0.006900
      482.500000       0.006900
      482.600000       0.006800
      482.700000       0.006700
      482.800000       0.006700
      482.900000       0.006700
      483.000000       0.006600
      483.100000       0.006600
      483.200000       0.006500
      483.300000       0.006500
      483.400000       0.006400
      483.500000       0.006300
      483.600000       0.006300
      483.700000       0.006200
      483.800000       0.006100
      483.900000       0.006100
      484.000000       0.006100
      484.100000       0.006000
      484.200000       0.006000
      484.300000       0.006000
      484.400000       0.005900
      484.500000       0.005900
      484.600000       0.005900
      484.700000       0.005800
      484.800000       0.005800
      484.900000       0.005700
      485.000000       0.005700
      485.100000       0.005700
      485.200000       0.005600
      485.300000       0.005600
      485.400000       0.005600
      485.500000       0.005500
      485.600000       0.005500
      485.700000       0.005500
      485.800000       0.005500
      485.900000       0.005500
      486.000000       0.005500
      486.100000       0.005500
      486.200000       0.005500
      486.300000       0.005400
      486.400000       0.005400
      486.500000       0.005300
      486.600000       0.005300
      486.700000       0.005300
      486.800000       0.005300
      486.900000       0.005300
      487.000000       0.005300
      487.100000       0.005300
      487.200000       0.005300
      487.300000       0.005200
      487.400000       0.005200
      487.500000       0.005200
      487.600000       0.005100
      487.700000       0.005100
      487.800000       0.005100
      487.900000       0.005100
      488.000000       0.005100
      488.100000       0.005100
      488.200000       0.005100
      488.300000       0.005100
      488.400000       0.005100
      488.500000       0.005100
      488.600000       0.005100
      488.700000       0.005100
      488.800000       0.005100
      488.900000       0.005000
      489.000000       0.005000
      489.100000       0.004900
      489.200000       0.004900
      489.300000       0.004900
      489.400000       0.004900
      489.500000       0.004900
      489.600000       0.004900
      489.700000       0.004900
      489.800000       0.004900
      489.900000       0.004900
      490.000000       0.004900
      490.100000       0.004900
      490.200000       0.004900
      490.300000       0.004900
      490.400000       0.004900
      490.500000       0.004900
      490.600000       0.004900
      490.700000       0.004900
      490.800000       0.004900
      490.900000       0.004900
      491.000000       0.004900
      491.100000       0.004900
      491.200000       0.004900
      491.300000       0.004900
      491.400000       0.004900
      491.500000       0.004900
      491.600000       0.004900
      491.700000       0.004900
      491.800000       0.004900
      491.900000       0.004800
      492.000000       0.004800
      492.100000       0.004800
      492.200000       0.004700
      492.300000       0.004700
      492.400000       0.004700
      492.500000       0.004700
      492.600000       0.004700
      492.700000       0.004700
      492.800000       0.004700
      492.900000       0.004700
      493.000000       0.004700
      493.100000       0.004700
      493.200000       0.004700
      493.300000       0.004700
      493.400000       0.004700
      493.500000       0.004600
      493.600000       0.004600
      493.700000       0.004500
      493.800000       0.004500
      493.900000       0.004500
      494.000000       0.004500
      494.100000       0.004500
      494.200000       0.004500
      494.300000       0.004500
      494.400000       0.004500
      494.500000       0.004500
      494.600000       0.004500
      494.700000       0.004500
      494.800000       0.004500
      494.900000       0.004500
      495.000000       0.004500
      495.100000       0.004500
      495.200000       0.004500
      495.300000       0.004500
      495.400000       0.004500
      495.500000       0.004500
      495.600000       0.004500
      495.700000       0.004500
      495.800000       0.004500
      495.900000       0.004500
      496.000000       0.004500
      496.100000       0.004500
      496.200000       0.004500
      496.300000       0.004600
      496.400000       0.004600
      496.500000       0.004700
      496.600000       0.004700
      496.700000       0.004700
      496.800000       0.004700
      496.900000       0.004700
      497.000000       0.004700
      497.100000       0.004700
      497.200000       0.004700
      497.300000       0.004700
      497.400000       0.004700
      497.500000       0.004700
      497.600000       0.004700
      497.700000       0.004700
      497.800000       0.004700
      497.900000       0.004700
      498.000000       0.004700
      498.100000       0.004700
      498.200000       0.004700
      498.300000       0.004700
      498.400000       0.004700
      498.500000       0.004700
      498.600000       0.004700
      498.700000       0.004700
      498.800000       0.004800
      498.900000       0.004800
      499.000000       0.004800
      499.100000       0.004900
      499.200000       0.004900
      499.300000       0.004900
      499.400000       0.004900
      499.500000       0.004900
      499.600000       0.004900
      499.700000       0.004900
      499.800000       0.004900
      499.900000       0.004900
      500.000000       0.004900
      500.100000       0.004900
      500.200000       0.004900
      500.300000       0.004900
      500.400000       0.005000
      500.500000       0.005000
      500.600000       0.005100
      500.700000       0.005100
      500.800000       0.005100
      500.900000       0.005100
      501.000000       0.005100
      501.100000       0.005100
      501.200000       0.005100
      501.300000       0.005100
      501.400000       0.005200
      501.500000       0.005200
      501.600000       0.005200
      501.700000       0.005300
