11,   channel 11 SRF from file SRF_SSH-1_Delivery_220520/SRF_DMSP-F3_SSH_Chan11.asc received June 2022 from SPASCIA
Number of data points:
290
Wavenumber (cm-1)   Filter response
      679.500000       0.000970
      679.600000       0.001070
      679.700000       0.001180
      679.800000       0.001300
      679.900000       0.001420
      680.000000       0.001560
      680.100000       0.001710
      680.200000       0.001880
      680.300000       0.002060
      680.400000       0.002250
      680.500000       0.002470
      680.600000       0.002700
      680.700000       0.002950
      680.800000       0.003220
      680.900000       0.003510
      681.000000       0.003830
      681.100000       0.004170
      681.200000       0.004540
      681.300000       0.004940
      681.400000       0.005370
      681.500000       0.005840
      681.600000       0.006340
      681.700000       0.006880
      681.800000       0.007460
      681.900000       0.008090
      682.000000       0.008760
      682.100000       0.009480
      682.200000       0.010250
      682.300000       0.011080
      682.400000       0.011970
      682.500000       0.012930
      682.600000       0.013940
      682.700000       0.015030
      682.800000       0.016190
      682.900000       0.017440
      683.000000       0.018760
      683.100000       0.020170
      683.200000       0.021670
      683.300000       0.023270
      683.400000       0.024970
      683.500000       0.026770
      683.600000       0.028690
      683.700000       0.030720
      683.800000       0.032880
      683.900000       0.035160
      684.000000       0.037580
      684.100000       0.040140
      684.200000       0.042840
      684.300000       0.045690
      684.400000       0.048710
      684.500000       0.051880
      684.600000       0.055230
      684.700000       0.058750
      684.800000       0.062450
      684.900000       0.066350
      685.000000       0.070440
      685.100000       0.074730
      685.200000       0.079230
      685.300000       0.083950
      685.400000       0.088880
      685.500000       0.094050
      685.600000       0.099450
      685.700000       0.109920
      685.800000       0.121360
      685.900000       0.133250
      686.000000       0.145580
      686.100000       0.158350
      686.200000       0.171550
      686.300000       0.185170
      686.400000       0.199210
      686.500000       0.213660
      686.600000       0.228500
      686.700000       0.243720
      686.800000       0.259310
      686.900000       0.275260
      687.000000       0.291540
      687.100000       0.308140
      687.200000       0.325050
      687.300000       0.342230
      687.400000       0.359680
      687.500000       0.377360
      687.600000       0.395250
      687.700000       0.413330
      687.800000       0.431570
      687.900000       0.449940
      688.000000       0.468420
      688.100000       0.486980
      688.200000       0.503620
      688.300000       0.515740
      688.400000       0.527920
      688.500000       0.540170
      688.600000       0.552470
      688.700000       0.564820
      688.800000       0.577190
      688.900000       0.589590
      689.000000       0.602010
      689.100000       0.614430
      689.200000       0.626840
      689.300000       0.639240
      689.400000       0.651600
      689.500000       0.663930
      689.600000       0.676210
      689.700000       0.688430
      689.800000       0.700570
      689.900000       0.712630
      690.000000       0.724590
      690.100000       0.736440
      690.200000       0.748170
      690.300000       0.759780
      690.400000       0.771240
      690.500000       0.782540
      690.600000       0.793670
      690.700000       0.804630
      690.800000       0.815400
      690.900000       0.825960
      691.000000       0.836310
      691.100000       0.846440
      691.200000       0.856320
      691.300000       0.865970
      691.400000       0.875350
      691.500000       0.884460
      691.600000       0.893290
      691.700000       0.901840
      691.800000       0.910080
      691.900000       0.918010
      692.000000       0.925630
      692.100000       0.932910
      692.200000       0.939860
      692.300000       0.946470
      692.400000       0.952720
      692.500000       0.958610
      692.600000       0.964130
      692.700000       0.969280
      692.800000       0.974040
      692.900000       0.978420
      693.000000       0.982410
      693.100000       0.986000
      693.200000       0.989190
      693.300000       0.991970
      693.400000       0.994350
      693.500000       0.996310
      693.600000       0.997860
      693.700000       0.998990
      693.800000       0.999700
      693.900000       0.999990
      694.000000       0.999870
      694.100000       0.999320
      694.200000       0.998360
      694.300000       0.996980
      694.400000       0.995180
      694.500000       0.992970
      694.600000       0.990350
      694.700000       0.987330
      694.800000       0.983900
      694.900000       0.980070
      695.000000       0.975840
      695.100000       0.971230
      695.200000       0.966230
      695.300000       0.960860
      695.400000       0.955120
      695.500000       0.949010
      695.600000       0.942550
      695.700000       0.935730
      695.800000       0.928580
      695.900000       0.921100
      696.000000       0.913290
      696.100000       0.905170
      696.200000       0.896750
      696.300000       0.888030
      696.400000       0.879030
      696.500000       0.869750
      696.600000       0.860210
      696.700000       0.850420
      696.800000       0.840390
      696.900000       0.830130
      697.000000       0.819650
      697.100000       0.808960
      697.200000       0.798080
      697.300000       0.787010
      697.400000       0.775780
      697.500000       0.764380
      697.600000       0.752830
      697.700000       0.741150
      697.800000       0.729340
      697.900000       0.717420
      698.000000       0.705400
      698.100000       0.693290
      698.200000       0.681100
      698.300000       0.668850
      698.400000       0.656540
      698.500000       0.644190
      698.600000       0.631800
      698.700000       0.619400
      698.800000       0.606980
      698.900000       0.594560
      699.000000       0.582150
      699.100000       0.569760
      699.200000       0.557400
      699.300000       0.545090
      699.400000       0.532820
      699.500000       0.520600
      699.600000       0.508460
      699.700000       0.494420
      699.800000       0.475840
      699.900000       0.457320
      700.000000       0.438900
      700.100000       0.420600
      700.200000       0.402460
      700.300000       0.384490
      700.400000       0.366720
      700.500000       0.349180
      700.600000       0.331890
      700.700000       0.314870
      700.800000       0.298150
      700.900000       0.281730
      701.000000       0.265650
      701.100000       0.249910
      701.200000       0.234540
      701.300000       0.219550
      701.400000       0.204940
      701.500000       0.190740
      701.600000       0.176950
      701.700000       0.163580
      701.800000       0.150640
      701.900000       0.138130
      702.000000       0.126070
      702.100000       0.114440
      702.200000       0.103270
      702.300000       0.096180
      702.400000       0.090920
      702.500000       0.085890
      702.600000       0.081090
      702.700000       0.076500
      702.800000       0.072130
      702.900000       0.067960
      703.000000       0.063990
      703.100000       0.060210
      703.200000       0.056610
      703.300000       0.053200
      703.400000       0.049960
      703.500000       0.046880
      703.600000       0.043960
      703.700000       0.041200
      703.800000       0.038590
      703.900000       0.036120
      704.000000       0.033780
      704.100000       0.031570
      704.200000       0.029490
      704.300000       0.027530
      704.400000       0.025680
      704.500000       0.023940
      704.600000       0.022300
      704.700000       0.020760
      704.800000       0.019310
      704.900000       0.017950
      705.000000       0.016680
      705.100000       0.015490
      705.200000       0.014370
      705.300000       0.013320
      705.400000       0.012350
      705.500000       0.011430
      705.600000       0.010580
      705.700000       0.009780
      705.800000       0.009040
      705.900000       0.008350
      706.000000       0.007710
      706.100000       0.007110
      706.200000       0.006550
      706.300000       0.006030
      706.400000       0.005550
      706.500000       0.005110
      706.600000       0.004700
      706.700000       0.004310
      706.800000       0.003960
      706.900000       0.003630
      707.000000       0.003330
      707.100000       0.003050
      707.200000       0.002790
      707.300000       0.002560
      707.400000       0.002340
      707.500000       0.002140
      707.600000       0.001950
      707.700000       0.001780
      707.800000       0.001620
      707.900000       0.001480
      708.000000       0.001350
      708.100000       0.001230
      708.200000       0.001110
      708.300000       0.001010
      708.400000       0.000920
