11,   channel 11 SRF from file SRF_SSH-1_Delivery_220520/SRF_DMSP-F4_SSH_Chan11.asc received June 2022 from SPASCIA
Number of data points:
284
Wavenumber (cm-1)   Filter response
      679.800000       0.000970
      679.900000       0.001070
      680.000000       0.001180
      680.100000       0.001300
      680.200000       0.001430
      680.300000       0.001570
      680.400000       0.001730
      680.500000       0.001900
      680.600000       0.002080
      680.700000       0.002280
      680.800000       0.002500
      680.900000       0.002740
      681.000000       0.003000
      681.100000       0.003280
      681.200000       0.003580
      681.300000       0.003910
      681.400000       0.004270
      681.500000       0.004660
      681.600000       0.005080
      681.700000       0.005530
      681.800000       0.006020
      681.900000       0.006540
      682.000000       0.007110
      682.100000       0.007720
      682.200000       0.008380
      682.300000       0.009090
      682.400000       0.009850
      682.500000       0.010670
      682.600000       0.011550
      682.700000       0.012490
      682.800000       0.013500
      682.900000       0.014580
      683.000000       0.015740
      683.100000       0.016980
      683.200000       0.018300
      683.300000       0.019710
      683.400000       0.021210
      683.500000       0.022810
      683.600000       0.024520
      683.700000       0.026340
      683.800000       0.028270
      683.900000       0.030320
      684.000000       0.032500
      684.100000       0.034810
      684.200000       0.037250
      684.300000       0.039850
      684.400000       0.042590
      684.500000       0.045490
      684.600000       0.048560
      684.700000       0.051790
      684.800000       0.055200
      684.900000       0.058800
      685.000000       0.062590
      685.100000       0.066570
      685.200000       0.070760
      685.300000       0.075160
      685.400000       0.079780
      685.500000       0.084620
      685.600000       0.089700
      685.700000       0.095010
      685.800000       0.101170
      685.900000       0.113100
      686.000000       0.125500
      686.100000       0.138390
      686.200000       0.151750
      686.300000       0.165570
      686.400000       0.179850
      686.500000       0.194570
      686.600000       0.209740
      686.700000       0.225330
      686.800000       0.241320
      686.900000       0.257720
      687.000000       0.274490
      687.100000       0.291620
      687.200000       0.309090
      687.300000       0.326880
      687.400000       0.344970
      687.500000       0.363320
      687.600000       0.381920
      687.700000       0.400740
      687.800000       0.419750
      687.900000       0.438910
      688.000000       0.458210
      688.100000       0.477610
      688.200000       0.497080
      688.300000       0.510340
      688.400000       0.522570
      688.500000       0.534870
      688.600000       0.547220
      688.700000       0.559620
      688.800000       0.572060
      688.900000       0.584530
      689.000000       0.597020
      689.100000       0.609510
      689.200000       0.622010
      689.300000       0.634490
      689.400000       0.646940
      689.500000       0.659360
      689.600000       0.671730
      689.700000       0.684050
      689.800000       0.696290
      689.900000       0.708450
      690.000000       0.720520
      690.100000       0.732490
      690.200000       0.744330
      690.300000       0.756050
      690.400000       0.767630
      690.500000       0.779050
      690.600000       0.790310
      690.700000       0.801390
      690.800000       0.812280
      690.900000       0.822970
      691.000000       0.833440
      691.100000       0.843690
      691.200000       0.853710
      691.300000       0.863470
      691.400000       0.872980
      691.500000       0.882220
      691.600000       0.891180
      691.700000       0.899840
      691.800000       0.908210
      691.900000       0.916260
      692.000000       0.923990
      692.100000       0.931400
      692.200000       0.938460
      692.300000       0.945170
      692.400000       0.951530
      692.500000       0.957530
      692.600000       0.963160
      692.700000       0.968400
      692.800000       0.973270
      692.900000       0.977740
      693.000000       0.981810
      693.100000       0.985490
      693.200000       0.988750
      693.300000       0.991610
      693.400000       0.994060
      693.500000       0.996080
      693.600000       0.997690
      693.700000       0.998880
      693.800000       0.999640
      693.900000       0.999980
      694.000000       0.999900
      694.100000       0.999390
      694.200000       0.998450
      694.300000       0.997100
      694.400000       0.995320
      694.500000       0.993130
      694.600000       0.990520
      694.700000       0.987500
      694.800000       0.984070
      694.900000       0.980230
      695.000000       0.976000
      695.100000       0.971370
      695.200000       0.966350
      695.300000       0.960950
      695.400000       0.955180
      695.500000       0.949030
      695.600000       0.942530
      695.700000       0.935670
      695.800000       0.928470
      695.900000       0.920940
      696.000000       0.913080
      696.100000       0.904900
      696.200000       0.896410
      696.300000       0.887630
      696.400000       0.878560
      696.500000       0.869210
      696.600000       0.859600
      696.700000       0.849730
      696.800000       0.839620
      696.900000       0.829280
      697.000000       0.818720
      697.100000       0.807950
      697.200000       0.796980
      697.300000       0.785830
      697.400000       0.774500
      697.500000       0.763020
      697.600000       0.751380
      697.700000       0.739610
      697.800000       0.727720
      697.900000       0.715710
      698.000000       0.703600
      698.100000       0.691400
      698.200000       0.679130
      698.300000       0.666790
      698.400000       0.654400
      698.500000       0.641960
      698.600000       0.629500
      698.700000       0.617010
      698.800000       0.604520
      698.900000       0.592020
      699.000000       0.579540
      699.100000       0.567080
      699.200000       0.554660
      699.300000       0.542270
      699.400000       0.529940
      699.500000       0.517670
      699.600000       0.505470
      699.700000       0.489280
      699.800000       0.469840
      699.900000       0.450480
      700.000000       0.431230
      700.100000       0.412120
      700.200000       0.393190
      700.300000       0.374450
      700.400000       0.355950
      700.500000       0.337700
      700.600000       0.319730
      700.700000       0.302060
      700.800000       0.284730
      700.900000       0.267740
      701.000000       0.251110
      701.100000       0.234880
      701.200000       0.219040
      701.300000       0.203620
      701.400000       0.188630
      701.500000       0.174080
      701.600000       0.159980
      701.700000       0.146350
      701.800000       0.133180
      701.900000       0.120480
      702.000000       0.108270
      702.100000       0.098310
      702.200000       0.092850
      702.300000       0.087640
      702.400000       0.082660
      702.500000       0.077900
      702.600000       0.073370
      702.700000       0.069060
      702.800000       0.064950
      702.900000       0.061050
      703.000000       0.057340
      703.100000       0.053820
      703.200000       0.050480
      703.300000       0.047310
      703.400000       0.044310
      703.500000       0.041480
      703.600000       0.038790
      703.700000       0.036260
      703.800000       0.033870
      703.900000       0.031610
      704.000000       0.029480
      704.100000       0.027480
      704.200000       0.025600
      704.300000       0.023830
      704.400000       0.022160
      704.500000       0.020600
      704.600000       0.019130
      704.700000       0.017760
      704.800000       0.016470
      704.900000       0.015270
      705.000000       0.014140
      705.100000       0.013090
      705.200000       0.012110
      705.300000       0.011190
      705.400000       0.010340
      705.500000       0.009540
      705.600000       0.008800
      705.700000       0.008110
      705.800000       0.007470
      705.900000       0.006880
      706.000000       0.006330
      706.100000       0.005820
      706.200000       0.005340
      706.300000       0.004910
      706.400000       0.004500
      706.500000       0.004120
      706.600000       0.003780
      706.700000       0.003460
      706.800000       0.003160
      706.900000       0.002890
      707.000000       0.002640
      707.100000       0.002410
      707.200000       0.002200
      707.300000       0.002010
      707.400000       0.001830
      707.500000       0.001660
      707.600000       0.001510
      707.700000       0.001380
      707.800000       0.001250
      707.900000       0.001130
      708.000000       0.001030
      708.100000       0.000930
