145,   145, MVIRI VIS channel from srf_MET7_2015258_2015259_1801-Release_S10EE_10.dat
Number of data points:
793
Wavenumber (cm-1)   Filter response
     8442.380800       0.000000
     8449.514200       0.000000
     8456.659600       0.000004
     8463.817200       0.000057
     8470.986900       0.000169
     8478.168700       0.000338
     8485.362700       0.000562
     8492.569000       0.000840
     8499.787500       0.001170
     8507.018300       0.001551
     8514.261400       0.001981
     8521.516800       0.002459
     8528.784600       0.002984
     8536.064900       0.003554
     8543.357500       0.004167
     8550.662700       0.004824
     8557.980300       0.005521
     8565.310500       0.006259
     8572.653200       0.007037
     8580.008600       0.007853
     8587.376600       0.008706
     8594.757200       0.009595
     8602.150500       0.010519
     8609.556600       0.011478
     8616.975400       0.012471
     8624.407100       0.013496
     8631.851500       0.014554
     8639.308900       0.015643
     8646.779100       0.016762
     8654.262200       0.017911
     8661.758300       0.019090
     8669.267400       0.020297
     8676.789600       0.021532
     8684.324800       0.022795
     8691.873100       0.024085
     8699.434500       0.025402
     8707.009100       0.026744
     8714.596900       0.028112
     8722.198000       0.029505
     8729.812300       0.030923
     8737.439900       0.032365
     8745.080900       0.033832
     8752.735200       0.035322
     8760.403000       0.036836
     8768.084200       0.038372
     8775.778900       0.039932
     8783.487000       0.041514
     8791.208800       0.043119
     8798.944100       0.044746
     8806.693100       0.046395
     8814.455700       0.048066
     8822.232000       0.049758
     8830.022100       0.051472
     8837.825900       0.053207
     8845.643500       0.054964
     8853.475000       0.056742
     8861.320300       0.058541
     8869.179600       0.060361
     8877.052800       0.062203
     8884.940000       0.064065
     8892.841300       0.065947
     8900.756600       0.067851
     8908.686000       0.069776
     8916.629500       0.071721
     8924.587200       0.073688
     8932.559200       0.075675
     8940.545400       0.077683
     8948.545900       0.079712
     8956.560700       0.081762
     8964.589900       0.083832
     8972.633500       0.085924
     8980.691500       0.088037
     8988.764000       0.090171
     8996.851100       0.092326
     9004.952700       0.094502
     9013.068900       0.096699
     9021.199800       0.098918
     9029.345400       0.101158
     9037.505600       0.103420
     9045.680700       0.105703
     9053.870500       0.108008
     9062.075200       0.110335
     9070.294800       0.112683
     9078.529300       0.115053
     9086.778700       0.117446
     9095.043200       0.119860
     9103.322700       0.122297
     9111.617300       0.124756
     9119.927000       0.127237
     9128.251900       0.129740
     9136.592100       0.132267
     9144.947400       0.134815
     9153.318100       0.137387
     9161.704100       0.139981
     9170.105500       0.142598
     9178.522300       0.145238
     9186.954500       0.147901
     9195.402300       0.150587
     9203.865600       0.153296
     9212.344500       0.156028
     9220.839100       0.158784
     9229.349300       0.161563
     9237.875300       0.164365
     9246.417000       0.167191
     9254.974500       0.170040
     9263.547900       0.172914
     9272.137200       0.175810
     9280.742500       0.178730
     9289.363700       0.181674
     9298.000900       0.184641
     9306.654300       0.187633
     9315.323700       0.190648
     9324.009300       0.193687
     9332.711200       0.196749
     9341.429200       0.199835
     9350.163600       0.202946
     9358.914400       0.206079
     9367.681500       0.209237
     9376.465100       0.212419
     9385.265100       0.215624
     9394.081700       0.218853
     9402.914900       0.222105
     9411.764700       0.225381
     9420.631200       0.228681
     9429.514400       0.232004
     9438.414300       0.235351
     9447.331100       0.238721
     9456.264800       0.242115
     9465.215300       0.245532
     9474.182900       0.248972
     9483.167400       0.252435
     9492.169000       0.255921
     9501.187600       0.259430
     9510.223500       0.262962
     9519.276500       0.266516
     9528.346800       0.270093
     9537.434400       0.273693
     9546.539400       0.277315
     9555.661700       0.280959
     9564.801500       0.284624
     9573.958800       0.288312
     9583.133700       0.292022
     9592.326100       0.295753
     9601.536200       0.299505
     9610.764100       0.303278
     9620.009600       0.307073
     9629.273000       0.310889
     9638.554200       0.314724
     9647.853400       0.318581
     9657.170400       0.322457
     9666.505600       0.326353
     9675.858700       0.330270
     9685.230000       0.334205
     9694.619500       0.338160
     9704.027200       0.342134
     9713.453100       0.346127
     9722.897400       0.350138
     9732.360100       0.354167
     9741.841200       0.358215
     9751.340800       0.362280
     9760.859000       0.366363
     9770.395700       0.370463
     9779.951100       0.374579
     9789.525200       0.378712
     9799.118100       0.382862
     9808.729800       0.387027
     9818.360300       0.391208
     9828.009800       0.395404
     9837.678300       0.399615
     9847.365800       0.403841
     9857.072400       0.408081
     9866.798200       0.412335
     9876.543200       0.416603
     9886.307500       0.420884
     9896.091000       0.425178
     9905.894000       0.429484
     9915.716400       0.433803
     9925.558300       0.438133
     9935.419800       0.442475
     9945.300800       0.446828
     9955.201600       0.451191
     9965.122100       0.455565
     9975.062300       0.459949
     9985.022500       0.464342
     9995.002500       0.468745
    10005.002500       0.473156
    10015.022500       0.477575
    10025.062700       0.482002
    10035.122900       0.486436
    10045.203400       0.490878
    10055.304200       0.495326
    10065.425300       0.499781
    10075.566800       0.504241
    10085.728700       0.508706
    10095.911200       0.513176
    10106.114200       0.517651
    10116.337900       0.522129
    10126.582300       0.526611
    10136.847400       0.531097
    10147.133400       0.535585
    10157.440300       0.540075
    10167.768200       0.544566
    10178.117000       0.549059
    10188.487000       0.553553
    10198.878100       0.558047
    10209.290500       0.562541
    10219.724100       0.567035
    10230.179000       0.571527
    10240.655400       0.576018
    10251.153300       0.580507
    10261.672700       0.584994
    10272.213700       0.589477
    10282.776300       0.593957
    10293.360800       0.598434
    10303.967000       0.602905
    10314.595200       0.607372
    10325.245200       0.611834
    10335.917300       0.616290
    10346.611500       0.620740
    10357.327800       0.625183
    10368.066400       0.629618
    10378.827200       0.634046
    10389.610400       0.638466
    10400.416000       0.642877
    10411.244100       0.647279
    10422.094800       0.651672
    10432.968200       0.656054
    10443.864200       0.660426
    10454.783100       0.664786
    10465.724800       0.669136
    10476.689400       0.673473
    10487.677000       0.677798
    10498.687700       0.682109
    10509.721500       0.686408
    10520.778500       0.690692
    10531.858900       0.694962
    10542.962600       0.699218
    10554.089700       0.703458
    10565.240400       0.707682
    10576.414600       0.711890
    10587.612500       0.716082
    10598.834100       0.720256
    10610.079600       0.724413
    10621.348900       0.728552
    10632.642200       0.732672
    10643.959600       0.736774
    10655.301000       0.740856
    10666.666700       0.744918
    10678.056600       0.748960
    10689.470900       0.752981
    10700.909600       0.756982
    10712.372800       0.760960
    10723.860600       0.764917
    10735.373100       0.768851
    10746.910300       0.772763
    10758.472300       0.776651
    10770.059200       0.780516
    10781.671200       0.784356
    10793.308100       0.788172
    10804.970300       0.791964
    10816.657700       0.795730
    10828.370300       0.799470
    10840.108400       0.803184
    10851.871900       0.806872
    10863.661100       0.810533
    10875.475800       0.814167
    10887.316300       0.817773
    10899.182600       0.821352
    10911.074700       0.824902
    10922.992900       0.828423
    10934.937100       0.831915
    10946.907500       0.835378
    10958.904100       0.838812
    10970.927000       0.842215
    10982.976400       0.845588
    10995.052200       0.848930
    11007.154700       0.852241
    11019.283700       0.855521
    11031.439600       0.858769
    11043.622300       0.861985
    11055.832000       0.865169
    11068.068600       0.868320
    11080.332400       0.871439
    11092.623400       0.874524
    11104.941700       0.877576
    11117.287400       0.880594
    11129.660500       0.883578
    11142.061300       0.886528
    11154.489700       0.889443
    11166.945800       0.892323
    11179.429800       0.895169
    11191.941800       0.897979
    11204.481800       0.900754
    11217.049900       0.903493
    11229.646300       0.906196
    11242.270900       0.908863
    11254.924000       0.911494
    11267.605600       0.914088
    11280.315800       0.916645
    11293.054800       0.919165
    11305.822500       0.921649
    11318.619100       0.924094
    11331.444800       0.926503
    11344.299500       0.928874
    11357.183400       0.931206
    11370.096600       0.933501
    11383.039300       0.935758
    11396.011400       0.937977
    11409.013100       0.940157
    11422.044500       0.942299
    11435.105800       0.944402
    11448.196900       0.946466
    11461.318100       0.948492
    11474.469300       0.950478
    11487.650800       0.952426
    11500.862600       0.954334
    11514.104800       0.956203
    11527.377500       0.958033
    11540.680900       0.959824
    11554.015000       0.961575
    11567.380000       0.963287
    11580.775900       0.964959
    11594.202900       0.966592
    11607.661100       0.968185
    11621.150500       0.969739
    11634.671300       0.971253
    11648.223600       0.972727
    11661.807600       0.974162
    11675.423200       0.975558
    11689.070700       0.976913
    11702.750100       0.978229
    11716.461600       0.979506
    11730.205300       0.980743
    11743.981200       0.981941
    11757.789500       0.983099
    11771.630400       0.984217
    11785.503800       0.985297
    11799.410000       0.986337
    11813.349100       0.987338
    11827.321100       0.988300
    11841.326200       0.989223
    11855.364600       0.990107
    11869.436200       0.990952
    11883.541300       0.991758
    11897.680000       0.992526
    11911.852300       0.993255
    11926.058400       0.993946
    11940.298500       0.994598
    11954.572600       0.995213
    11968.880900       0.995789
    11983.223500       0.996328
    11997.600500       0.996829
    12012.012000       0.997293
    12026.458200       0.997719
    12040.939200       0.998108
    12055.455100       0.998461
    12070.006000       0.998776
    12084.592100       0.999055
    12099.213600       0.999297
    12113.870400       0.999503
    12128.562800       0.999674
    12143.290800       0.999808
    12158.054700       0.999907
    12172.854500       0.999971
    12187.690400       1.000000
    12202.562500       0.999994
    12217.471000       0.999953
    12232.415900       0.999878
    12247.397400       0.999769
    12262.415700       0.999627
    12277.470800       0.999450
    12292.563000       0.999241
    12307.692300       0.998998
    12322.858900       0.998723
    12338.062900       0.998416
    12353.304500       0.998076
    12368.583800       0.997705
    12383.900900       0.997302
    12399.256000       0.996868
    12414.649300       0.996403
    12430.080800       0.995908
    12445.550700       0.995382
    12461.059200       0.994826
    12476.606400       0.994241
    12492.192400       0.993627
    12507.817400       0.992984
    12523.481500       0.992313
    12539.185000       0.991613
    12554.927800       0.990885
    12570.710200       0.990130
    12586.532400       0.989348
    12602.394500       0.988540
    12618.296500       0.987705
    12634.238800       0.986843
    12650.221400       0.985957
    12666.244500       0.985045
    12682.308200       0.984109
    12698.412700       0.983148
    12714.558200       0.982163
    12730.744700       0.981154
    12746.972600       0.980122
    12763.241900       0.979067
    12779.552700       0.977990
    12795.905300       0.976891
    12812.299800       0.975771
    12828.736400       0.974629
    12845.215200       0.973466
    12861.736300       0.972283
    12878.300100       0.971081
    12894.906500       0.969858
    12911.555800       0.968617
    12928.248200       0.967357
    12944.983800       0.966079
    12961.762800       0.964783
    12978.585300       0.963470
    12995.451600       0.962140
    13012.361700       0.960793
    13029.316000       0.959431
    13046.314400       0.958053
    13063.357300       0.956660
    13080.444700       0.955252
    13097.576900       0.953830
    13114.754100       0.952394
    13131.976400       0.950945
    13149.243900       0.949483
    13166.556900       0.948008
    13183.915600       0.946522
    13201.320100       0.945024
    13218.770700       0.943515
    13236.267400       0.941995
    13253.810500       0.940465
    13271.400100       0.938926
    13289.036500       0.937377
    13306.719900       0.935819
    13324.450400       0.934253
    13342.228200       0.932679
    13360.053400       0.931098
    13377.926400       0.929510
    13395.847300       0.927915
    13413.816200       0.926314
    13431.833400       0.924707
    13449.899100       0.923096
    13468.013500       0.921479
    13486.176700       0.919858
    13504.388900       0.918233
    13522.650400       0.916605
    13540.961400       0.914974
    13559.322000       0.913340
    13577.732500       0.911705
    13596.193100       0.910067
    13614.703900       0.908429
    13633.265200       0.906789
    13651.877100       0.905149
    13670.540000       0.903510
    13689.253900       0.901870
    13708.019200       0.900232
    13726.836000       0.898595
    13745.704500       0.896960
    13764.624900       0.895327
    13783.597500       0.893696
    13802.622500       0.892069
    13821.700100       0.890445
    13840.830400       0.888825
    13860.013900       0.887209
    13879.250500       0.885597
    13898.540700       0.883991
    13917.884500       0.882390
    13937.282200       0.880795
    13956.734100       0.879206
    13976.240400       0.877623
    13995.801300       0.876048
    14015.417000       0.874480
    14035.087700       0.872919
    14054.813800       0.871366
    14074.595400       0.869822
    14094.432700       0.868287
    14114.326000       0.866760
    14134.275600       0.865243
    14154.281700       0.863736
    14174.344400       0.862239
    14194.464200       0.860752
    14214.641100       0.859276
    14234.875400       0.857812
    14255.167500       0.856358
    14275.517500       0.854916
    14295.925700       0.853487
    14316.392300       0.852069
    14336.917600       0.850664
    14357.501800       0.849273
    14378.145200       0.847894
    14398.848100       0.846528
    14419.610700       0.845177
    14440.433200       0.843839
    14461.316000       0.842516
    14482.259200       0.841207
    14503.263200       0.839912
    14524.328200       0.838633
    14545.454500       0.837369
    14566.642400       0.836120
    14587.892000       0.834887
    14609.203800       0.833670
    14630.577900       0.832468
    14652.014700       0.831283
    14673.514300       0.830115
    14695.077100       0.828963
    14716.703500       0.827828
    14738.393500       0.826709
    14760.147600       0.825608
    14781.966000       0.824525
    14803.849000       0.823458
    14825.796900       0.822409
    14847.809900       0.821378
    14869.888500       0.820365
    14892.032800       0.819369
    14914.243100       0.818392
    14936.519800       0.817432
    14958.863100       0.816491
    14981.273400       0.815569
    15003.750900       0.814664
    15026.296000       0.813778
    15048.909000       0.812911
    15071.590100       0.812062
    15094.339600       0.811232
    15117.158000       0.810420
    15140.045400       0.809627
    15163.002300       0.808853
    15186.028900       0.808097
    15209.125500       0.807361
    15232.292500       0.806642
    15255.530100       0.805943
    15278.838800       0.805262
    15302.218800       0.804600
    15325.670500       0.803956
    15349.194200       0.803331
    15372.790200       0.802725
    15396.458800       0.802137
    15420.200500       0.801567
    15444.015400       0.801015
    15467.904100       0.800482
    15491.866800       0.799966
    15515.903800       0.799469
    15540.015500       0.798989
    15564.202300       0.798527
    15588.464500       0.798083
    15612.802500       0.797656
    15637.216600       0.797246
    15661.707100       0.796853
    15686.274500       0.796478
    15710.919100       0.796119
    15735.641200       0.795776
    15760.441300       0.795450
    15785.319700       0.795140
    15810.276700       0.794846
    15835.312700       0.794567
    15860.428200       0.794304
    15885.623500       0.794056
    15910.899000       0.793823
    15936.255000       0.793605
    15961.691900       0.793401
    15987.210200       0.793211
    16012.810200       0.793035
    16038.492400       0.792873
    16064.257000       0.792724
    16090.104600       0.792587
    16116.035500       0.792464
    16142.050000       0.792352
    16168.148700       0.792253
    16194.332000       0.792164
    16220.600200       0.792088
    16246.953700       0.792021
    16273.393000       0.791966
    16299.918500       0.791920
    16326.530600       0.791884
    16353.229800       0.791857
    16380.016400       0.791839
    16406.890900       0.791830
    16433.853700       0.791828
    16460.905300       0.791834
    16488.046200       0.791847
    16515.276600       0.791867
    16542.597200       0.791892
    16570.008300       0.791924
    16597.510400       0.791961
    16625.103900       0.792002
    16652.789300       0.792048
    16680.567100       0.792097
    16708.437800       0.792150
    16736.401700       0.792205
    16764.459300       0.792263
    16792.611300       0.792322
    16820.857900       0.792382
    16849.199700       0.792443
    16877.637100       0.792504
    16906.170800       0.792564
    16934.801000       0.792623
    16963.528400       0.792680
    16992.353400       0.792736
    17021.276600       0.792788
    17050.298400       0.792837
    17079.419300       0.792882
    17108.639900       0.792922
    17137.960600       0.792957
    17167.382000       0.792985
    17196.904600       0.793008
    17226.528900       0.793023
    17256.255400       0.793031
    17286.084700       0.793030
    17316.017300       0.793019
    17346.053800       0.793000
    17376.194600       0.792969
    17406.440400       0.792928
    17436.791600       0.792875
    17467.248900       0.792810
    17497.812800       0.792731
    17528.483800       0.792639
    17559.262500       0.792532
    17590.149500       0.792410
    17621.145400       0.792273
    17652.250700       0.792118
    17683.466000       0.791947
    17714.791900       0.791757
    17746.228900       0.791549
    17777.777800       0.791322
    17809.439000       0.791075
    17841.213200       0.790806
    17873.101000       0.790516
    17905.103000       0.790205
    17937.219700       0.789870
    17969.451900       0.789511
    18001.800200       0.789128
    18034.265100       0.788720
    18066.847300       0.788286
    18099.547500       0.787825
    18132.366300       0.787338
    18165.304300       0.786822
    18198.362100       0.786277
    18231.540600       0.785703
    18264.840200       0.785098
    18298.261700       0.784463
    18331.805700       0.783796
    18365.472900       0.783096
    18399.264000       0.782364
    18433.179700       0.781597
    18467.220700       0.780796
    18501.387600       0.779959
    18535.681200       0.779087
    18570.102100       0.778177
    18604.651200       0.777230
    18639.329000       0.776245
    18674.136300       0.775221
    18709.073900       0.774157
    18744.142500       0.773053
    18779.342700       0.771908
    18814.675400       0.770721
    18850.141400       0.769491
    18885.741300       0.768219
    18921.475900       0.766903
    18957.346000       0.765542
    18993.352300       0.764136
    19029.495700       0.762684
    19065.776900       0.761185
    19102.196800       0.759640
    19138.756000       0.758046
    19175.455400       0.756404
    19212.295900       0.754713
    19249.278200       0.752973
    19286.403100       0.751182
    19323.671500       0.749340
    19361.084200       0.747446
    19398.642100       0.745500
    19436.346000       0.743502
    19474.196700       0.741450
    19512.195100       0.739344
    19550.342100       0.737184
    19588.638600       0.734969
    19627.085400       0.732698
    19665.683400       0.730372
    19704.433500       0.727988
    19743.336600       0.725548
    19782.393700       0.723050
    19821.605600       0.720494
    19860.973200       0.717880
    19900.497500       0.715206
    19940.179500       0.712473
    19980.020000       0.709681
    20020.020000       0.706828
    20060.180500       0.703914
    20100.502500       0.700940
    20140.986900       0.697904
    20181.634700       0.694807
    20222.446900       0.691647
    20263.424500       0.688425
    20304.568500       0.685141
    20345.880000       0.681793
    20387.359800       0.678383
    20429.009200       0.674909
    20470.829100       0.671371
    20512.820500       0.667769
    20554.984600       0.664103
    20597.322300       0.660374
    20639.834900       0.656579
    20682.523300       0.652720
    20725.388600       0.648797
    20768.432000       0.644809
    20811.654500       0.640756
    20855.057400       0.636638
    20898.641600       0.632455
    20942.408400       0.628208
    20986.358900       0.623896
    21030.494200       0.619519
    21074.815600       0.615077
    21119.324200       0.610571
    21164.021200       0.606000
    21208.907700       0.601365
    21253.985100       0.596666
    21299.254500       0.591903
    21344.717200       0.587076
    21390.374300       0.582186
    21436.227200       0.577233
    21482.277100       0.572217
    21528.525300       0.567138
    21574.973000       0.561998
    21621.621600       0.556795
    21668.472400       0.551532
    21715.526600       0.546207
    21762.785600       0.540822
    21810.250800       0.535378
    21857.923500       0.529874
    21905.805000       0.524311
    21953.896800       0.518690
    22002.200200       0.513012
    22050.716600       0.507278
    22099.447500       0.501487
    22148.394200       0.495641
    22197.558300       0.489741
    22246.941000       0.483787
    22296.544000       0.477781
    22346.368700       0.471722
    22396.416600       0.465613
    22446.689100       0.459454
    22497.187900       0.453246
    22547.914300       0.446991
    22598.870100       0.440688
    22650.056600       0.434340
    22701.475600       0.427948
    22753.128600       0.421512
    22805.017100       0.415035
    22857.142900       0.408516
    22909.507400       0.401959
    22962.112500       0.395364
    23014.959700       0.388732
    23068.050700       0.382065
    23121.387300       0.375365
    23174.971000       0.368633
    23228.803700       0.361870
    23282.887100       0.355079
    23337.222900       0.348261
    23391.812900       0.341418
    23446.658900       0.334551
    23501.762600       0.327663
    23557.126000       0.320755
    23612.750900       0.313829
    23668.639100       0.306888
    23724.792400       0.299933
    23781.212800       0.292967
    23837.902300       0.285990
    23894.862600       0.279007
    23952.095800       0.272019
    24009.603800       0.265028
    24067.388700       0.258036
    24125.452400       0.251047
    24183.796900       0.244062
    24242.424200       0.237084
    24301.336600       0.230116
    24360.535900       0.223159
    24420.024400       0.216218
    24479.804200       0.209295
    24539.877300       0.202392
    24600.246000       0.195512
    24660.912500       0.188659
    24721.878900       0.181835
    24783.147500       0.175042
    24844.720500       0.168286
    24906.600200       0.161568
    24968.789000       0.154891
    25031.289100       0.148260
    25094.102900       0.141677
    25157.232700       0.135146
    25220.681000       0.128669
    25284.450100       0.122252
    25348.542500       0.115897
    25412.960600       0.109608
    25477.707000       0.103389
