4,   ECOSTRESS channel 4 from 20180318-ECOSTRESS_SRF_v3.csv
Number of data points:
126
Wavenumber (cm-1)   Filter response
      901.623800       0.013000
      902.425300       0.012000
      903.228100       0.008700
      904.032400       0.005400
      904.838200       0.007200
      905.645300       0.009900
      906.454000       0.010400
      907.264000       0.005700
      908.075500       0.001100
      908.888500       0.002200
      909.702900       0.005100
      910.518800       0.007300
      911.336100       0.006900
      912.154900       0.006500
      912.975200       0.008900
      913.797000       0.012600
      914.620200       0.015300
      915.444900       0.012800
      916.271100       0.010300
      917.098800       0.010400
      917.928100       0.012100
      918.758800       0.014000
      919.591000       0.017500
      920.424700       0.021000
      921.259900       0.027000
      922.096700       0.035100
      922.934900       0.043200
      923.774700       0.048300
      924.616100       0.053300
      925.458900       0.063900
      926.303300       0.081200
      927.149200       0.098400
      927.996700       0.121300
      928.845800       0.144800
      929.696400       0.176200
      930.548500       0.220300
      931.402200       0.264400
      932.257500       0.317900
      933.114400       0.373000
      933.972800       0.432400
      934.832800       0.501300
      935.694400       0.570200
      936.557600       0.630100
      937.422400       0.687400
      938.288700       0.742100
      939.156700       0.788400
      940.026300       0.834600
      940.897500       0.866800
      941.770300       0.892700
      942.644800       0.916200
      943.520800       0.927100
      944.398500       0.937900
      945.277900       0.941100
      946.158800       0.939500
      947.041400       0.938100
      947.925700       0.937300
      948.811600       0.936500
      949.699200       0.938600
      950.588400       0.943000
      951.479300       0.947500
      952.371900       0.949800
      953.266100       0.952100
      954.162100       0.953100
      955.059700       0.952500
      955.959000       0.951900
      956.860000       0.959400
      957.762700       0.967500
      958.667100       0.975400
      959.573200       0.983000
      960.481000       0.990500
      961.390600       0.994500
      962.301800       0.997700
      963.214800       0.993500
      964.129600       0.972800
      965.046000       0.952100
      965.964200       0.913900
      966.884200       0.870800
      967.805900       0.822100
      968.729400       0.755900
      969.654700       0.689800
      970.581700       0.620100
      971.510500       0.548800
      972.441000       0.477600
      973.373400       0.406400
      974.307500       0.335200
      975.243400       0.278800
      976.181200       0.231300
      977.120700       0.185200
      978.062100       0.153600
      979.005200       0.121900
      979.950200       0.096100
      980.897000       0.075000
      981.845700       0.054000
      982.796200       0.043400
      983.748500       0.032900
      984.702600       0.024800
      985.658700       0.019500
      986.616500       0.014200
      987.576300       0.011400
      988.537900       0.008800
      989.501400       0.006700
      990.466800       0.005400
      991.434000       0.004000
      992.403200       0.003300
      993.374200       0.002600
      994.347100       0.002200
      995.322000       0.002100
      996.298800       0.002100
      997.277400       0.002400
      998.258000       0.002700
      999.240600       0.002800
     1000.225100       0.002300
     1001.211500       0.001800
     1002.199800       0.001200
     1003.190100       0.000600
     1004.182400       0.000000
     1005.176700       0.000000
     1006.172900       0.000000
     1007.171100       0.000000
     1008.171200       0.000100
     1009.173400       0.000700
     1010.177500       0.001200
     1011.183700       0.001600
     1012.191900       0.002100
     1013.202000       0.002500
     1014.214200       0.003000
