32,   32, MVIRI VIS channel from srf_MET2_1986033_1986034_1801-Release_S10EL_10.dat
Number of data points:
730
Wavenumber (cm-1)   Filter response
     8916.629500       0.000000
     8924.587200       0.000000
     8932.559200       0.000002
     8940.545400       0.000011
     8948.545900       0.000032
     8956.560700       0.000069
     8964.589900       0.000126
     8972.633500       0.000207
     8980.691500       0.000317
     8988.764000       0.000460
     8996.851100       0.000638
     9004.952700       0.000856
     9013.068900       0.001116
     9021.199800       0.001423
     9029.345400       0.001778
     9037.505600       0.002186
     9045.680700       0.002648
     9053.870500       0.003167
     9062.075200       0.003746
     9070.294800       0.004387
     9078.529300       0.005093
     9086.778700       0.005865
     9095.043200       0.006705
     9103.322700       0.007616
     9111.617300       0.008599
     9119.927000       0.009655
     9128.251900       0.010786
     9136.592100       0.011994
     9144.947400       0.013280
     9153.318100       0.014645
     9161.704100       0.016090
     9170.105500       0.017616
     9178.522300       0.019224
     9186.954500       0.020915
     9195.402300       0.022690
     9203.865600       0.024549
     9212.344500       0.026493
     9220.839100       0.028522
     9229.349300       0.030636
     9237.875300       0.032837
     9246.417000       0.035124
     9254.974500       0.037497
     9263.547900       0.039957
     9272.137200       0.042503
     9280.742500       0.045135
     9289.363700       0.047854
     9298.000900       0.050659
     9306.654300       0.053550
     9315.323700       0.056527
     9324.009300       0.059589
     9332.711200       0.062736
     9341.429200       0.065967
     9350.163600       0.069282
     9358.914400       0.072681
     9367.681500       0.076162
     9376.465100       0.079726
     9385.265100       0.083370
     9394.081700       0.087096
     9402.914900       0.090901
     9411.764700       0.094786
     9420.631200       0.098749
     9429.514400       0.102788
     9438.414300       0.106905
     9447.331100       0.111096
     9456.264800       0.115363
     9465.215300       0.119702
     9474.182900       0.124114
     9483.167400       0.128597
     9492.169000       0.133150
     9501.187600       0.137772
     9510.223500       0.142463
     9519.276500       0.147219
     9528.346800       0.152041
     9537.434400       0.156928
     9546.539400       0.161877
     9555.661700       0.166888
     9564.801500       0.171959
     9573.958800       0.177090
     9583.133700       0.182278
     9592.326100       0.187523
     9601.536200       0.192823
     9610.764100       0.198176
     9620.009600       0.203582
     9629.273000       0.209040
     9638.554200       0.214546
     9647.853400       0.220101
     9657.170400       0.225703
     9666.505600       0.231350
     9675.858700       0.237042
     9685.230000       0.242776
     9694.619500       0.248551
     9704.027200       0.254366
     9713.453100       0.260219
     9722.897400       0.266110
     9732.360100       0.272035
     9741.841200       0.277996
     9751.340800       0.283988
     9760.859000       0.290012
     9770.395700       0.296066
     9779.951100       0.302148
     9789.525200       0.308257
     9799.118100       0.314392
     9808.729800       0.320551
     9818.360300       0.326733
     9828.009800       0.332935
     9837.678300       0.339158
     9847.365800       0.345400
     9857.072400       0.351659
     9866.798200       0.357934
     9876.543200       0.364222
     9886.307500       0.370525
     9896.091000       0.376839
     9905.894000       0.383163
     9915.716400       0.389497
     9925.558300       0.395838
     9935.419800       0.402186
     9945.300800       0.408539
     9955.201600       0.414896
     9965.122100       0.421256
     9975.062300       0.427616
     9985.022500       0.433977
     9995.002500       0.440338
    10005.002500       0.446695
    10015.022500       0.453049
    10025.062700       0.459398
    10035.122900       0.465742
    10045.203400       0.472078
    10055.304200       0.478406
    10065.425300       0.484725
    10075.566800       0.491032
    10085.728700       0.497329
    10095.911200       0.503613
    10106.114200       0.509882
    10116.337900       0.516137
    10126.582300       0.522376
    10136.847400       0.528598
    10147.133400       0.534802
    10157.440300       0.540987
    10167.768200       0.547152
    10178.117000       0.553296
    10188.487000       0.559418
    10198.878100       0.565517
    10209.290500       0.571593
    10219.724100       0.577643
    10230.179000       0.583668
    10240.655400       0.589667
    10251.153300       0.595638
    10261.672700       0.601580
    10272.213700       0.607494
    10282.776300       0.613378
    10293.360800       0.619232
    10303.967000       0.625054
    10314.595200       0.630843
    10325.245200       0.636600
    10335.917300       0.642324
    10346.611500       0.648012
    10357.327800       0.653666
    10368.066400       0.659284
    10378.827200       0.664865
    10389.610400       0.670410
    10400.416000       0.675917
    10411.244100       0.681385
    10422.094800       0.686815
    10432.968200       0.692205
    10443.864200       0.697555
    10454.783100       0.702865
    10465.724800       0.708133
    10476.689400       0.713360
    10487.677000       0.718545
    10498.687700       0.723687
    10509.721500       0.728785
    10520.778500       0.733841
    10531.858900       0.738852
    10542.962600       0.743819
    10554.089700       0.748741
    10565.240400       0.753618
    10576.414600       0.758449
    10587.612500       0.763234
    10598.834100       0.767974
    10610.079600       0.772666
    10621.348900       0.777311
    10632.642200       0.781910
    10643.959600       0.786460
    10655.301000       0.790963
    10666.666700       0.795418
    10678.056600       0.799824
    10689.470900       0.804182
    10700.909600       0.808491
    10712.372800       0.812751
    10723.860600       0.816962
    10735.373100       0.821123
    10746.910300       0.825235
    10758.472300       0.829297
    10770.059200       0.833309
    10781.671200       0.837272
    10793.308100       0.841184
    10804.970300       0.845046
    10816.657700       0.848858
    10828.370300       0.852619
    10840.108400       0.856330
    10851.871900       0.859991
    10863.661100       0.863601
    10875.475800       0.867160
    10887.316300       0.870669
    10899.182600       0.874127
    10911.074700       0.877535
    10922.992900       0.880891
    10934.937100       0.884198
    10946.907500       0.887453
    10958.904100       0.890658
    10970.927000       0.893813
    10982.976400       0.896918
    10995.052200       0.899971
    11007.154700       0.902975
    11019.283700       0.905928
    11031.439600       0.908832
    11043.622300       0.911685
    11055.832000       0.914488
    11068.068600       0.917242
    11080.332400       0.919946
    11092.623400       0.922600
    11104.941700       0.925205
    11117.287400       0.927761
    11129.660500       0.930268
    11142.061300       0.932726
    11154.489700       0.935135
    11166.945800       0.937495
    11179.429800       0.939807
    11191.941800       0.942072
    11204.481800       0.944287
    11217.049900       0.946456
    11229.646300       0.948576
    11242.270900       0.950650
    11254.924000       0.952676
    11267.605600       0.954655
    11280.315800       0.956588
    11293.054800       0.958474
    11305.822500       0.960314
    11318.619100       0.962108
    11331.444800       0.963857
    11344.299500       0.965560
    11357.183400       0.967218
    11370.096600       0.968831
    11383.039300       0.970399
    11396.011400       0.971923
    11409.013100       0.973403
    11422.044500       0.974839
    11435.105800       0.976232
    11448.196900       0.977581
    11461.318100       0.978888
    11474.469300       0.980152
    11487.650800       0.981373
    11500.862600       0.982553
    11514.104800       0.983691
    11527.377500       0.984787
    11540.680900       0.985843
    11554.015000       0.986857
    11567.380000       0.987831
    11580.775900       0.988765
    11594.202900       0.989659
    11607.661100       0.990513
    11621.150500       0.991329
    11634.671300       0.992105
    11648.223600       0.992843
    11661.807600       0.993542
    11675.423200       0.994204
    11689.070700       0.994828
    11702.750100       0.995415
    11716.461600       0.995964
    11730.205300       0.996477
    11743.981200       0.996954
    11757.789500       0.997395
    11771.630400       0.997800
    11785.503800       0.998170
    11799.410000       0.998505
    11813.349100       0.998805
    11827.321100       0.999071
    11841.326200       0.999303
    11855.364600       0.999501
    11869.436200       0.999666
    11883.541300       0.999797
    11897.680000       0.999896
    11911.852300       0.999963
    11926.058400       0.999997
    11940.298500       1.000000
    11954.572600       0.999971
    11968.880900       0.999911
    11983.223500       0.999821
    11997.600500       0.999700
    12012.012000       0.999549
    12026.458200       0.999367
    12040.939200       0.999157
    12055.455100       0.998917
    12070.006000       0.998648
    12084.592100       0.998351
    12099.213600       0.998025
    12113.870400       0.997671
    12128.562800       0.997290
    12143.290800       0.996881
    12158.054700       0.996445
    12172.854500       0.995982
    12187.690400       0.995492
    12202.562500       0.994977
    12217.471000       0.994435
    12232.415900       0.993868
    12247.397400       0.993275
    12262.415700       0.992658
    12277.470800       0.992015
    12292.563000       0.991348
    12307.692300       0.990657
    12322.858900       0.989941
    12338.062900       0.989202
    12353.304500       0.988439
    12368.583800       0.987654
    12383.900900       0.986845
    12399.256000       0.986013
    12414.649300       0.985159
    12430.080800       0.984283
    12445.550700       0.983385
    12461.059200       0.982465
    12476.606400       0.981524
    12492.192400       0.980562
    12507.817400       0.979578
    12523.481500       0.978574
    12539.185000       0.977549
    12554.927800       0.976504
    12570.710200       0.975439
    12586.532400       0.974354
    12602.394500       0.973250
    12618.296500       0.972126
    12634.238800       0.970983
    12650.221400       0.969821
    12666.244500       0.968640
    12682.308200       0.967441
    12698.412700       0.966223
    12714.558200       0.964987
    12730.744700       0.963733
    12746.972600       0.962461
    12763.241900       0.961172
    12779.552700       0.959865
    12795.905300       0.958541
    12812.299800       0.957200
    12828.736400       0.955842
    12845.215200       0.954467
    12861.736300       0.953076
    12878.300100       0.951669
    12894.906500       0.950245
    12911.555800       0.948805
    12928.248200       0.947350
    12944.983800       0.945879
    12961.762800       0.944392
    12978.585300       0.942890
    12995.451600       0.941372
    13012.361700       0.939839
    13029.316000       0.938292
    13046.314400       0.936730
    13063.357300       0.935153
    13080.444700       0.933561
    13097.576900       0.931955
    13114.754100       0.930335
    13131.976400       0.928700
    13149.243900       0.927052
    13166.556900       0.925390
    13183.915600       0.923713
    13201.320100       0.922024
    13218.770700       0.920320
    13236.267400       0.918604
    13253.810500       0.916874
    13271.400100       0.915130
    13289.036500       0.913374
    13306.719900       0.911605
    13324.450400       0.909823
    13342.228200       0.908028
    13360.053400       0.906220
    13377.926400       0.904400
    13395.847300       0.902567
    13413.816200       0.900722
    13431.833400       0.898864
    13449.899100       0.896995
    13468.013500       0.895113
    13486.176700       0.893219
    13504.388900       0.891313
    13522.650400       0.889396
    13540.961400       0.887466
    13559.322000       0.885525
    13577.732500       0.883573
    13596.193100       0.881608
    13614.703900       0.879633
    13633.265200       0.877646
    13651.877100       0.875647
    13670.540000       0.873638
    13689.253900       0.871617
    13708.019200       0.869585
    13726.836000       0.867542
    13745.704500       0.865488
    13764.624900       0.863423
    13783.597500       0.861348
    13802.622500       0.859261
    13821.700100       0.857164
    13840.830400       0.855057
    13860.013900       0.852939
    13879.250500       0.850810
    13898.540700       0.848671
    13917.884500       0.846521
    13937.282200       0.844362
    13956.734100       0.842192
    13976.240400       0.840011
    13995.801300       0.837821
    14015.417000       0.835621
    14035.087700       0.833410
    14054.813800       0.831190
    14074.595400       0.828960
    14094.432700       0.826720
    14114.326000       0.824470
    14134.275600       0.822211
    14154.281700       0.819942
    14174.344400       0.817663
    14194.464200       0.815375
    14214.641100       0.813077
    14234.875400       0.810770
    14255.167500       0.808454
    14275.517500       0.806128
    14295.925700       0.803793
    14316.392300       0.801449
    14336.917600       0.799096
    14357.501800       0.796734
    14378.145200       0.794363
    14398.848100       0.791983
    14419.610700       0.789594
    14440.433200       0.787197
    14461.316000       0.784791
    14482.259200       0.782376
    14503.263200       0.779952
    14524.328200       0.777520
    14545.454500       0.775080
    14566.642400       0.772631
    14587.892000       0.770174
    14609.203800       0.767708
    14630.577900       0.765235
    14652.014700       0.762753
    14673.514300       0.760264
    14695.077100       0.757766
    14716.703500       0.755261
    14738.393500       0.752748
    14760.147600       0.750227
    14781.966000       0.747698
    14803.849000       0.745162
    14825.796900       0.742618
    14847.809900       0.740068
    14869.888500       0.737509
    14892.032800       0.734944
    14914.243100       0.732371
    14936.519800       0.729792
    14958.863100       0.727205
    14981.273400       0.724612
    15003.750900       0.722011
    15026.296000       0.719404
    15048.909000       0.716791
    15071.590100       0.714171
    15094.339600       0.711544
    15117.158000       0.708911
    15140.045400       0.706272
    15163.002300       0.703627
    15186.028900       0.700976
    15209.125500       0.698319
    15232.292500       0.695656
    15255.530100       0.692988
    15278.838800       0.690313
    15302.218800       0.687634
    15325.670500       0.684949
    15349.194200       0.682258
    15372.790200       0.679563
    15396.458800       0.676862
    15420.200500       0.674157
    15444.015400       0.671447
    15467.904100       0.668732
    15491.866800       0.666012
    15515.903800       0.663288
    15540.015500       0.660560
    15564.202300       0.657827
    15588.464500       0.655090
    15612.802500       0.652350
    15637.216600       0.649605
    15661.707100       0.646857
    15686.274500       0.644105
    15710.919100       0.641350
    15735.641200       0.638591
    15760.441300       0.635829
    15785.319700       0.633064
    15810.276700       0.630296
    15835.312700       0.627526
    15860.428200       0.624752
    15885.623500       0.621976
    15910.899000       0.619198
    15936.255000       0.616417
    15961.691900       0.613635
    15987.210200       0.610850
    16012.810200       0.608064
    16038.492400       0.605275
    16064.257000       0.602486
    16090.104600       0.599695
    16116.035500       0.596902
    16142.050000       0.594109
    16168.148700       0.591314
    16194.332000       0.588519
    16220.600200       0.585723
    16246.953700       0.582926
    16273.393000       0.580129
    16299.918500       0.577332
    16326.530600       0.574535
    16353.229800       0.571737
    16380.016400       0.568940
    16406.890900       0.566143
    16433.853700       0.563347
    16460.905300       0.560552
    16488.046200       0.557757
    16515.276600       0.554963
    16542.597200       0.552170
    16570.008300       0.549379
    16597.510400       0.546589
    16625.103900       0.543800
    16652.789300       0.541013
    16680.567100       0.538228
    16708.437800       0.535445
    16736.401700       0.532664
    16764.459300       0.529885
    16792.611300       0.527109
    16820.857900       0.524336
    16849.199700       0.521565
    16877.637100       0.518796
    16906.170800       0.516031
    16934.801000       0.513269
    16963.528400       0.510511
    16992.353400       0.507756
    17021.276600       0.505004
    17050.298400       0.502256
    17079.419300       0.499512
    17108.639900       0.496772
    17137.960600       0.494036
    17167.382000       0.491304
    17196.904600       0.488576
    17226.528900       0.485853
    17256.255400       0.483135
    17286.084700       0.480422
    17316.017300       0.477713
    17346.053800       0.475009
    17376.194600       0.472311
    17406.440400       0.469618
    17436.791600       0.466930
    17467.248900       0.464248
    17497.812800       0.461571
    17528.483800       0.458900
    17559.262500       0.456235
    17590.149500       0.453575
    17621.145400       0.450922
    17652.250700       0.448275
    17683.466000       0.445634
    17714.791900       0.443000
    17746.228900       0.440372
    17777.777800       0.437750
    17809.439000       0.435135
    17841.213200       0.432527
    17873.101000       0.429925
    17905.103000       0.427331
    17937.219700       0.424743
    17969.451900       0.422163
    18001.800200       0.419589
    18034.265100       0.417023
    18066.847300       0.414464
    18099.547500       0.411912
    18132.366300       0.409368
    18165.304300       0.406831
    18198.362100       0.404301
    18231.540600       0.401779
    18264.840200       0.399264
    18298.261700       0.396758
    18331.805700       0.394258
    18365.472900       0.391767
    18399.264000       0.389283
    18433.179700       0.386806
    18467.220700       0.384338
    18501.387600       0.381877
    18535.681200       0.379424
    18570.102100       0.376979
    18604.651200       0.374542
    18639.329000       0.372112
    18674.136300       0.369691
    18709.073900       0.367277
    18744.142500       0.364871
    18779.342700       0.362472
    18814.675400       0.360082
    18850.141400       0.357699
    18885.741300       0.355324
    18921.475900       0.352956
    18957.346000       0.350596
    18993.352300       0.348244
    19029.495700       0.345899
    19065.776900       0.343562
    19102.196800       0.341232
    19138.756000       0.338910
    19175.455400       0.336595
    19212.295900       0.334287
    19249.278200       0.331986
    19286.403100       0.329693
    19323.671500       0.327406
    19361.084200       0.325127
    19398.642100       0.322854
    19436.346000       0.320588
    19474.196700       0.318329
    19512.195100       0.316076
    19550.342100       0.313830
    19588.638600       0.311591
    19627.085400       0.309357
    19665.683400       0.307129
    19704.433500       0.304908
    19743.336600       0.302692
    19782.393700       0.300483
    19821.605600       0.298278
    19860.973200       0.296080
    19900.497500       0.293886
    19940.179500       0.291698
    19980.020000       0.289514
    20020.020000       0.287336
    20060.180500       0.285162
    20100.502500       0.282993
    20140.986900       0.280828
    20181.634700       0.278667
    20222.446900       0.276510
    20263.424500       0.274357
    20304.568500       0.272208
    20345.880000       0.270062
    20387.359800       0.267920
    20429.009200       0.265780
    20470.829100       0.263643
    20512.820500       0.261509
    20554.984600       0.259378
    20597.322300       0.257248
    20639.834900       0.255121
    20682.523300       0.252996
    20725.388600       0.250872
    20768.432000       0.248749
    20811.654500       0.246628
    20855.057400       0.244508
    20898.641600       0.242388
    20942.408400       0.240269
    20986.358900       0.238150
    21030.494200       0.236031
    21074.815600       0.233912
    21119.324200       0.231793
    21164.021200       0.229673
    21208.907700       0.227552
    21253.985100       0.225430
    21299.254500       0.223306
    21344.717200       0.221181
    21390.374300       0.219054
    21436.227200       0.216925
    21482.277100       0.214794
    21528.525300       0.212660
    21574.973000       0.210524
    21621.621600       0.208384
    21668.472400       0.206241
    21715.526600       0.204095
    21762.785600       0.201945
    21810.250800       0.199791
    21857.923500       0.197633
    21905.805000       0.195470
    21953.896800       0.193303
    22002.200200       0.191131
    22050.716600       0.188954
    22099.447500       0.186771
    22148.394200       0.184584
    22197.558300       0.182390
    22246.941000       0.180191
    22296.544000       0.177985
    22346.368700       0.175773
    22396.416600       0.173555
    22446.689100       0.171330
    22497.187900       0.169098
    22547.914300       0.166860
    22598.870100       0.164614
    22650.056600       0.162361
    22701.475600       0.160100
    22753.128600       0.157831
    22805.017100       0.155555
    22857.142900       0.153271
    22909.507400       0.150979
    22962.112500       0.148679
    23014.959700       0.146371
    23068.050700       0.144054
    23121.387300       0.141729
    23174.971000       0.139395
    23228.803700       0.137053
    23282.887100       0.134702
    23337.222900       0.132343
    23391.812900       0.129975
    23446.658900       0.127598
    23501.762600       0.125213
    23557.126000       0.122819
    23612.750900       0.120416
    23668.639100       0.118005
    23724.792400       0.115585
    23781.212800       0.113157
    23837.902300       0.110721
    23894.862600       0.108276
    23952.095800       0.105823
    24009.603800       0.103362
    24067.388700       0.100893
    24125.452400       0.098416
    24183.796900       0.095932
    24242.424200       0.093440
    24301.336600       0.090942
    24360.535900       0.088436
    24420.024400       0.085925
    24479.804200       0.083406
    24539.877300       0.080882
    24600.246000       0.078353
    24660.912500       0.075818
    24721.878900       0.073278
    24783.147500       0.070734
    24844.720500       0.068186
    24906.600200       0.065634
    24968.789000       0.063079
    25031.289100       0.060522
    25094.102900       0.057962
    25157.232700       0.055401
    25220.681000       0.052840
    25284.450100       0.050278
    25348.542500       0.047716
    25412.960600       0.045156
    25477.707000       0.042597
