12,    channel 12 SRF extracted from SRF_FY-3F_MERSI-III.zip(FY3F_MERSI_SRF_CH12_Pub.txt) (received Nov 2023)
Number of data points:
431
Wavenumber (cm-1)   Filter response
    12666.242900       0.000946
    12674.256800       0.000852
    12682.311400       0.000852
    12690.347300       0.000759
    12698.427200       0.000759
    12706.485100       0.000761
    12714.556600       0.000854
    12722.638200       0.000854
    12730.733400       0.000855
    12738.838900       0.000855
    12746.958000       0.000856
    12755.089000       0.000856
    12763.228800       0.000856
    12771.383900       0.000857
    12779.549400       0.000857
    12787.728700       0.000858
    12795.918400       0.000858
    12804.085800       0.000858
    12812.301400       0.000949
    12820.527600       0.000949
    12828.733100       0.000950
    12836.983700       0.000861
    12845.213500       0.000950
    12853.455600       0.000950
    12861.743000       0.000950
    12870.009600       0.001039
    12878.288500       0.001040
    12886.611200       0.000951
    12894.913200       0.000951
    12903.229100       0.000864
    12911.557500       0.000864
    12919.898300       0.000952
    12928.249900       0.000952
    12936.615600       0.000952
    12944.992200       0.000953
    12953.383000       0.000953
    12961.749400       0.000953
    12970.165200       0.000953
    12978.592100       0.000953
    12986.996100       0.001039
    12995.448200       0.001039
    13003.913000       0.001039
    13012.356700       0.001039
    13020.846900       0.001039
    13029.314300       0.001039
    13037.797700       0.001039
    13046.324600       0.001039
    13054.832000       0.001039
    13063.350500       0.001039
    13071.881800       0.001039
    13080.460100       0.001122
    13089.017200       0.001205
    13097.589000       0.001288
    13106.171900       0.001288
    13114.767900       0.001205
    13123.375100       0.001122
    13131.964300       0.001039
    13140.597600       0.000875
    13149.243900       0.000875
    13157.903400       0.000957
    13166.541300       0.000957
    13175.230600       0.001038
    13183.929500       0.001120
    13192.606900       0.001120
    13201.332300       0.001120
    13210.036100       0.001120
    13218.788100       0.001119
    13227.516700       0.001119
    13236.260400       0.001119
    13245.017300       0.001119
    13253.822800       0.001119
    13262.603000       0.001118
    13271.400100       0.001118
    13280.209000       0.001118
    13289.033000       0.001197
    13297.868800       0.001119
    13306.718100       0.000961
    13315.579200       0.000961
    13324.453900       0.000961
    13333.342200       0.000882
    13342.212100       0.000961
    13351.127700       0.000961
    13360.055200       0.000884
    13369.000000       0.000806
    13377.921100       0.000729
    13386.891600       0.000652
    13395.840100       0.000729
    13404.836500       0.000807
    13413.812600       0.000885
    13422.836800       0.001038
    13431.840700       0.001116
    13440.856600       0.001116
    13449.886500       0.001116
    13458.966500       0.001116
    13468.024400       0.001115
    13477.094400       0.001191
    13486.180300       0.001191
    13495.278500       0.001191
    13504.390800       0.001266
    13513.517200       0.001341
    13522.659600       0.001340
    13531.812500       0.001415
    13540.944900       0.001415
    13550.126300       0.001414
    13559.323900       0.001338
    13568.533900       0.001263
    13577.723300       0.001337
    13586.962100       0.001411
    13596.176400       0.001411
    13605.444000       0.001410
    13614.689100       0.001484
    13623.983800       0.001482
    13633.257700       0.001555
    13642.583400       0.001555
    13651.882700       0.001481
    13661.198500       0.001480
    13670.530600       0.001479
    13679.871800       0.001551
    13689.270800       0.001550
    13698.643300       0.001768
    13708.030500       0.001840
    13717.430500       0.001911
    13726.847300       0.001909
    13736.280700       0.002053
    13745.687500       0.001979
    13755.148700       0.002194
    13764.623000       0.002192
    13774.112300       0.002262
    13783.616500       0.002261
    13793.095800       0.002331
    13802.630100       0.002185
    13812.141300       0.002184
    13821.702000       0.002182
    13831.243300       0.002109
    13840.834300       0.002036
    13850.405900       0.002176
    13860.027300       0.002316
    13869.627400       0.002314
    13879.240900       0.002454
    13888.908200       0.002664
    13898.552200       0.002591
    13908.211600       0.002659
    13917.886400       0.002867
    13927.574700       0.003075
    13937.278300       0.003212
    13946.997500       0.003559
    13956.732200       0.003695
    13966.482400       0.003831
    13976.248200       0.003967
    13986.027700       0.004171
    13995.783600       0.004306
    14005.594400       0.004509
    14015.420900       0.004712
    14025.263100       0.004915
    14035.079800       0.004979
    14044.953700       0.005112
    14054.799900       0.005176
    14064.705500       0.005239
    14074.583500       0.005371
    14084.517000       0.005503
    14094.428700       0.005634
    14104.354500       0.005834
    14114.334000       0.005897
    14124.291800       0.005960
    14134.267600       0.006159
    14144.253600       0.006221
    14154.299700       0.006282
    14164.320000       0.006413
    14174.354500       0.006542
    14184.407200       0.006603
    14194.474200       0.006732
    14204.559600       0.006996
    14214.659300       0.007192
    14224.732900       0.007523
    14234.865300       0.007920
    14245.012200       0.008451
    14255.175600       0.008981
    14265.314900       0.009779
    14275.513400       0.010709
    14285.724500       0.011906
    14295.911400       0.013234
    14306.155700       0.014960
    14316.373800       0.017151
    14326.651700       0.019738
    14336.903200       0.022654
    14347.214600       0.026297
    14357.499700       0.030465
    14367.801600       0.035290
    14378.159700       0.040835
    14388.495400       0.047431
    14398.846000       0.055141
    14409.215700       0.064227
    14419.598200       0.074816
    14429.997800       0.087634
    14440.414400       0.102872
    14450.848300       0.120128
    14461.301300       0.140388
    14471.769600       0.163774
    14482.250800       0.190414
    14492.753600       0.218790
    14503.271600       0.250475
    14513.805000       0.283624
    14524.315600       0.318431
    14534.885800       0.353579
    14545.469400       0.390185
    14556.030200       0.426346
    14566.648800       0.462720
    14577.242500       0.497476
    14587.896300       0.533024
    14598.525200       0.566757
    14609.214500       0.600962
    14619.878800       0.634272
    14630.556500       0.666632
    14641.299200       0.696099
    14652.012500       0.727104
    14662.743700       0.755810
    14673.492800       0.782552
    14684.305100       0.808700
    14695.087900       0.832962
    14705.891000       0.853523
    14716.710000       0.871752
    14727.547000       0.887074
    14738.402200       0.900331
    14749.273400       0.913725
    14760.162900       0.925642
    14771.070600       0.937182
    14781.952900       0.946864
    14792.895000       0.955657
    14803.855600       0.963683
    14814.834600       0.971013
    14825.785900       0.977066
    14836.799700       0.983075
    14847.790100       0.989812
    14858.841000       0.993414
    14869.910600       0.995818
    14880.952400       0.997926
    14892.012800       1.000000
    14903.136300       0.999265
    14914.232000       0.996043
    14925.391000       0.990398
    14936.526500       0.980655
    14947.678600       0.967716
    14958.847500       0.948034
    14970.082300       0.927928
    14981.286900       0.905590
    14992.512700       0.879083
    15003.757700       0.850015
    15015.019500       0.821155
    15026.298300       0.788957
    15037.598500       0.753091
    15048.918000       0.716907
    15060.254600       0.678850
    15071.610500       0.639495
    15082.935800       0.598251
    15094.330500       0.556857
    15105.742500       0.514600
    15117.174000       0.471734
    15128.579300       0.429420
    15140.045400       0.388120
    15151.533500       0.348347
    15162.997700       0.310097
    15174.520600       0.274601
    15186.019600       0.241274
    15197.584600       0.210499
    15209.120800       0.182411
    15220.677000       0.157147
    15232.301700       0.134910
    15243.893100       0.115509
    15255.509200       0.098636
    15267.191900       0.084030
    15278.841100       0.071757
    15290.515200       0.061166
    15302.207100       0.052064
    15313.919300       0.044507
    15325.654100       0.038110
    15337.399800       0.032748
    15349.170600       0.028098
    15360.961900       0.024359
    15372.773600       0.021138
    15384.603600       0.018437
    15396.454100       0.016128
    15408.322900       0.014276
    15420.212400       0.012753
    15432.075000       0.011431
    15444.003500       0.010373
    15455.955300       0.009645
    15467.925600       0.008854
    15479.866600       0.008195
    15491.878800       0.007603
    15503.864000       0.007142
    15515.911000       0.006489
    15527.935800       0.006225
    15540.027600       0.005768
    15552.092300       0.005635
    15564.226600       0.005308
    15576.331300       0.005176
    15588.454800       0.004851
    15600.602100       0.004655
    15612.817100       0.004201
    15625.002400       0.003941
    15637.214100       0.003682
    15649.442500       0.003422
    15661.690000       0.003228
    15673.964000       0.003163
    15686.257300       0.002968
    15698.567400       0.002903
    15710.901800       0.002774
    15723.258100       0.002709
    15735.633800       0.002644
    15748.029000       0.002515
    15760.446300       0.002514
    15772.885600       0.002450
    15785.297200       0.002321
    15797.778300       0.002193
    15810.281700       0.002192
    15822.809800       0.001936
    15835.307700       0.001871
    15847.873100       0.001743
    15860.413100       0.001679
    15873.026000       0.001551
    15885.605800       0.001551
    15898.261300       0.001551
    15910.886300       0.001551
    15923.587200       0.001487
    15936.257500       0.001487
    15948.948100       0.001423
    15961.712300       0.001359
    15974.446000       0.001295
    15987.207700       0.001295
    15999.987200       0.001231
    16012.787200       0.001231
    16025.664100       0.001231
    16038.510400       0.001231
    16051.377200       0.001231
    16064.269900       0.001231
    16077.183300       0.001167
    16090.117500       0.001103
    16103.077700       0.001167
    16116.058800       0.001103
    16129.008800       0.001103
    16142.037000       0.001039
    16155.086200       0.001039
    16168.159200       0.000975
    16181.253300       0.000975
    16194.318900       0.000975
    16207.458100       0.001039
    16220.621200       0.001039
    16233.755700       0.001039
    16246.966900       0.001039
    16260.146700       0.001039
    16273.403600       0.001039
    16286.629000       0.001103
    16299.931800       0.001103
    16313.203100       0.001231
    16326.557300       0.001231
    16339.877300       0.001231
    16353.219100       0.001231
    16366.585300       0.001231
    16380.032500       0.001103
    16393.445300       0.001103
    16406.882800       0.001167
    16420.345100       0.001103
    16433.829400       0.001103
    16447.395500       0.001103
    16460.929700       0.001103
    16474.486300       0.001039
    16488.067900       0.001039
    16501.674700       0.001039
    16515.303900       0.000975
    16528.901000       0.000975
    16542.583500       0.000975
    16556.283200       0.000975
    16570.011000       0.000975
    16583.764400       0.001039
    16597.482800       0.001039
    16611.284600       0.001104
    16625.109400       0.001104
    16638.962800       0.001104
    16652.781000       0.001104
    16666.680600       0.001104
    16680.547700       0.001039
    16694.499200       0.001039
    16708.418200       0.001039
    16722.419200       0.001039
    16736.384900       0.001039
    16750.438400       0.001039
    16764.456500       0.001039
    16778.501000       0.001039
    16792.631000       0.001039
    16806.722700       0.001039
    16820.843700       0.000974
    16834.988500       0.000909
    16849.219500       0.000909
    16863.417800       0.000974
    16877.640000       0.000974
    16891.889000       0.001039
    16906.165000       0.001104
    16920.465200       0.001104
    16934.795300       0.001039
    16949.146800       0.001039
    16963.522700       0.001039
    16977.925800       0.001039
    16992.359200       0.001039
    17006.817200       0.000974
    17021.302700       0.000974
    17035.749000       0.000974
    17050.292600       0.000908
    17064.852200       0.000908
    17079.445600       0.000974
    17094.002500       0.000974
    17108.645700       0.000974
    17123.317000       0.001039
    17137.954700       0.001039
    17152.679300       0.001039
    17167.370200       0.001039
    17182.151300       0.001039
    17196.892700       0.000973
    17211.727700       0.000973
    17226.531800       0.000973
    17241.352600       0.000907
    17256.273300       0.000907
    17271.151200       0.000973
    17286.063800       0.000973
    17301.065000       0.000973
    17316.026300       0.001039
    17331.019500       0.000972
    17346.038700       0.000972
    17361.090000       0.000906
    17376.164400       0.000839
    17391.334600       0.000839
    17406.464600       0.000905
