37,   37, MVIRI VIS channel from srf_MET2_1986258_1986259_1801-Release_S10EL_10.dat
Number of data points:
730
Wavenumber (cm-1)   Filter response
     8916.629500       0.000000
     8924.587200       0.000000
     8932.559200       0.000002
     8940.545400       0.000011
     8948.545900       0.000032
     8956.560700       0.000069
     8964.589900       0.000126
     8972.633500       0.000208
     8980.691500       0.000318
     8988.764000       0.000461
     8996.851100       0.000639
     9004.952700       0.000858
     9013.068900       0.001119
     9021.199800       0.001426
     9029.345400       0.001782
     9037.505600       0.002190
     9045.680700       0.002654
     9053.870500       0.003174
     9062.075200       0.003754
     9070.294800       0.004397
     9078.529300       0.005104
     9086.778700       0.005878
     9095.043200       0.006720
     9103.322700       0.007632
     9111.617300       0.008617
     9119.927000       0.009675
     9128.251900       0.010809
     9136.592100       0.012020
     9144.947400       0.013308
     9153.318100       0.014676
     9161.704100       0.016124
     9170.105500       0.017653
     9178.522300       0.019265
     9186.954500       0.020959
     9195.402300       0.022738
     9203.865600       0.024600
     9212.344500       0.026548
     9220.839100       0.028581
     9229.349300       0.030700
     9237.875300       0.032905
     9246.417000       0.035196
     9254.974500       0.037574
     9263.547900       0.040039
     9272.137200       0.042590
     9280.742500       0.045228
     9289.363700       0.047952
     9298.000900       0.050763
     9306.654300       0.053659
     9315.323700       0.056641
     9324.009300       0.059710
     9332.711200       0.062863
     9341.429200       0.066100
     9350.163600       0.069422
     9358.914400       0.072826
     9367.681500       0.076314
     9376.465100       0.079885
     9385.265100       0.083536
     9394.081700       0.087269
     9402.914900       0.091081
     9411.764700       0.094973
     9420.631200       0.098943
     9429.514400       0.102990
     9438.414300       0.107114
     9447.331100       0.111314
     9456.264800       0.115588
     9465.215300       0.119935
     9474.182900       0.124355
     9483.167400       0.128846
     9492.169000       0.133407
     9501.187600       0.138038
     9510.223500       0.142736
     9519.276500       0.147501
     9528.346800       0.152332
     9537.434400       0.157227
     9546.539400       0.162184
     9555.661700       0.167204
     9564.801500       0.172284
     9573.958800       0.177423
     9583.133700       0.182621
     9592.326100       0.187874
     9601.536200       0.193183
     9610.764100       0.198545
     9620.009600       0.203960
     9629.273000       0.209426
     9638.554200       0.214942
     9647.853400       0.220506
     9657.170400       0.226117
     9666.505600       0.231773
     9675.858700       0.237474
     9685.230000       0.243217
     9694.619500       0.249001
     9704.027200       0.254825
     9713.453100       0.260688
     9722.897400       0.266587
     9732.360100       0.272522
     9741.841200       0.278491
     9751.340800       0.284492
     9760.859000       0.290525
     9770.395700       0.296588
     9779.951100       0.302679
     9789.525200       0.308797
     9799.118100       0.314941
     9808.729800       0.321109
     9818.360300       0.327299
     9828.009800       0.333511
     9837.678300       0.339742
     9847.365800       0.345993
     9857.072400       0.352260
     9866.798200       0.358543
     9876.543200       0.364840
     9886.307500       0.371151
     9896.091000       0.377474
     9905.894000       0.383806
     9915.716400       0.390148
     9925.558300       0.396497
     9935.419800       0.402853
     9945.300800       0.409214
     9955.201600       0.415579
     9965.122100       0.421946
     9975.062300       0.428314
     9985.022500       0.434683
     9995.002500       0.441051
    10005.002500       0.447416
    10015.022500       0.453777
    10025.062700       0.460133
    10035.122900       0.466484
    10045.203400       0.472827
    10055.304200       0.479162
    10065.425300       0.485487
    10075.566800       0.491801
    10085.728700       0.498104
    10095.911200       0.504394
    10106.114200       0.510670
    10116.337900       0.516931
    10126.582300       0.523176
    10136.847400       0.529404
    10147.133400       0.535614
    10157.440300       0.541804
    10167.768200       0.547974
    10178.117000       0.554123
    10188.487000       0.560250
    10198.878100       0.566355
    10209.290500       0.572435
    10219.724100       0.578490
    10230.179000       0.584519
    10240.655400       0.590522
    10251.153300       0.596498
    10261.672700       0.602445
    10272.213700       0.608362
    10282.776300       0.614250
    10293.360800       0.620107
    10303.967000       0.625933
    10314.595200       0.631726
    10325.245200       0.637486
    10335.917300       0.643212
    10346.611500       0.648903
    10357.327800       0.654560
    10368.066400       0.660180
    10378.827200       0.665764
    10389.610400       0.671311
    10400.416000       0.676820
    10411.244100       0.682290
    10422.094800       0.687721
    10432.968200       0.693113
    10443.864200       0.698465
    10454.783100       0.703775
    10465.724800       0.709045
    10476.689400       0.714272
    10487.677000       0.719458
    10498.687700       0.724600
    10509.721500       0.729699
    10520.778500       0.734755
    10531.858900       0.739766
    10542.962600       0.744733
    10554.089700       0.749655
    10565.240400       0.754531
    10576.414600       0.759362
    10587.612500       0.764146
    10598.834100       0.768884
    10610.079600       0.773576
    10621.348900       0.778220
    10632.642200       0.782816
    10643.959600       0.787365
    10655.301000       0.791866
    10666.666700       0.796319
    10678.056600       0.800723
    10689.470900       0.805078
    10700.909600       0.809385
    10712.372800       0.813642
    10723.860600       0.817850
    10735.373100       0.822009
    10746.910300       0.826117
    10758.472300       0.830176
    10770.059200       0.834185
    10781.671200       0.838144
    10793.308100       0.842052
    10804.970300       0.845910
    10816.657700       0.849718
    10828.370300       0.853475
    10840.108400       0.857181
    10851.871900       0.860837
    10863.661100       0.864442
    10875.475800       0.867997
    10887.316300       0.871500
    10899.182600       0.874953
    10911.074700       0.878355
    10922.992900       0.881707
    10934.937100       0.885007
    10946.907500       0.888257
    10958.904100       0.891456
    10970.927000       0.894605
    10982.976400       0.897703
    10995.052200       0.900750
    11007.154700       0.903747
    11019.283700       0.906693
    11031.439600       0.909590
    11043.622300       0.912436
    11055.832000       0.915232
    11068.068600       0.917978
    11080.332400       0.920675
    11092.623400       0.923322
    11104.941700       0.925919
    11117.287400       0.928467
    11129.660500       0.930965
    11142.061300       0.933415
    11154.489700       0.935816
    11166.945800       0.938168
    11179.429800       0.940471
    11191.941800       0.942727
    11204.481800       0.944934
    11217.049900       0.947093
    11229.646300       0.949204
    11242.270900       0.951268
    11254.924000       0.953285
    11267.605600       0.955255
    11280.315800       0.957178
    11293.054800       0.959054
    11305.822500       0.960885
    11318.619100       0.962669
    11331.444800       0.964407
    11344.299500       0.966100
    11357.183400       0.967747
    11370.096600       0.969350
    11383.039300       0.970908
    11396.011400       0.972421
    11409.013100       0.973890
    11422.044500       0.975315
    11435.105800       0.976697
    11448.196900       0.978035
    11461.318100       0.979330
    11474.469300       0.980583
    11487.650800       0.981793
    11500.862600       0.982961
    11514.104800       0.984087
    11527.377500       0.985172
    11540.680900       0.986215
    11554.015000       0.987218
    11567.380000       0.988180
    11580.775900       0.989101
    11594.202900       0.989983
    11607.661100       0.990825
    11621.150500       0.991628
    11634.671300       0.992392
    11648.223600       0.993117
    11661.807600       0.993803
    11675.423200       0.994452
    11689.070700       0.995063
    11702.750100       0.995637
    11716.461600       0.996173
    11730.205300       0.996673
    11743.981200       0.997137
    11757.789500       0.997564
    11771.630400       0.997956
    11785.503800       0.998312
    11799.410000       0.998633
    11813.349100       0.998920
    11827.321100       0.999172
    11841.326200       0.999390
    11855.364600       0.999574
    11869.436200       0.999725
    11883.541300       0.999843
    11897.680000       0.999927
    11911.852300       0.999980
    11926.058400       1.000000
    11940.298500       0.999988
    11954.572600       0.999945
    11968.880900       0.999871
    11983.223500       0.999766
    11997.600500       0.999630
    12012.012000       0.999464
    12026.458200       0.999268
    12040.939200       0.999043
    12055.455100       0.998788
    12070.006000       0.998504
    12084.592100       0.998192
    12099.213600       0.997851
    12113.870400       0.997482
    12128.562800       0.997086
    12143.290800       0.996662
    12158.054700       0.996210
    12172.854500       0.995732
    12187.690400       0.995228
    12202.562500       0.994696
    12217.471000       0.994139
    12232.415900       0.993557
    12247.397400       0.992949
    12262.415700       0.992315
    12277.470800       0.991657
    12292.563000       0.990974
    12307.692300       0.990267
    12322.858900       0.989536
    12338.062900       0.988781
    12353.304500       0.988002
    12368.583800       0.987201
    12383.900900       0.986376
    12399.256000       0.985529
    12414.649300       0.984659
    12430.080800       0.983766
    12445.550700       0.982852
    12461.059200       0.981916
    12476.606400       0.980959
    12492.192400       0.979980
    12507.817400       0.978981
    12523.481500       0.977960
    12539.185000       0.976919
    12554.927800       0.975858
    12570.710200       0.974776
    12586.532400       0.973675
    12602.394500       0.972554
    12618.296500       0.971414
    12634.238800       0.970254
    12650.221400       0.969076
    12666.244500       0.967878
    12682.308200       0.966662
    12698.412700       0.965428
    12714.558200       0.964175
    12730.744700       0.962905
    12746.972600       0.961616
    12763.241900       0.960310
    12779.552700       0.958987
    12795.905300       0.957646
    12812.299800       0.956288
    12828.736400       0.954914
    12845.215200       0.953522
    12861.736300       0.952114
    12878.300100       0.950690
    12894.906500       0.949250
    12911.555800       0.947793
    12928.248200       0.946321
    12944.983800       0.944833
    12961.762800       0.943329
    12978.585300       0.941810
    12995.451600       0.940275
    13012.361700       0.938726
    13029.316000       0.937161
    13046.314400       0.935582
    13063.357300       0.933988
    13080.444700       0.932380
    13097.576900       0.930757
    13114.754100       0.929120
    13131.976400       0.927468
    13149.243900       0.925803
    13166.556900       0.924124
    13183.915600       0.922431
    13201.320100       0.920724
    13218.770700       0.919004
    13236.267400       0.917270
    13253.810500       0.915523
    13271.400100       0.913763
    13289.036500       0.911989
    13306.719900       0.910203
    13324.450400       0.908404
    13342.228200       0.906592
    13360.053400       0.904767
    13377.926400       0.902930
    13395.847300       0.901080
    13413.816200       0.899218
    13431.833400       0.897344
    13449.899100       0.895457
    13468.013500       0.893559
    13486.176700       0.891648
    13504.388900       0.889725
    13522.650400       0.887791
    13540.961400       0.885845
    13559.322000       0.883887
    13577.732500       0.881917
    13596.193100       0.879936
    13614.703900       0.877944
    13633.265200       0.875940
    13651.877100       0.873925
    13670.540000       0.871898
    13689.253900       0.869861
    13708.019200       0.867812
    13726.836000       0.865752
    13745.704500       0.863682
    13764.624900       0.861600
    13783.597500       0.859508
    13802.622500       0.857405
    13821.700100       0.855292
    13840.830400       0.853168
    13860.013900       0.851033
    13879.250500       0.848888
    13898.540700       0.846732
    13917.884500       0.844566
    13937.282200       0.842390
    13956.734100       0.840204
    13976.240400       0.838007
    13995.801300       0.835801
    14015.417000       0.833584
    14035.087700       0.831358
    14054.813800       0.829121
    14074.595400       0.826875
    14094.432700       0.824619
    14114.326000       0.822353
    14134.275600       0.820077
    14154.281700       0.817792
    14174.344400       0.815498
    14194.464200       0.813194
    14214.641100       0.810880
    14234.875400       0.808557
    14255.167500       0.806225
    14275.517500       0.803884
    14295.925700       0.801534
    14316.392300       0.799174
    14336.917600       0.796805
    14357.501800       0.794428
    14378.145200       0.792041
    14398.848100       0.789646
    14419.610700       0.787242
    14440.433200       0.784829
    14461.316000       0.782407
    14482.259200       0.779977
    14503.263200       0.777539
    14524.328200       0.775092
    14545.454500       0.772636
    14566.642400       0.770172
    14587.892000       0.767700
    14609.203800       0.765220
    14630.577900       0.762732
    14652.014700       0.760236
    14673.514300       0.757732
    14695.077100       0.755219
    14716.703500       0.752700
    14738.393500       0.750172
    14760.147600       0.747637
    14781.966000       0.745094
    14803.849000       0.742544
    14825.796900       0.739986
    14847.809900       0.737421
    14869.888500       0.734849
    14892.032800       0.732270
    14914.243100       0.729683
    14936.519800       0.727090
    14958.863100       0.724490
    14981.273400       0.721883
    15003.750900       0.719269
    15026.296000       0.716648
    15048.909000       0.714022
    15071.590100       0.711388
    15094.339600       0.708749
    15117.158000       0.706103
    15140.045400       0.703451
    15163.002300       0.700793
    15186.028900       0.698129
    15209.125500       0.695459
    15232.292500       0.692784
    15255.530100       0.690103
    15278.838800       0.687416
    15302.218800       0.684724
    15325.670500       0.682027
    15349.194200       0.679324
    15372.790200       0.676617
    15396.458800       0.673905
    15420.200500       0.671187
    15444.015400       0.668465
    15467.904100       0.665739
    15491.866800       0.663008
    15515.903800       0.660272
    15540.015500       0.657532
    15564.202300       0.654789
    15588.464500       0.652041
    15612.802500       0.649289
    15637.216600       0.646534
    15661.707100       0.643775
    15686.274500       0.641012
    15710.919100       0.638246
    15735.641200       0.635477
    15760.441300       0.632705
    15785.319700       0.629930
    15810.276700       0.627152
    15835.312700       0.624371
    15860.428200       0.621588
    15885.623500       0.618802
    15910.899000       0.616014
    15936.255000       0.613224
    15961.691900       0.610432
    15987.210200       0.607638
    16012.810200       0.604842
    16038.492400       0.602045
    16064.257000       0.599246
    16090.104600       0.596446
    16116.035500       0.593645
    16142.050000       0.590842
    16168.148700       0.588039
    16194.332000       0.585236
    16220.600200       0.582431
    16246.953700       0.579626
    16273.393000       0.576821
    16299.918500       0.574016
    16326.530600       0.571211
    16353.229800       0.568406
    16380.016400       0.565601
    16406.890900       0.562797
    16433.853700       0.559994
    16460.905300       0.557191
    16488.046200       0.554389
    16515.276600       0.551588
    16542.597200       0.548789
    16570.008300       0.545990
    16597.510400       0.543194
    16625.103900       0.540399
    16652.789300       0.537605
    16680.567100       0.534814
    16708.437800       0.532025
    16736.401700       0.529238
    16764.459300       0.526453
    16792.611300       0.523671
    16820.857900       0.520892
    16849.199700       0.518116
    16877.637100       0.515342
    16906.170800       0.512572
    16934.801000       0.509805
    16963.528400       0.507041
    16992.353400       0.504281
    17021.276600       0.501524
    17050.298400       0.498772
    17079.419300       0.496023
    17108.639900       0.493278
    17137.960600       0.490538
    17167.382000       0.487802
    17196.904600       0.485071
    17226.528900       0.482344
    17256.255400       0.479622
    17286.084700       0.476904
    17316.017300       0.474192
    17346.053800       0.471485
    17376.194600       0.468783
    17406.440400       0.466087
    17436.791600       0.463396
    17467.248900       0.460711
    17497.812800       0.458031
    17528.483800       0.455357
    17559.262500       0.452689
    17590.149500       0.450028
    17621.145400       0.447372
    17652.250700       0.444723
    17683.466000       0.442080
    17714.791900       0.439443
    17746.228900       0.436813
    17777.777800       0.434190
    17809.439000       0.431573
    17841.213200       0.428963
    17873.101000       0.426360
    17905.103000       0.423764
    17937.219700       0.421175
    17969.451900       0.418594
    18001.800200       0.416019
    18034.265100       0.413452
    18066.847300       0.410892
    18099.547500       0.408339
    18132.366300       0.405794
    18165.304300       0.403257
    18198.362100       0.400727
    18231.540600       0.398204
    18264.840200       0.395690
    18298.261700       0.393183
    18331.805700       0.390683
    18365.472900       0.388192
    18399.264000       0.385708
    18433.179700       0.383233
    18467.220700       0.380765
    18501.387600       0.378304
    18535.681200       0.375852
    18570.102100       0.373408
    18604.651200       0.370972
    18639.329000       0.368543
    18674.136300       0.366123
    18709.073900       0.363710
    18744.142500       0.361305
    18779.342700       0.358908
    18814.675400       0.356519
    18850.141400       0.354138
    18885.741300       0.351765
    18921.475900       0.349399
    18957.346000       0.347041
    18993.352300       0.344691
    19029.495700       0.342349
    19065.776900       0.340014
    19102.196800       0.337687
    19138.756000       0.335367
    19175.455400       0.333054
    19212.295900       0.330749
    19249.278200       0.328452
    19286.403100       0.326161
    19323.671500       0.323878
    19361.084200       0.321602
    19398.642100       0.319333
    19436.346000       0.317071
    19474.196700       0.314815
    19512.195100       0.312566
    19550.342100       0.310324
    19588.638600       0.308088
    19627.085400       0.305859
    19665.683400       0.303636
    19704.433500       0.301419
    19743.336600       0.299208
    19782.393700       0.297003
    19821.605600       0.294804
    19860.973200       0.292610
    19900.497500       0.290422
    19940.179500       0.288239
    19980.020000       0.286061
    20020.020000       0.283888
    20060.180500       0.281720
    20100.502500       0.279557
    20140.986900       0.277398
    20181.634700       0.275244
    20222.446900       0.273093
    20263.424500       0.270947
    20304.568500       0.268804
    20345.880000       0.266666
    20387.359800       0.264530
    20429.009200       0.262398
    20470.829100       0.260269
    20512.820500       0.258143
    20554.984600       0.256019
    20597.322300       0.253898
    20639.834900       0.251779
    20682.523300       0.249662
    20725.388600       0.247547
    20768.432000       0.245433
    20811.654500       0.243321
    20855.057400       0.241210
    20898.641600       0.239100
    20942.408400       0.236991
    20986.358900       0.234882
    21030.494200       0.232774
    21074.815600       0.230666
    21119.324200       0.228557
    21164.021200       0.226448
    21208.907700       0.224339
    21253.985100       0.222228
    21299.254500       0.220117
    21344.717200       0.218004
    21390.374300       0.215890
    21436.227200       0.213774
    21482.277100       0.211656
    21528.525300       0.209535
    21574.973000       0.207412
    21621.621600       0.205287
    21668.472400       0.203159
    21715.526600       0.201027
    21762.785600       0.198892
    21810.250800       0.196753
    21857.923500       0.194611
    21905.805000       0.192465
    21953.896800       0.190314
    22002.200200       0.188159
    22050.716600       0.185999
    22099.447500       0.183834
    22148.394200       0.181665
    22197.558300       0.179490
    22246.941000       0.177309
    22296.544000       0.175123
    22346.368700       0.172931
    22396.416600       0.170733
    22446.689100       0.168528
    22497.187900       0.166318
    22547.914300       0.164101
    22598.870100       0.161877
    22650.056600       0.159646
    22701.475600       0.157408
    22753.128600       0.155163
    22805.017100       0.152911
    22857.142900       0.150651
    22909.507400       0.148384
    22962.112500       0.146109
    23014.959700       0.143826
    23068.050700       0.141536
    23121.387300       0.139238
    23174.971000       0.136932
    23228.803700       0.134618
    23282.887100       0.132296
    23337.222900       0.129965
    23391.812900       0.127627
    23446.658900       0.125280
    23501.762600       0.122926
    23557.126000       0.120563
    23612.750900       0.118193
    23668.639100       0.115814
    23724.792400       0.113427
    23781.212800       0.111033
    23837.902300       0.108631
    23894.862600       0.106221
    23952.095800       0.103803
    24009.603800       0.101378
    24067.388700       0.098946
    24125.452400       0.096507
    24183.796900       0.094061
    24242.424200       0.091608
    24301.336600       0.089149
    24360.535900       0.086684
    24420.024400       0.084212
    24479.804200       0.081735
    24539.877300       0.079253
    24600.246000       0.076766
    24660.912500       0.074274
    24721.878900       0.071778
    24783.147500       0.069278
    24844.720500       0.066775
    24906.600200       0.064268
    24968.789000       0.061759
    25031.289100       0.059249
    25094.102900       0.056737
    25157.232700       0.054224
    25220.681000       0.051710
    25284.450100       0.049197
    25348.542500       0.046685
    25412.960600       0.044175
    25477.707000       0.041667
