5,   5, MVIRI VIS channel from srf_MET4_1990033_1990034_1801-Release_S10EL_10.dat
Number of data points:
752
Wavenumber (cm-1)   Filter response
     8745.080900       0.000000
     8752.735200       0.000000
     8760.403000       0.000001
     8768.084200       0.000058
     8775.778900       0.000197
     8783.487000       0.000415
     8791.208800       0.000709
     8798.944100       0.001079
     8806.693100       0.001520
     8814.455700       0.002032
     8822.232000       0.002612
     8830.022100       0.003258
     8837.825900       0.003968
     8845.643500       0.004740
     8853.475000       0.005573
     8861.320300       0.006464
     8869.179600       0.007411
     8877.052800       0.008414
     8884.940000       0.009470
     8892.841300       0.010577
     8900.756600       0.011735
     8908.686000       0.012942
     8916.629500       0.014196
     8924.587200       0.015496
     8932.559200       0.016840
     8940.545400       0.018227
     8948.545900       0.019657
     8956.560700       0.021127
     8964.589900       0.022637
     8972.633500       0.024185
     8980.691500       0.025771
     8988.764000       0.027393
     8996.851100       0.029050
     9004.952700       0.030742
     9013.068900       0.032467
     9021.199800       0.034224
     9029.345400       0.036014
     9037.505600       0.037833
     9045.680700       0.039683
     9053.870500       0.041562
     9062.075200       0.043470
     9070.294800       0.045406
     9078.529300       0.047368
     9086.778700       0.049357
     9095.043200       0.051372
     9103.322700       0.053412
     9111.617300       0.055477
     9119.927000       0.057566
     9128.251900       0.059679
     9136.592100       0.061815
     9144.947400       0.063973
     9153.318100       0.066154
     9161.704100       0.068356
     9170.105500       0.070580
     9178.522300       0.072825
     9186.954500       0.075091
     9195.402300       0.077377
     9203.865600       0.079683
     9212.344500       0.082009
     9220.839100       0.084355
     9229.349300       0.086719
     9237.875300       0.089103
     9246.417000       0.091505
     9254.974500       0.093926
     9263.547900       0.096365
     9272.137200       0.098822
     9280.742500       0.101297
     9289.363700       0.103790
     9298.000900       0.106301
     9306.654300       0.108829
     9315.323700       0.111374
     9324.009300       0.113937
     9332.711200       0.116517
     9341.429200       0.119113
     9350.163600       0.121727
     9358.914400       0.124358
     9367.681500       0.127005
     9376.465100       0.129670
     9385.265100       0.132350
     9394.081700       0.135048
     9402.914900       0.137762
     9411.764700       0.140493
     9420.631200       0.143240
     9429.514400       0.146004
     9438.414300       0.148785
     9447.331100       0.151581
     9456.264800       0.154395
     9465.215300       0.157225
     9474.182900       0.160071
     9483.167400       0.162934
     9492.169000       0.165814
     9501.187600       0.168710
     9510.223500       0.171623
     9519.276500       0.174552
     9528.346800       0.177498
     9537.434400       0.180461
     9546.539400       0.183440
     9555.661700       0.186436
     9564.801500       0.189448
     9573.958800       0.192477
     9583.133700       0.195523
     9592.326100       0.198586
     9601.536200       0.201666
     9610.764100       0.204762
     9620.009600       0.207875
     9629.273000       0.211006
     9638.554200       0.214152
     9647.853400       0.217317
     9657.170400       0.220497
     9666.505600       0.223695
     9675.858700       0.226910
     9685.230000       0.230142
     9694.619500       0.233391
     9704.027200       0.236656
     9713.453100       0.239939
     9722.897400       0.243239
     9732.360100       0.246556
     9741.841200       0.249890
     9751.340800       0.253241
     9760.859000       0.256609
     9770.395700       0.259994
     9779.951100       0.263396
     9789.525200       0.266815
     9799.118100       0.270251
     9808.729800       0.273703
     9818.360300       0.277173
     9828.009800       0.280659
     9837.678300       0.284162
     9847.365800       0.287682
     9857.072400       0.291219
     9866.798200       0.294772
     9876.543200       0.298342
     9886.307500       0.301928
     9896.091000       0.305531
     9905.894000       0.309150
     9915.716400       0.312786
     9925.558300       0.316437
     9935.419800       0.320105
     9945.300800       0.323789
     9955.201600       0.327488
     9965.122100       0.331204
     9975.062300       0.334935
     9985.022500       0.338682
     9995.002500       0.342445
    10005.002500       0.346223
    10015.022500       0.350015
    10025.062700       0.353823
    10035.122900       0.357646
    10045.203400       0.361484
    10055.304200       0.365337
    10065.425300       0.369203
    10075.566800       0.373084
    10085.728700       0.376980
    10095.911200       0.380889
    10106.114200       0.384812
    10116.337900       0.388749
    10126.582300       0.392699
    10136.847400       0.396662
    10147.133400       0.400639
    10157.440300       0.404628
    10167.768200       0.408629
    10178.117000       0.412643
    10188.487000       0.416669
    10198.878100       0.420708
    10209.290500       0.424757
    10219.724100       0.428819
    10230.179000       0.432891
    10240.655400       0.436974
    10251.153300       0.441068
    10261.672700       0.445173
    10272.213700       0.449287
    10282.776300       0.453412
    10293.360800       0.457546
    10303.967000       0.461689
    10314.595200       0.465842
    10325.245200       0.470003
    10335.917300       0.474173
    10346.611500       0.478351
    10357.327800       0.482536
    10368.066400       0.486729
    10378.827200       0.490930
    10389.610400       0.495137
    10400.416000       0.499351
    10411.244100       0.503571
    10422.094800       0.507797
    10432.968200       0.512029
    10443.864200       0.516266
    10454.783100       0.520508
    10465.724800       0.524754
    10476.689400       0.529005
    10487.677000       0.533259
    10498.687700       0.537517
    10509.721500       0.541778
    10520.778500       0.546042
    10531.858900       0.550308
    10542.962600       0.554577
    10554.089700       0.558847
    10565.240400       0.563118
    10576.414600       0.567390
    10587.612500       0.571662
    10598.834100       0.575935
    10610.079600       0.580208
    10621.348900       0.584480
    10632.642200       0.588750
    10643.959600       0.593020
    10655.301000       0.597287
    10666.666700       0.601552
    10678.056600       0.605815
    10689.470900       0.610074
    10700.909600       0.614331
    10712.372800       0.618583
    10723.860600       0.622830
    10735.373100       0.627073
    10746.910300       0.631312
    10758.472300       0.635544
    10770.059200       0.639770
    10781.671200       0.643990
    10793.308100       0.648204
    10804.970300       0.652410
    10816.657700       0.656608
    10828.370300       0.660799
    10840.108400       0.664980
    10851.871900       0.669153
    10863.661100       0.673317
    10875.475800       0.677471
    10887.316300       0.681614
    10899.182600       0.685747
    10911.074700       0.689869
    10922.992900       0.693979
    10934.937100       0.698078
    10946.907500       0.702164
    10958.904100       0.706237
    10970.927000       0.710298
    10982.976400       0.714344
    10995.052200       0.718376
    11007.154700       0.722394
    11019.283700       0.726397
    11031.439600       0.730385
    11043.622300       0.734357
    11055.832000       0.738313
    11068.068600       0.742253
    11080.332400       0.746175
    11092.623400       0.750080
    11104.941700       0.753967
    11117.287400       0.757836
    11129.660500       0.761686
    11142.061300       0.765517
    11154.489700       0.769328
    11166.945800       0.773120
    11179.429800       0.776891
    11191.941800       0.780642
    11204.481800       0.784371
    11217.049900       0.788079
    11229.646300       0.791766
    11242.270900       0.795429
    11254.924000       0.799071
    11267.605600       0.802689
    11280.315800       0.806283
    11293.054800       0.809854
    11305.822500       0.813400
    11318.619100       0.816922
    11331.444800       0.820419
    11344.299500       0.823891
    11357.183400       0.827337
    11370.096600       0.830757
    11383.039300       0.834150
    11396.011400       0.837516
    11409.013100       0.840856
    11422.044500       0.844167
    11435.105800       0.847452
    11448.196900       0.850707
    11461.318100       0.853935
    11474.469300       0.857133
    11487.650800       0.860302
    11500.862600       0.863442
    11514.104800       0.866552
    11527.377500       0.869632
    11540.680900       0.872681
    11554.015000       0.875699
    11567.380000       0.878687
    11580.775900       0.881643
    11594.202900       0.884567
    11607.661100       0.887459
    11621.150500       0.890319
    11634.671300       0.893147
    11648.223600       0.895941
    11661.807600       0.898703
    11675.423200       0.901431
    11689.070700       0.904126
    11702.750100       0.906787
    11716.461600       0.909413
    11730.205300       0.912006
    11743.981200       0.914564
    11757.789500       0.917086
    11771.630400       0.919574
    11785.503800       0.922027
    11799.410000       0.924444
    11813.349100       0.926825
    11827.321100       0.929171
    11841.326200       0.931480
    11855.364600       0.933753
    11869.436200       0.935989
    11883.541300       0.938189
    11897.680000       0.940352
    11911.852300       0.942478
    11926.058400       0.944566
    11940.298500       0.946618
    11954.572600       0.948632
    11968.880900       0.950608
    11983.223500       0.952546
    11997.600500       0.954446
    12012.012000       0.956309
    12026.458200       0.958133
    12040.939200       0.959919
    12055.455100       0.961666
    12070.006000       0.963375
    12084.592100       0.965045
    12099.213600       0.966677
    12113.870400       0.968270
    12128.562800       0.969824
    12143.290800       0.971339
    12158.054700       0.972815
    12172.854500       0.974252
    12187.690400       0.975649
    12202.562500       0.977008
    12217.471000       0.978327
    12232.415900       0.979608
    12247.397400       0.980848
    12262.415700       0.982050
    12277.470800       0.983212
    12292.563000       0.984335
    12307.692300       0.985419
    12322.858900       0.986463
    12338.062900       0.987468
    12353.304500       0.988434
    12368.583800       0.989361
    12383.900900       0.990248
    12399.256000       0.991096
    12414.649300       0.991905
    12430.080800       0.992675
    12445.550700       0.993406
    12461.059200       0.994098
    12476.606400       0.994751
    12492.192400       0.995365
    12507.817400       0.995941
    12523.481500       0.996478
    12539.185000       0.996976
    12554.927800       0.997436
    12570.710200       0.997857
    12586.532400       0.998240
    12602.394500       0.998585
    12618.296500       0.998893
    12634.238800       0.999162
    12650.221400       0.999394
    12666.244500       0.999588
    12682.308200       0.999744
    12698.412700       0.999864
    12714.558200       0.999946
    12730.744700       0.999991
    12746.972600       1.000000
    12763.241900       0.999972
    12779.552700       0.999908
    12795.905300       0.999807
    12812.299800       0.999671
    12828.736400       0.999499
    12845.215200       0.999291
    12861.736300       0.999048
    12878.300100       0.998770
    12894.906500       0.998457
    12911.555800       0.998109
    12928.248200       0.997727
    12944.983800       0.997311
    12961.762800       0.996861
    12978.585300       0.996377
    12995.451600       0.995860
    13012.361700       0.995310
    13029.316000       0.994727
    13046.314400       0.994111
    13063.357300       0.993463
    13080.444700       0.992783
    13097.576900       0.992071
    13114.754100       0.991328
    13131.976400       0.990554
    13149.243900       0.989749
    13166.556900       0.988914
    13183.915600       0.988048
    13201.320100       0.987153
    13218.770700       0.986228
    13236.267400       0.985274
    13253.810500       0.984291
    13271.400100       0.983279
    13289.036500       0.982240
    13306.719900       0.981172
    13324.450400       0.980078
    13342.228200       0.978956
    13360.053400       0.977807
    13377.926400       0.976632
    13395.847300       0.975431
    13413.816200       0.974204
    13431.833400       0.972952
    13449.899100       0.971676
    13468.013500       0.970374
    13486.176700       0.969049
    13504.388900       0.967700
    13522.650400       0.966328
    13540.961400       0.964932
    13559.322000       0.963515
    13577.732500       0.962075
    13596.193100       0.960613
    13614.703900       0.959130
    13633.265200       0.957627
    13651.877100       0.956102
    13670.540000       0.954558
    13689.253900       0.952994
    13708.019200       0.951411
    13726.836000       0.949809
    13745.704500       0.948189
    13764.624900       0.946551
    13783.597500       0.944896
    13802.622500       0.943223
    13821.700100       0.941534
    13840.830400       0.939828
    13860.013900       0.938107
    13879.250500       0.936370
    13898.540700       0.934619
    13917.884500       0.932853
    13937.282200       0.931073
    13956.734100       0.929280
    13976.240400       0.927474
    13995.801300       0.925655
    14015.417000       0.923823
    14035.087700       0.921980
    14054.813800       0.920126
    14074.595400       0.918261
    14094.432700       0.916386
    14114.326000       0.914500
    14134.275600       0.912605
    14154.281700       0.910701
    14174.344400       0.908789
    14194.464200       0.906868
    14214.641100       0.904940
    14234.875400       0.903004
    14255.167500       0.901062
    14275.517500       0.899113
    14295.925700       0.897158
    14316.392300       0.895198
    14336.917600       0.893233
    14357.501800       0.891264
    14378.145200       0.889290
    14398.848100       0.887313
    14419.610700       0.885332
    14440.433200       0.883349
    14461.316000       0.881363
    14482.259200       0.879375
    14503.263200       0.877386
    14524.328200       0.875396
    14545.454500       0.873406
    14566.642400       0.871415
    14587.892000       0.869424
    14609.203800       0.867434
    14630.577900       0.865446
    14652.014700       0.863459
    14673.514300       0.861474
    14695.077100       0.859491
    14716.703500       0.857511
    14738.393500       0.855534
    14760.147600       0.853561
    14781.966000       0.851592
    14803.849000       0.849627
    14825.796900       0.847667
    14847.809900       0.845712
    14869.888500       0.843763
    14892.032800       0.841820
    14914.243100       0.839883
    14936.519800       0.837953
    14958.863100       0.836030
    14981.273400       0.834115
    15003.750900       0.832207
    15026.296000       0.830308
    15048.909000       0.828417
    15071.590100       0.826536
    15094.339600       0.824663
    15117.158000       0.822800
    15140.045400       0.820947
    15163.002300       0.819105
    15186.028900       0.817273
    15209.125500       0.815452
    15232.292500       0.813642
    15255.530100       0.811844
    15278.838800       0.810058
    15302.218800       0.808284
    15325.670500       0.806523
    15349.194200       0.804774
    15372.790200       0.803038
    15396.458800       0.801316
    15420.200500       0.799608
    15444.015400       0.797913
    15467.904100       0.796232
    15491.866800       0.794566
    15515.903800       0.792915
    15540.015500       0.791278
    15564.202300       0.789657
    15588.464500       0.788051
    15612.802500       0.786460
    15637.216600       0.784886
    15661.707100       0.783327
    15686.274500       0.781785
    15710.919100       0.780259
    15735.641200       0.778749
    15760.441300       0.777257
    15785.319700       0.775781
    15810.276700       0.774323
    15835.312700       0.772881
    15860.428200       0.771458
    15885.623500       0.770051
    15910.899000       0.768663
    15936.255000       0.767292
    15961.691900       0.765939
    15987.210200       0.764604
    16012.810200       0.763288
    16038.492400       0.761989
    16064.257000       0.760709
    16090.104600       0.759448
    16116.035500       0.758204
    16142.050000       0.756980
    16168.148700       0.755774
    16194.332000       0.754586
    16220.600200       0.753417
    16246.953700       0.752267
    16273.393000       0.751136
    16299.918500       0.750023
    16326.530600       0.748929
    16353.229800       0.747854
    16380.016400       0.746798
    16406.890900       0.745760
    16433.853700       0.744741
    16460.905300       0.743740
    16488.046200       0.742758
    16515.276600       0.741794
    16542.597200       0.740849
    16570.008300       0.739922
    16597.510400       0.739013
    16625.103900       0.738122
    16652.789300       0.737250
    16680.567100       0.736395
    16708.437800       0.735558
    16736.401700       0.734739
    16764.459300       0.733937
    16792.611300       0.733152
    16820.857900       0.732385
    16849.199700       0.731634
    16877.637100       0.730901
    16906.170800       0.730184
    16934.801000       0.729483
    16963.528400       0.728799
    16992.353400       0.728130
    17021.276600       0.727477
    17050.298400       0.726840
    17079.419300       0.726218
    17108.639900       0.725611
    17137.960600       0.725018
    17167.382000       0.724440
    17196.904600       0.723876
    17226.528900       0.723326
    17256.255400       0.722790
    17286.084700       0.722266
    17316.017300       0.721756
    17346.053800       0.721258
    17376.194600       0.720772
    17406.440400       0.720298
    17436.791600       0.719835
    17467.248900       0.719383
    17497.812800       0.718943
    17528.483800       0.718512
    17559.262500       0.718091
    17590.149500       0.717680
    17621.145400       0.717278
    17652.250700       0.716885
    17683.466000       0.716499
    17714.791900       0.716122
    17746.228900       0.715751
    17777.777800       0.715388
    17809.439000       0.715031
    17841.213200       0.714679
    17873.101000       0.714333
    17905.103000       0.713992
    17937.219700       0.713655
    17969.451900       0.713322
    18001.800200       0.712993
    18034.265100       0.712666
    18066.847300       0.712341
    18099.547500       0.712018
    18132.366300       0.711696
    18165.304300       0.711374
    18198.362100       0.711053
    18231.540600       0.710731
    18264.840200       0.710407
    18298.261700       0.710082
    18331.805700       0.709754
    18365.472900       0.709424
    18399.264000       0.709089
    18433.179700       0.708750
    18467.220700       0.708407
    18501.387600       0.708058
    18535.681200       0.707702
    18570.102100       0.707340
    18604.651200       0.706970
    18639.329000       0.706592
    18674.136300       0.706205
    18709.073900       0.705808
    18744.142500       0.705402
    18779.342700       0.704984
    18814.675400       0.704554
    18850.141400       0.704113
    18885.741300       0.703658
    18921.475900       0.703189
    18957.346000       0.702706
    18993.352300       0.702208
    19029.495700       0.701694
    19065.776900       0.701163
    19102.196800       0.700615
    19138.756000       0.700049
    19175.455400       0.699464
    19212.295900       0.698859
    19249.278200       0.698234
    19286.403100       0.697587
    19323.671500       0.696919
    19361.084200       0.696228
    19398.642100       0.695514
    19436.346000       0.694776
    19474.196700       0.694013
    19512.195100       0.693224
    19550.342100       0.692408
    19588.638600       0.691566
    19627.085400       0.690695
    19665.683400       0.689796
    19704.433500       0.688867
    19743.336600       0.687908
    19782.393700       0.686918
    19821.605600       0.685896
    19860.973200       0.684842
    19900.497500       0.683754
    19940.179500       0.682632
    19980.020000       0.681475
    20020.020000       0.680283
    20060.180500       0.679054
    20100.502500       0.677788
    20140.986900       0.676485
    20181.634700       0.675142
    20222.446900       0.673760
    20263.424500       0.672339
    20304.568500       0.670876
    20345.880000       0.669371
    20387.359800       0.667825
    20429.009200       0.666235
    20470.829100       0.664602
    20512.820500       0.662924
    20554.984600       0.661201
    20597.322300       0.659432
    20639.834900       0.657616
    20682.523300       0.655754
    20725.388600       0.653843
    20768.432000       0.651884
    20811.654500       0.649876
    20855.057400       0.647817
    20898.641600       0.645709
    20942.408400       0.643549
    20986.358900       0.641337
    21030.494200       0.639073
    21074.815600       0.636756
    21119.324200       0.634386
    21164.021200       0.631961
    21208.907700       0.629482
    21253.985100       0.626948
    21299.254500       0.624358
    21344.717200       0.621711
    21390.374300       0.619008
    21436.227200       0.616248
    21482.277100       0.613430
    21528.525300       0.610553
    21574.973000       0.607619
    21621.621600       0.604625
    21668.472400       0.601571
    21715.526600       0.598458
    21762.785600       0.595285
    21810.250800       0.592051
    21857.923500       0.588756
    21905.805000       0.585400
    21953.896800       0.581983
    22002.200200       0.578504
    22050.716600       0.574963
    22099.447500       0.571360
    22148.394200       0.567694
    22197.558300       0.563966
    22246.941000       0.560175
    22296.544000       0.556321
    22346.368700       0.552404
    22396.416600       0.548425
    22446.689100       0.544382
    22497.187900       0.540276
    22547.914300       0.536107
    22598.870100       0.531875
    22650.056600       0.527580
    22701.475600       0.523222
    22753.128600       0.518801
    22805.017100       0.514318
    22857.142900       0.509772
    22909.507400       0.505164
    22962.112500       0.500494
    23014.959700       0.495763
    23068.050700       0.490970
    23121.387300       0.486116
    23174.971000       0.481201
    23228.803700       0.476226
    23282.887100       0.471192
    23337.222900       0.466099
    23391.812900       0.460946
    23446.658900       0.455736
    23501.762600       0.450468
    23557.126000       0.445144
    23612.750900       0.439763
    23668.639100       0.434327
    23724.792400       0.428837
    23781.212800       0.423293
    23837.902300       0.417696
    23894.862600       0.412047
    23952.095800       0.406347
    24009.603800       0.400598
    24067.388700       0.394799
    24125.452400       0.388953
    24183.796900       0.383061
    24242.424200       0.377123
    24301.336600       0.371141
    24360.535900       0.365117
    24420.024400       0.359051
    24479.804200       0.352945
    24539.877300       0.346801
    24600.246000       0.340620
    24660.912500       0.334403
    24721.878900       0.328154
    24783.147500       0.321872
    24844.720500       0.315560
    24906.600200       0.309220
    24968.789000       0.302854
    25031.289100       0.296463
    25094.102900       0.290050
    25157.232700       0.283617
    25220.681000       0.277166
    25284.450100       0.270699
    25348.542500       0.264218
    25412.960600       0.257726
    25477.707000       0.251225
