05  , Filter noaa_09_avhrr_05.flt
Number of data points:
60
Wavenumber (cm-1)   Filter response
      793.651000       0.000000
      795.361400       0.000000
      797.071800       0.000000
      798.782200       0.000946
      800.492600       0.030729
      802.203000       0.082275
      803.913400       0.152360
      805.623800       0.237160
      807.334200       0.332720
      809.044600       0.432284
      810.755000       0.526426
      812.465400       0.605616
      814.175800       0.661235
      815.886200       0.694882
      817.596600       0.714348
      819.307000       0.727657
      821.017400       0.742086
      822.727800       0.759376
      824.438200       0.779029
      826.148600       0.800299
      827.859000       0.822564
      829.569400       0.844767
      831.279800       0.865912
      832.990200       0.884819
      834.700600       0.900491
      836.411000       0.912868
      838.121400       0.922072
      839.831800       0.928416
      841.542200       0.932210
      843.252600       0.934760
      844.963000       0.937994
      846.673400       0.943778
      848.383800       0.953977
      850.094200       0.967535
      851.804600       0.980969
      853.515000       0.990733
      855.225400       0.993283
      856.935800       0.988121
      858.646200       0.979912
      860.356600       0.973817
      862.067000       0.974874
      863.777400       0.985571
      865.487800       0.997637
      867.198200       1.000000
      868.908600       0.981715
      870.619000       0.932459
      872.329400       0.852167
      874.039800       0.748305
      875.750200       0.628397
      877.460600       0.500081
      879.171000       0.370993
      880.881400       0.248927
      882.591800       0.141694
      884.302200       0.057107
      886.012600       0.002377
      887.723000       0.000000
      889.433400       0.000000
      891.143800       0.000000
      892.854200       0.000000
      894.564600       0.000000
