87,   87, MVIRI VIS channel from srf_MET7_2008168_2008169_1801-Release_S10EE_10.dat
Number of data points:
793
Wavenumber (cm-1)   Filter response
     8442.380800       0.000000
     8449.514200       0.000000
     8456.659600       0.000004
     8463.817200       0.000056
     8470.986900       0.000165
     8478.168700       0.000330
     8485.362700       0.000549
     8492.569000       0.000820
     8499.787500       0.001143
     8507.018300       0.001515
     8514.261400       0.001936
     8521.516800       0.002403
     8528.784600       0.002916
     8536.064900       0.003473
     8543.357500       0.004072
     8550.662700       0.004714
     8557.980300       0.005396
     8565.310500       0.006118
     8572.653200       0.006878
     8580.008600       0.007675
     8587.376600       0.008509
     8594.757200       0.009379
     8602.150500       0.010283
     8609.556600       0.011221
     8616.975400       0.012192
     8624.407100       0.013195
     8631.851500       0.014230
     8639.308900       0.015295
     8646.779100       0.016390
     8654.262200       0.017514
     8661.758300       0.018668
     8669.267400       0.019849
     8676.789600       0.021058
     8684.324800       0.022294
     8691.873100       0.023557
     8699.434500       0.024845
     8707.009100       0.026159
     8714.596900       0.027498
     8722.198000       0.028863
     8729.812300       0.030251
     8737.439900       0.031663
     8745.080900       0.033100
     8752.735200       0.034559
     8760.403000       0.036042
     8768.084200       0.037547
     8775.778900       0.039075
     8783.487000       0.040625
     8791.208800       0.042197
     8798.944100       0.043791
     8806.693100       0.045407
     8814.455700       0.047044
     8822.232000       0.048703
     8830.022100       0.050383
     8837.825900       0.052084
     8845.643500       0.053807
     8853.475000       0.055550
     8861.320300       0.057314
     8869.179600       0.059098
     8877.052800       0.060904
     8884.940000       0.062730
     8892.841300       0.064576
     8900.756600       0.066444
     8908.686000       0.068332
     8916.629500       0.070240
     8924.587200       0.072169
     8932.559200       0.074119
     8940.545400       0.076090
     8948.545900       0.078081
     8956.560700       0.080092
     8964.589900       0.082125
     8972.633500       0.084178
     8980.691500       0.086252
     8988.764000       0.088347
     8996.851100       0.090462
     9004.952700       0.092599
     9013.068900       0.094757
     9021.199800       0.096936
     9029.345400       0.099136
     9037.505600       0.101357
     9045.680700       0.103600
     9053.870500       0.105864
     9062.075200       0.108150
     9070.294800       0.110458
     9078.529300       0.112787
     9086.778700       0.115138
     9095.043200       0.117511
     9103.322700       0.119905
     9111.617300       0.122322
     9119.927000       0.124761
     9128.251900       0.127222
     9136.592100       0.129706
     9144.947400       0.132212
     9153.318100       0.134741
     9161.704100       0.137292
     9170.105500       0.139866
     9178.522300       0.142462
     9186.954500       0.145082
     9195.402300       0.147724
     9203.865600       0.150389
     9212.344500       0.153078
     9220.839100       0.155790
     9229.349300       0.158524
     9237.875300       0.161282
     9246.417000       0.164063
     9254.974500       0.166868
     9263.547900       0.169697
     9272.137200       0.172548
     9280.742500       0.175423
     9289.363700       0.178322
     9298.000900       0.181244
     9306.654300       0.184190
     9315.323700       0.187160
     9324.009300       0.190153
     9332.711200       0.193170
     9341.429200       0.196211
     9350.163600       0.199275
     9358.914400       0.202363
     9367.681500       0.205475
     9376.465100       0.208611
     9385.265100       0.211770
     9394.081700       0.214952
     9402.914900       0.218159
     9411.764700       0.221389
     9420.631200       0.224642
     9429.514400       0.227919
     9438.414300       0.231220
     9447.331100       0.234544
     9456.264800       0.237891
     9465.215300       0.241262
     9474.182900       0.244655
     9483.167400       0.248072
     9492.169000       0.251511
     9501.187600       0.254974
     9510.223500       0.258460
     9519.276500       0.261968
     9528.346800       0.265499
     9537.434400       0.269053
     9546.539400       0.272628
     9555.661700       0.276226
     9564.801500       0.279846
     9573.958800       0.283488
     9583.133700       0.287152
     9592.326100       0.290837
     9601.536200       0.294544
     9610.764100       0.298271
     9620.009600       0.302021
     9629.273000       0.305791
     9638.554200       0.309582
     9647.853400       0.313393
     9657.170400       0.317225
     9666.505600       0.321077
     9675.858700       0.324948
     9685.230000       0.328840
     9694.619500       0.332751
     9704.027200       0.336680
     9713.453100       0.340630
     9722.897400       0.344597
     9732.360100       0.348583
     9741.841200       0.352588
     9751.340800       0.356610
     9760.859000       0.360650
     9770.395700       0.364708
     9779.951100       0.368782
     9789.525200       0.372874
     9799.118100       0.376982
     9808.729800       0.381106
     9818.360300       0.385246
     9828.009800       0.389402
     9837.678300       0.393573
     9847.365800       0.397759
     9857.072400       0.401960
     9866.798200       0.406175
     9876.543200       0.410404
     9886.307500       0.414647
     9896.091000       0.418903
     9905.894000       0.423171
     9915.716400       0.427453
     9925.558300       0.431746
     9935.419800       0.436052
     9945.300800       0.440369
     9955.201600       0.444697
     9965.122100       0.449036
     9975.062300       0.453385
     9985.022500       0.457745
     9995.002500       0.462114
    10005.002500       0.466492
    10015.022500       0.470878
    10025.062700       0.475273
    10035.122900       0.479676
    10045.203400       0.484087
    10055.304200       0.488505
    10065.425300       0.492929
    10075.566800       0.497360
    10085.728700       0.501796
    10095.911200       0.506238
    10106.114200       0.510685
    10116.337900       0.515137
    10126.582300       0.519593
    10136.847400       0.524052
    10147.133400       0.528515
    10157.440300       0.532980
    10167.768200       0.537448
    10178.117000       0.541918
    10188.487000       0.546389
    10198.878100       0.550862
    10209.290500       0.555334
    10219.724100       0.559807
    10230.179000       0.564280
    10240.655400       0.568752
    10251.153300       0.573222
    10261.672700       0.577691
    10272.213700       0.582157
    10282.776300       0.586621
    10293.360800       0.591082
    10303.967000       0.595539
    10314.595200       0.599991
    10325.245200       0.604440
    10335.917300       0.608883
    10346.611500       0.613321
    10357.327800       0.617753
    10368.066400       0.622179
    10378.827200       0.626597
    10389.610400       0.631008
    10400.416000       0.635412
    10411.244100       0.639807
    10422.094800       0.644193
    10432.968200       0.648570
    10443.864200       0.652937
    10454.783100       0.657294
    10465.724800       0.661640
    10476.689400       0.665976
    10487.677000       0.670299
    10498.687700       0.674611
    10509.721500       0.678910
    10520.778500       0.683196
    10531.858900       0.687468
    10542.962600       0.691727
    10554.089700       0.695971
    10565.240400       0.700200
    10576.414600       0.704414
    10587.612500       0.708612
    10598.834100       0.712794
    10610.079600       0.716960
    10621.348900       0.721108
    10632.642200       0.725239
    10643.959600       0.729351
    10655.301000       0.733445
    10666.666700       0.737521
    10678.056600       0.741577
    10689.470900       0.745613
    10700.909600       0.749629
    10712.372800       0.753624
    10723.860600       0.757599
    10735.373100       0.761552
    10746.910300       0.765483
    10758.472300       0.769391
    10770.059200       0.773277
    10781.671200       0.777140
    10793.308100       0.780979
    10804.970300       0.784795
    10816.657700       0.788586
    10828.370300       0.792352
    10840.108400       0.796093
    10851.871900       0.799809
    10863.661100       0.803499
    10875.475800       0.807163
    10887.316300       0.810800
    10899.182600       0.814410
    10911.074700       0.817992
    10922.992900       0.821547
    10934.937100       0.825074
    10946.907500       0.828572
    10958.904100       0.832042
    10970.927000       0.835482
    10982.976400       0.838893
    10995.052200       0.842274
    11007.154700       0.845625
    11019.283700       0.848946
    11031.439600       0.852236
    11043.622300       0.855495
    11055.832000       0.858722
    11068.068600       0.861918
    11080.332400       0.865082
    11092.623400       0.868213
    11104.941700       0.871312
    11117.287400       0.874378
    11129.660500       0.877411
    11142.061300       0.880411
    11154.489700       0.883377
    11166.945800       0.886309
    11179.429800       0.889207
    11191.941800       0.892070
    11204.481800       0.894899
    11217.049900       0.897693
    11229.646300       0.900452
    11242.270900       0.903176
    11254.924000       0.905864
    11267.605600       0.908516
    11280.315800       0.911133
    11293.054800       0.913713
    11305.822500       0.916257
    11318.619100       0.918765
    11331.444800       0.921235
    11344.299500       0.923669
    11357.183400       0.926066
    11370.096600       0.928426
    11383.039300       0.930748
    11396.011400       0.933033
    11409.013100       0.935280
    11422.044500       0.937490
    11435.105800       0.939662
    11448.196900       0.941795
    11461.318100       0.943891
    11474.469300       0.945948
    11487.650800       0.947967
    11500.862600       0.949948
    11514.104800       0.951890
    11527.377500       0.953793
    11540.680900       0.955658
    11554.015000       0.957484
    11567.380000       0.959272
    11580.775900       0.961020
    11594.202900       0.962730
    11607.661100       0.964401
    11621.150500       0.966033
    11634.671300       0.967626
    11648.223600       0.969179
    11661.807600       0.970694
    11675.423200       0.972170
    11689.070700       0.973607
    11702.750100       0.975005
    11716.461600       0.976364
    11730.205300       0.977684
    11743.981200       0.978965
    11757.789500       0.980207
    11771.630400       0.981410
    11785.503800       0.982575
    11799.410000       0.983700
    11813.349100       0.984788
    11827.321100       0.985836
    11841.326200       0.986846
    11855.364600       0.987817
    11869.436200       0.988750
    11883.541300       0.989645
    11897.680000       0.990502
    11911.852300       0.991320
    11926.058400       0.992101
    11940.298500       0.992844
    11954.572600       0.993549
    11968.880900       0.994216
    11983.223500       0.994847
    11997.600500       0.995439
    12012.012000       0.995995
    12026.458200       0.996514
    12040.939200       0.996996
    12055.455100       0.997441
    12070.006000       0.997850
    12084.592100       0.998223
    12099.213600       0.998559
    12113.870400       0.998860
    12128.562800       0.999125
    12143.290800       0.999355
    12158.054700       0.999549
    12172.854500       0.999708
    12187.690400       0.999833
    12202.562500       0.999923
    12217.471000       0.999978
    12232.415900       1.000000
    12247.397400       0.999988
    12262.415700       0.999942
    12277.470800       0.999863
    12292.563000       0.999750
    12307.692300       0.999605
    12322.858900       0.999428
    12338.062900       0.999218
    12353.304500       0.998976
    12368.583800       0.998703
    12383.900900       0.998399
    12399.256000       0.998063
    12414.649300       0.997696
    12430.080800       0.997300
    12445.550700       0.996873
    12461.059200       0.996416
    12476.606400       0.995930
    12492.192400       0.995414
    12507.817400       0.994870
    12523.481500       0.994298
    12539.185000       0.993697
    12554.927800       0.993069
    12570.710200       0.992413
    12586.532400       0.991730
    12602.394500       0.991021
    12618.296500       0.990285
    12634.238800       0.989523
    12650.221400       0.988736
    12666.244500       0.987923
    12682.308200       0.987086
    12698.412700       0.986224
    12714.558200       0.985338
    12730.744700       0.984428
    12746.972600       0.983496
    12763.241900       0.982540
    12779.552700       0.981562
    12795.905300       0.980562
    12812.299800       0.979540
    12828.736400       0.978497
    12845.215200       0.977433
    12861.736300       0.976349
    12878.300100       0.975245
    12894.906500       0.974121
    12911.555800       0.972978
    12928.248200       0.971817
    12944.983800       0.970637
    12961.762800       0.969439
    12978.585300       0.968224
    12995.451600       0.966992
    13012.361700       0.965743
    13029.316000       0.964478
    13046.314400       0.963197
    13063.357300       0.961902
    13080.444700       0.960591
    13097.576900       0.959266
    13114.754100       0.957927
    13131.976400       0.956575
    13149.243900       0.955209
    13166.556900       0.953832
    13183.915600       0.952441
    13201.320100       0.951040
    13218.770700       0.949627
    13236.267400       0.948203
    13253.810500       0.946769
    13271.400100       0.945325
    13289.036500       0.943872
    13306.719900       0.942410
    13324.450400       0.940939
    13342.228200       0.939460
    13360.053400       0.937974
    13377.926400       0.936480
    13395.847300       0.934980
    13413.816200       0.933474
    13431.833400       0.931961
    13449.899100       0.930444
    13468.013500       0.928921
    13486.176700       0.927394
    13504.388900       0.925863
    13522.650400       0.924328
    13540.961400       0.922791
    13559.322000       0.921250
    13577.732500       0.919708
    13596.193100       0.918163
    13614.703900       0.916618
    13633.265200       0.915071
    13651.877100       0.913524
    13670.540000       0.911977
    13689.253900       0.910430
    13708.019200       0.908884
    13726.836000       0.907339
    13745.704500       0.905796
    13764.624900       0.904255
    13783.597500       0.902716
    13802.622500       0.901180
    13821.700100       0.899648
    13840.830400       0.898119
    13860.013900       0.896595
    13879.250500       0.895075
    13898.540700       0.893560
    13917.884500       0.892050
    13937.282200       0.890546
    13956.734100       0.889048
    13976.240400       0.887557
    13995.801300       0.886072
    14015.417000       0.884595
    14035.087700       0.883125
    14054.813800       0.881664
    14074.595400       0.880211
    14094.432700       0.878766
    14114.326000       0.877331
    14134.275600       0.875904
    14154.281700       0.874488
    14174.344400       0.873082
    14194.464200       0.871686
    14214.641100       0.870301
    14234.875400       0.868928
    14255.167500       0.867565
    14275.517500       0.866215
    14295.925700       0.864876
    14316.392300       0.863550
    14336.917600       0.862237
    14357.501800       0.860936
    14378.145200       0.859649
    14398.848100       0.858375
    14419.610700       0.857115
    14440.433200       0.855869
    14461.316000       0.854638
    14482.259200       0.853421
    14503.263200       0.852219
    14524.328200       0.851032
    14545.454500       0.849860
    14566.642400       0.848704
    14587.892000       0.847564
    14609.203800       0.846440
    14630.577900       0.845332
    14652.014700       0.844241
    14673.514300       0.843166
    14695.077100       0.842108
    14716.703500       0.841067
    14738.393500       0.840043
    14760.147600       0.839037
    14781.966000       0.838048
    14803.849000       0.837077
    14825.796900       0.836123
    14847.809900       0.835188
    14869.888500       0.834271
    14892.032800       0.833372
    14914.243100       0.832491
    14936.519800       0.831629
    14958.863100       0.830785
    14981.273400       0.829960
    15003.750900       0.829154
    15026.296000       0.828366
    15048.909000       0.827598
    15071.590100       0.826848
    15094.339600       0.826117
    15117.158000       0.825406
    15140.045400       0.824713
    15163.002300       0.824040
    15186.028900       0.823385
    15209.125500       0.822750
    15232.292500       0.822134
    15255.530100       0.821537
    15278.838800       0.820959
    15302.218800       0.820401
    15325.670500       0.819861
    15349.194200       0.819340
    15372.790200       0.818838
    15396.458800       0.818356
    15420.200500       0.817892
    15444.015400       0.817446
    15467.904100       0.817020
    15491.866800       0.816612
    15515.903800       0.816222
    15540.015500       0.815851
    15564.202300       0.815498
    15588.464500       0.815163
    15612.802500       0.814846
    15637.216600       0.814547
    15661.707100       0.814265
    15686.274500       0.814001
    15710.919100       0.813754
    15735.641200       0.813524
    15760.441300       0.813311
    15785.319700       0.813115
    15810.276700       0.812935
    15835.312700       0.812772
    15860.428200       0.812625
    15885.623500       0.812493
    15910.899000       0.812377
    15936.255000       0.812276
    15961.691900       0.812190
    15987.210200       0.812119
    16012.810200       0.812062
    16038.492400       0.812019
    16064.257000       0.811990
    16090.104600       0.811974
    16116.035500       0.811972
    16142.050000       0.811983
    16168.148700       0.812005
    16194.332000       0.812040
    16220.600200       0.812087
    16246.953700       0.812145
    16273.393000       0.812214
    16299.918500       0.812294
    16326.530600       0.812384
    16353.229800       0.812484
    16380.016400       0.812593
    16406.890900       0.812711
    16433.853700       0.812837
    16460.905300       0.812972
    16488.046200       0.813114
    16515.276600       0.813263
    16542.597200       0.813419
    16570.008300       0.813581
    16597.510400       0.813749
    16625.103900       0.813922
    16652.789300       0.814100
    16680.567100       0.814281
    16708.437800       0.814467
    16736.401700       0.814656
    16764.459300       0.814847
    16792.611300       0.815040
    16820.857900       0.815235
    16849.199700       0.815431
    16877.637100       0.815627
    16906.170800       0.815823
    16934.801000       0.816018
    16963.528400       0.816211
    16992.353400       0.816403
    17021.276600       0.816592
    17050.298400       0.816778
    17079.419300       0.816960
    17108.639900       0.817138
    17137.960600       0.817310
    17167.382000       0.817477
    17196.904600       0.817637
    17226.528900       0.817791
    17256.255400       0.817936
    17286.084700       0.818074
    17316.017300       0.818202
    17346.053800       0.818320
    17376.194600       0.818429
    17406.440400       0.818526
    17436.791600       0.818611
    17467.248900       0.818684
    17497.812800       0.818744
    17528.483800       0.818789
    17559.262500       0.818821
    17590.149500       0.818836
    17621.145400       0.818836
    17652.250700       0.818819
    17683.466000       0.818785
    17714.791900       0.818732
    17746.228900       0.818660
    17777.777800       0.818569
    17809.439000       0.818457
    17841.213200       0.818324
    17873.101000       0.818169
    17905.103000       0.817991
    17937.219700       0.817789
    17969.451900       0.817564
    18001.800200       0.817313
    18034.265100       0.817037
    18066.847300       0.816734
    18099.547500       0.816403
    18132.366300       0.816045
    18165.304300       0.815657
    18198.362100       0.815240
    18231.540600       0.814793
    18264.840200       0.814314
    18298.261700       0.813803
    18331.805700       0.813260
    18365.472900       0.812683
    18399.264000       0.812072
    18433.179700       0.811425
    18467.220700       0.810743
    18501.387600       0.810024
    18535.681200       0.809268
    18570.102100       0.808473
    18604.651200       0.807640
    18639.329000       0.806767
    18674.136300       0.805853
    18709.073900       0.804898
    18744.142500       0.803901
    18779.342700       0.802862
    18814.675400       0.801779
    18850.141400       0.800651
    18885.741300       0.799479
    18921.475900       0.798261
    18957.346000       0.796996
    18993.352300       0.795685
    19029.495700       0.794325
    19065.776900       0.792916
    19102.196800       0.791459
    19138.756000       0.789951
    19175.455400       0.788392
    19212.295900       0.786782
    19249.278200       0.785120
    19286.403100       0.783405
    19323.671500       0.781637
    19361.084200       0.779814
    19398.642100       0.777937
    19436.346000       0.776004
    19474.196700       0.774015
    19512.195100       0.771969
    19550.342100       0.769866
    19588.638600       0.767705
    19627.085400       0.765485
    19665.683400       0.763207
    19704.433500       0.760868
    19743.336600       0.758469
    19782.393700       0.756010
    19821.605600       0.753489
    19860.973200       0.750906
    19900.497500       0.748261
    19940.179500       0.745553
    19980.020000       0.742782
    20020.020000       0.739947
    20060.180500       0.737047
    20100.502500       0.734083
    20140.986900       0.731053
    20181.634700       0.727958
    20222.446900       0.724797
    20263.424500       0.721570
    20304.568500       0.718276
    20345.880000       0.714915
    20387.359800       0.711487
    20429.009200       0.707991
    20470.829100       0.704427
    20512.820500       0.700794
    20554.984600       0.697094
    20597.322300       0.693324
    20639.834900       0.689486
    20682.523300       0.685579
    20725.388600       0.681602
    20768.432000       0.677556
    20811.654500       0.673441
    20855.057400       0.669256
    20898.641600       0.665001
    20942.408400       0.660677
    20986.358900       0.656283
    21030.494200       0.651819
    21074.815600       0.647286
    21119.324200       0.642683
    21164.021200       0.638010
    21208.907700       0.633268
    21253.985100       0.628456
    21299.254500       0.623576
    21344.717200       0.618626
    21390.374300       0.613608
    21436.227200       0.608521
    21482.277100       0.603366
    21528.525300       0.598144
    21574.973000       0.592853
    21621.621600       0.587496
    21668.472400       0.582071
    21715.526600       0.576580
    21762.785600       0.571024
    21810.250800       0.565402
    21857.923500       0.559715
    21905.805000       0.553964
    21953.896800       0.548149
    22002.200200       0.542271
    22050.716600       0.536331
    22099.447500       0.530330
    22148.394200       0.524267
    22197.558300       0.518145
    22246.941000       0.511963
    22296.544000       0.505722
    22346.368700       0.499425
    22396.416600       0.493070
    22446.689100       0.486661
    22497.187900       0.480196
    22547.914300       0.473679
    22598.870100       0.467109
    22650.056600       0.460488
    22701.475600       0.453816
    22753.128600       0.447097
    22805.017100       0.440329
    22857.142900       0.433516
    22909.507400       0.426658
    22962.112500       0.419757
    23014.959700       0.412814
    23068.050700       0.405830
    23121.387300       0.398808
    23174.971000       0.391749
    23228.803700       0.384655
    23282.887100       0.377527
    23337.222900       0.370367
    23391.812900       0.363177
    23446.658900       0.355958
    23501.762600       0.348714
    23557.126000       0.341445
    23612.750900       0.334154
    23668.639100       0.326843
    23724.792400       0.319514
    23781.212800       0.312169
    23837.902300       0.304810
    23894.862600       0.297441
    23952.095800       0.290062
    24009.603800       0.282677
    24067.388700       0.275288
    24125.452400       0.267898
    24183.796900       0.260510
    24242.424200       0.253125
    24301.336600       0.245746
    24360.535900       0.238378
    24420.024400       0.231021
    24479.804200       0.223680
    24539.877300       0.216357
    24600.246000       0.209056
    24660.912500       0.201779
    24721.878900       0.194530
    24783.147500       0.187311
    24844.720500       0.180127
    24906.600200       0.172980
    24968.789000       0.165875
    25031.289100       0.158814
    25094.102900       0.151802
    25157.232700       0.144841
    25220.681000       0.137936
    25284.450100       0.131091
    25348.542500       0.124309
    25412.960600       0.117594
    25477.707000       0.110951
