          26  , Jan 12th 2012 http://fy3.satellite.cma.gov.cn/ArssEn/Download/FY3A_calibration_info_params.rar
Number of data points:
155
Wavenumber (cm-1)   Filter response
     5010.020000       0.003315
     5020.081000       0.003862
     5030.181000       0.004037
     5040.323000       0.003630
     5050.505000       0.003461
     5060.729000       0.003521
     5070.994000       0.003546
     5081.301000       0.003804
     5091.650000       0.004083
     5102.041000       0.004255
     5112.475000       0.004433
     5122.951000       0.004393
     5133.470000       0.004064
     5144.033000       0.003914
     5154.639000       0.004109
     5165.289000       0.004205
     5175.983000       0.004276
     5186.722000       0.004187
     5197.505000       0.003940
     5208.333000       0.003019
     5219.207000       0.002067
     5230.125000       0.002143
     5241.090000       0.003850
     5252.101000       0.006133
     5263.158000       0.006073
     5274.262000       0.003934
     5285.413000       0.004036
     5296.610000       0.005568
     5307.856000       0.007155
     5319.149000       0.008160
     5330.490000       0.009538
     5341.880000       0.011148
     5353.319000       0.008039
     5364.807000       0.004664
     5376.344000       0.006200
     5387.931000       0.009989
     5399.568000       0.012326
     5411.255000       0.013848
     5422.994000       0.012618
     5434.783000       0.012896
     5446.623000       0.013603
     5458.515000       0.013630
     5470.459000       0.015313
     5482.456000       0.017689
     5494.505000       0.020362
     5506.608000       0.022128
     5518.764000       0.023060
     5530.974000       0.025305
     5543.237000       0.028727
     5555.556000       0.031963
     5567.929000       0.035530
     5580.357000       0.039879
     5592.841000       0.044595
     5605.381000       0.050578
     5617.978000       0.057400
     5630.630000       0.064832
     5643.341000       0.073193
     5656.108000       0.083948
     5668.934000       0.097976
     5681.818000       0.114346
     5694.761000       0.133247
     5707.763000       0.156111
     5720.824000       0.182569
     5733.945000       0.214944
     5747.126000       0.254765
     5760.369000       0.299456
     5773.672000       0.352469
     5787.037000       0.414786
     5800.464000       0.483246
     5813.954000       0.553740
     5827.506000       0.628247
     5841.122000       0.705507
     5854.801000       0.776994
     5868.544000       0.839417
     5882.353000       0.894710
     5896.227000       0.936890
     5910.166000       0.966511
     5924.171000       0.986690
     5938.242000       0.996716
     5952.381000       1.000000
     5966.587000       0.998127
     5980.861000       0.994380
     5995.204000       0.986254
     6009.615000       0.979085
     6024.097000       0.970292
     6038.647000       0.961036
     6053.269000       0.952236
     6067.961000       0.944091
     6082.725000       0.935685
     6097.561000       0.928051
     6112.469000       0.920053
     6127.451000       0.910670
     6142.506000       0.899166
     6157.636000       0.884060
     6172.839000       0.861599
     6188.119000       0.830602
     6203.474000       0.786658
     6218.905000       0.730167
     6234.414000       0.661258
     6250.000000       0.582465
     6265.665000       0.501157
     6281.407000       0.420087
     6297.229000       0.345646
     6313.131000       0.280244
     6329.114000       0.224561
     6345.178000       0.178748
     6361.323000       0.141607
     6377.551000       0.113750
     6393.862000       0.092145
     6410.257000       0.073950
     6426.735000       0.060199
     6443.299000       0.049445
     6459.948000       0.040719
     6476.684000       0.033520
     6493.507000       0.028077
     6510.417000       0.023599
     6527.416000       0.019534
     6544.502000       0.016822
     6561.680000       0.014379
     6578.947000       0.011913
     6596.306000       0.010369
     6613.757000       0.009155
     6631.300000       0.007835
     6648.937000       0.006659
     6666.667000       0.006052
     6684.492000       0.005555
     6702.413000       0.004807
     6720.430000       0.004024
     6738.544000       0.003548
     6756.757000       0.003468
     6775.068000       0.002891
     6793.478000       0.002573
     6811.989000       0.002092
     6830.601000       0.002085
     6849.315000       0.002177
     6868.132000       0.002126
     6887.052000       0.001874
     6906.078000       0.001336
     6925.208000       0.001387
     6944.444000       0.001084
     6963.789000       0.001100
     6983.240000       0.001440
     7002.801000       0.001201
     7022.472000       0.000848
     7042.254000       0.000898
     7062.147000       0.000718
     7082.153000       0.000771
     7102.273000       0.001059
     7122.507000       0.001217
     7142.857000       0.001034
     7163.324000       0.000570
     7183.908000       0.000356
     7204.611000       0.000427
     7225.434000       0.001518
     7246.377000       0.001639
