           3  , Jan 12th 2012 http://fy3.satellite.cma.gov.cn/ArssEn/Download/FY3A_calibration_info_params.rar
Number of data points:
526
Wavenumber (cm-1)   Filter response
      667.913500       0.000030
      668.002700       0.005561
      668.091900       0.007804
      668.181200       0.010053
      668.270500       0.010288
      668.359900       0.009984
      668.449200       0.009680
      668.538600       0.009265
      668.628000       0.009261
      668.717400       0.009911
      668.806900       0.010627
      668.896300       0.012114
      668.985800       0.013605
      669.075300       0.015121
      669.164900       0.016645
      669.254500       0.017717
      669.344100       0.018496
      669.433700       0.018714
      669.523300       0.018598
      669.613000       0.018401
      669.702600       0.017732
      669.792400       0.017060
      669.882100       0.016640
      669.971900       0.016242
      670.061600       0.016155
      670.151400       0.016211
      670.241300       0.016318
      670.331100       0.016288
      670.421000       0.016324
      670.510900       0.015931
      670.600900       0.015527
      670.690800       0.014246
      670.780800       0.012962
      670.870800       0.011343
      670.960800       0.009631
      671.050800       0.008285
      671.140900       0.007223
      671.231000       0.005730
      671.321200       0.006175
      671.411300       0.006789
      671.501500       0.008553
      671.591700       0.010362
      671.681900       0.012711
      671.772200       0.015167
      671.862400       0.017423
      671.952700       0.019611
      672.043000       0.021413
      672.133400       0.022786
      672.223700       0.023452
      672.314100       0.023382
      672.404500       0.023279
      672.494900       0.022580
      672.585400       0.021890
      672.675900       0.021038
      672.766400       0.020165
      672.856900       0.019517
      672.947500       0.019002
      673.038100       0.019112
      673.128700       0.019184
      673.219400       0.019392
      673.310000       0.020102
      673.400600       0.020803
      673.491400       0.022124
      673.582100       0.023421
      673.672900       0.025136
      673.763700       0.026926
      673.854400       0.028950
      673.945300       0.031730
      674.036100       0.033950
      674.127000       0.036211
      674.217900       0.038376
      674.308800       0.040290
      674.399800       0.042164
      674.490700       0.043436
      674.581700       0.044677
      674.672800       0.045523
      674.763900       0.046256
      674.854900       0.047757
      674.946000       0.048253
      675.037100       0.048733
      675.128200       0.049346
      675.219400       0.050099
      675.310700       0.050810
      675.401900       0.051510
      675.493100       0.051948
      675.584400       0.052383
      675.675700       0.052424
      675.767000       0.053392
      675.858300       0.053031
      675.949700       0.052489
      676.041100       0.051828
      676.132500       0.051023
      676.223900       0.050242
      676.315400       0.049515
      676.406900       0.048812
      676.498500       0.048356
      676.590000       0.047902
      676.681600       0.048701
      676.773100       0.048640
      676.864700       0.048895
      676.956400       0.049278
      677.048000       0.049985
      677.139800       0.050982
      677.231500       0.052233
      677.323200       0.053975
      677.415000       0.055807
      677.506800       0.058162
      677.598600       0.061637
      677.690400       0.064156
      677.782300       0.066659
      677.874200       0.068799
      677.966100       0.070841
      678.058000       0.072337
      678.150000       0.073513
      678.242000       0.074381
      678.334000       0.074888
      678.426100       0.075358
      678.518100       0.077162
      678.610200       0.077621
      678.702300       0.078602
      678.794400       0.079575
      678.886700       0.081482
      678.978800       0.083555
      679.071000       0.086437
      679.163300       0.089507
      679.255600       0.092709
      679.347800       0.095999
      679.440100       0.100963
      679.532500       0.103855
      679.624900       0.106590
      679.717200       0.108894
      679.809600       0.111164
      679.902100       0.113154
      679.994600       0.115142
      680.087000       0.117308
      680.179600       0.119485
      680.272100       0.122162
      680.364700       0.120919
      680.457300       0.125056
      680.549900       0.129608
      680.642500       0.134676
      680.735200       0.140352
      680.827900       0.146281
      680.920600       0.152710
      681.013400       0.159218
      681.106100       0.165853
      681.198900       0.172559
      681.291700       0.178981
      681.384600       0.184654
      681.477500       0.190137
      681.570300       0.195591
      681.663300       0.201078
      681.756200       0.206587
      681.849200       0.212236
      681.942200       0.218011
      682.035200       0.223951
      682.128200       0.230147
      682.221300       0.237587
      682.314400       0.244307
      682.407500       0.251094
      682.500700       0.258501
      682.593900       0.265925
      682.687100       0.274164
      682.780300       0.282474
      682.873500       0.291115
      682.966800       0.299837
      683.060100       0.309061
      683.153400       0.320155
      683.246800       0.329949
      683.340100       0.339991
      683.433600       0.350104
      683.527000       0.360357
      683.620400       0.370609
      683.713900       0.380898
      683.807400       0.391186
      683.901000       0.401595
      683.994500       0.411988
      684.088100       0.424831
      684.181700       0.435498
      684.275300       0.446402
      684.369000       0.457353
      684.462700       0.468383
      684.556400       0.479436
      684.650100       0.490447
      684.743900       0.501418
      684.837700       0.512366
      684.931500       0.523283
      685.025400       0.537189
      685.119200       0.548498
      685.213100       0.559910
      685.307000       0.572065
      685.400900       0.584215
      685.494900       0.597440
      685.588900       0.610649
      685.683000       0.624389
      685.777000       0.638177
      685.871000       0.651576
      685.965100       0.668476
      686.059300       0.680967
      686.153400       0.692958
      686.247600       0.704133
      686.341800       0.714514
      686.436000       0.724525
      686.530300       0.733951
      686.624600       0.743369
      686.718900       0.752687
      686.813200       0.762055
      686.907500       0.776435
      687.002000       0.786592
      687.096300       0.797821
      687.190700       0.809030
      687.285200       0.820667
      687.379700       0.832330
      687.474200       0.843554
      687.568800       0.854645
      687.663300       0.864756
      687.757900       0.874374
      687.852500       0.887914
      687.947100       0.895613
      688.041800       0.902473
      688.136500       0.908283
      688.231300       0.913615
      688.326000       0.917983
      688.420800       0.922185
      688.515600       0.925831
      688.610400       0.929469
      688.705200       0.933148
      688.800100       0.942218
      688.895000       0.946372
      688.989900       0.950505
      689.084900       0.955003
      689.179900       0.959525
      689.274800       0.963702
      689.369900       0.967771
      689.465000       0.971134
      689.560100       0.974158
      689.655200       0.976411
      689.750300       0.983901
      689.845500       0.985081
      689.940700       0.985708
      690.035900       0.986153
      690.131200       0.986305
      690.226400       0.986503
      690.321700       0.986843
      690.417000       0.987293
      690.512300       0.988293
      690.607700       0.989165
      690.703100       0.991615
      690.798600       0.993618
      690.894000       0.995595
      690.989500       0.997560
      691.085000       0.998829
      691.180500       1.000000
      691.276100       0.999970
      691.371700       0.999625
      691.467300       0.998139
      691.562900       0.996171
      691.658600       0.993417
      691.754300       0.990164
      691.850000       0.986541
      691.945700       0.982580
      692.041500       0.978449
      692.137300       0.974094
      692.233200       0.969676
      692.329000       0.965141
      692.424900       0.960595
      692.520800       0.956019
      692.616700       0.951096
      692.712600       0.946755
      692.808700       0.942453
      692.904700       0.938549
      693.000700       0.934646
      693.096700       0.930954
      693.192900       0.927257
      693.289000       0.923155
      693.385100       0.919019
      693.481300       0.913841
      693.577500       0.907697
      693.673700       0.901102
      693.770000       0.894122
      693.866200       0.886246
      693.962500       0.877977
      694.058800       0.869342
      694.155200       0.860478
      694.251600       0.851587
      694.348000       0.842674
      694.444500       0.834175
      694.540900       0.824706
      694.637400       0.816252
      694.733900       0.807566
      694.830400       0.798664
      694.927000       0.789292
      695.023700       0.779726
      695.120300       0.769544
      695.216900       0.759295
      695.313600       0.748687
      695.410300       0.738068
      695.507000       0.726191
      695.603800       0.715488
      695.700600       0.704804
      695.797400       0.694116
      695.894200       0.683462
      695.991100       0.672810
      696.088000       0.661956
      696.184900       0.651085
      696.281900       0.639756
      696.378800       0.628339
      696.475800       0.615162
      696.572900       0.602928
      696.669900       0.590168
      696.767000       0.577204
      696.864100       0.564138
      696.961200       0.551019
      697.058400       0.538243
      697.155600       0.525709
      697.252800       0.513671
      697.350000       0.502050
      697.447300       0.489892
      697.544600       0.478837
      697.642000       0.467794
      697.739300       0.456778
      697.836700       0.445674
      697.934100       0.434422
      698.031600       0.423210
      698.129000       0.412077
      698.226500       0.401121
      698.324000       0.390877
      698.421600       0.380313
      698.519200       0.371082
      698.616800       0.362026
      698.714400       0.353837
      698.812000       0.345751
      698.909700       0.338437
      699.007400       0.331151
      699.105200       0.324219
      699.202900       0.317269
      699.300700       0.309912
      699.398500       0.280162
      699.496400       0.275171
      699.594200       0.270009
      699.692100       0.263951
      699.790000       0.257678
      699.888000       0.251355
      699.986000       0.244882
      700.084000       0.239174
      700.182100       0.233474
      700.280200       0.228839
      700.378200       0.224324
      700.476300       0.218261
      700.574500       0.212427
      700.672600       0.206668
      700.770800       0.200944
      700.869100       0.194920
      700.967300       0.188781
      701.065600       0.182336
      701.163900       0.175746
      701.262300       0.169162
      701.360600       0.164272
      701.459000       0.157922
      701.557500       0.151771
      701.655900       0.146151
      701.754400       0.140934
      701.852900       0.136288
      701.951400       0.132134
      702.050000       0.128436
      702.148600       0.125261
      702.247200       0.122419
      702.345800       0.121156
      702.444500       0.118671
      702.543200       0.116285
      702.641900       0.113863
      702.740700       0.111394
      702.839500       0.108847
      702.938300       0.106186
      703.037100       0.103513
      703.136000       0.100822
      703.234900       0.098230
      703.333800       0.096850
      703.432800       0.094550
      703.531700       0.092526
      703.630700       0.090581
      703.729700       0.088810
      703.828800       0.087058
      703.927900       0.085352
      704.027000       0.083626
      704.126200       0.081845
      704.225300       0.080078
      704.324600       0.079198
      704.423800       0.077449
      704.523000       0.075708
      704.622300       0.073910
      704.721700       0.071915
      704.821000       0.069808
      704.920300       0.067284
      705.019700       0.064677
      705.119100       0.061731
      705.218600       0.058783
      705.318100       0.056435
      705.417600       0.053511
      705.517200       0.050901
      705.616700       0.048386
      705.716300       0.046339
      705.815900       0.044373
      705.915500       0.042831
      706.015300       0.041399
      706.115000       0.040396
      706.214700       0.039466
      706.314500       0.039397
      706.414200       0.038951
      706.514000       0.038850
      706.613900       0.038754
      706.713800       0.038695
      706.813700       0.038590
      706.913600       0.038204
      707.013500       0.037755
      707.113500       0.036914
      707.213600       0.036024
      707.313700       0.035216
      707.413700       0.033999
      707.513800       0.032725
      707.614000       0.031472
      707.714100       0.030366
      707.814300       0.029322
      707.914500       0.028664
      708.014800       0.028103
      708.115000       0.028119
      708.215300       0.028223
      708.315600       0.029134
      708.416000       0.029762
      708.516400       0.030549
      708.616800       0.031277
      708.717200       0.031707
      708.817700       0.032046
      708.918200       0.031961
      709.018700       0.031820
      709.119300       0.031438
      709.219800       0.031068
      709.320500       0.033122
      709.421100       0.032596
      709.521800       0.032316
      709.622500       0.032066
      709.723200       0.031920
      709.824000       0.031685
      709.924700       0.031163
      710.025600       0.030498
      710.126400       0.029408
      710.227300       0.028193
      710.328200       0.026641
      710.429100       0.025329
      710.530000       0.023913
      710.631000       0.022539
      710.732100       0.021262
      710.833100       0.020061
      710.934100       0.019017
      711.035300       0.018017
      711.136400       0.017101
      711.237500       0.016241
      711.338700       0.015318
      711.439900       0.014712
      711.541200       0.014337
      711.642500       0.014166
      711.743800       0.014276
      711.845100       0.014512
      711.946500       0.014904
      712.047900       0.015260
      712.149300       0.015575
      712.250700       0.015821
      712.352200       0.015832
      712.453700       0.016135
      712.555200       0.016552
      712.656800       0.017292
      712.758400       0.018290
      712.860000       0.019570
      712.961700       0.021046
      713.063300       0.022511
      713.165000       0.023971
      713.266700       0.025055
      713.368500       0.025666
      713.470300       0.025986
      713.572100       0.026054
      713.674000       0.025571
      713.775900       0.024853
      713.877700       0.023713
      713.979700       0.022443
      714.081700       0.020912
      714.183700       0.019318
      714.285700       0.017598
      714.387800       0.015682
      714.489900       0.014132
      714.591900       0.012607
      714.694200       0.011685
      714.796300       0.010817
      714.898500       0.010910
      715.000700       0.011044
      715.103000       0.011911
      715.205300       0.012774
      715.307600       0.013575
      715.410000       0.014131
      715.512300       0.014033
      715.614700       0.013792
      715.717200       0.012705
      715.819600       0.011552
      715.922100       0.010116
      716.024700       0.008827
      716.127200       0.008008
      716.229800       0.007529
      716.332400       0.007883
      716.435000       0.008456
      716.537700       0.009717
      716.640400       0.011051
      716.743200       0.012498
      716.845900       0.013670
      716.948700       0.014503
      717.051500       0.014871
      717.154300       0.014778
      717.257200       0.014248
      717.360100       0.013371
      717.463100       0.012084
      717.566000       0.010781
      717.669000       0.009351
      717.772000       0.007853
      717.875100       0.006284
      717.978100       0.004687
      718.081300       0.003182
      718.184400       0.001701
      718.287600       0.000565
