   5   ,channel
Number of data points:
151
Wavenumber (cm-1)   Filter response
      702.000000       0.001600
      704.000000       0.001592
      706.000000       0.001587
      708.000000       0.001973
      710.000000       0.002512
      712.000000       0.002794
      714.000000       0.003105
      716.000000       0.003802
      718.000000       0.004434
      720.000000       0.005047
      722.000000       0.005488
      724.000000       0.005407
      726.000000       0.005355
      728.000000       0.005320
      730.000000       0.005315
      732.000000       0.005441
      734.000000       0.005598
      736.000000       0.006416
      738.000000       0.006702
      740.000000       0.006857
      742.000000       0.007404
      744.000000       0.009577
      746.000000       0.009728
      748.000000       0.008804
      750.000000       0.006740
      752.000000       0.001557
      754.000000       0.003329
      756.000000       0.008371
      758.000000       0.011304
      760.000000       0.015957
      762.000000       0.019356
      764.000000       0.024102
      766.000000       0.032325
      768.000000       0.042005
      770.000000       0.049369
      772.000000       0.056403
      774.000000       0.063221
      776.000000       0.069007
      778.000000       0.091095
      780.000000       0.107828
      782.000000       0.165899
      784.000000       0.199870
      786.000000       0.251554
      788.000000       0.277590
      790.000000       0.315629
      792.000000       0.355053
      794.000000       0.515271
      796.000000       0.601013
      798.000000       0.797934
      800.000000       0.853173
      802.000000       0.906257
      804.000000       0.924997
      806.000000       0.955148
      808.000000       0.971119
      810.000000       1.000000
      812.000000       0.991140
      814.000000       0.970685
      816.000000       0.963704
      818.000000       0.954428
      820.000000       0.954578
      822.000000       0.954650
      824.000000       0.902097
      826.000000       0.848796
      828.000000       0.759812
      830.000000       0.688094
      832.000000       0.682234
      834.000000       0.680485
      836.000000       0.722129
      838.000000       0.741579
      840.000000       0.701302
      842.000000       0.676625
      844.000000       0.612763
      846.000000       0.582752
      848.000000       0.533953
      850.000000       0.510145
      852.000000       0.460770
      854.000000       0.443386
      856.000000       0.418430
      858.000000       0.386539
      860.000000       0.302735
      862.000000       0.253742
      864.000000       0.159415
      866.000000       0.141747
      868.000000       0.122246
      870.000000       0.118927
      872.000000       0.115061
      874.000000       0.101754
      876.000000       0.084586
      878.000000       0.074787
      880.000000       0.064711
      882.000000       0.065882
      884.000000       0.066962
      886.000000       0.069236
      888.000000       0.070578
      890.000000       0.064792
      892.000000       0.061225
      894.000000       0.056344
      896.000000       0.054096
      898.000000       0.053830
      900.000000       0.053505
      902.000000       0.051884
      904.000000       0.051059
      906.000000       0.049266
      908.000000       0.048628
      910.000000       0.047744
      912.000000       0.047543
      914.000000       0.047402
      916.000000       0.047103
      918.000000       0.046389
      920.000000       0.046441
      922.000000       0.046679
      924.000000       0.046449
      926.000000       0.046036
      928.000000       0.045632
      930.000000       0.045093
      932.000000       0.044887
      934.000000       0.044661
      936.000000       0.043918
      938.000000       0.043246
      940.000000       0.042794
      942.000000       0.042472
      944.000000       0.042610
      946.000000       0.042718
      948.000000       0.043170
      950.000000       0.043331
      952.000000       0.042723
      954.000000       0.042184
      956.000000       0.039908
      958.000000       0.038934
      960.000000       0.037459
      962.000000       0.036725
      964.000000       0.035144
      966.000000       0.034109
      968.000000       0.031654
      970.000000       0.030604
      972.000000       0.028713
      974.000000       0.027686
      976.000000       0.025856
      978.000000       0.023880
      980.000000       0.020593
      982.000000       0.018530
      984.000000       0.015724
      986.000000       0.014268
      988.000000       0.012613
      990.000000       0.011294
      992.000000       0.010053
      994.000000       0.009040
      996.000000       0.008277
      998.000000       0.008142
     1000.000000       0.006973
     1002.000000       0.000000
