132,   132, MVIRI VIS channel from srf_MET7_2014033_2014034_1801-Release_S10EE_10.dat
Number of data points:
793
Wavenumber (cm-1)   Filter response
     8442.380800       0.000000
     8449.514200       0.000000
     8456.659600       0.000004
     8463.817200       0.000057
     8470.986900       0.000168
     8478.168700       0.000336
     8485.362700       0.000560
     8492.569000       0.000837
     8499.787500       0.001166
     8507.018300       0.001545
     8514.261400       0.001974
     8521.516800       0.002450
     8528.784600       0.002972
     8536.064900       0.003540
     8543.357500       0.004151
     8550.662700       0.004805
     8557.980300       0.005500
     8565.310500       0.006236
     8572.653200       0.007010
     8580.008600       0.007823
     8587.376600       0.008673
     8594.757200       0.009558
     8602.150500       0.010480
     8609.556600       0.011435
     8616.975400       0.012424
     8624.407100       0.013446
     8631.851500       0.014499
     8639.308900       0.015584
     8646.779100       0.016700
     8654.262200       0.017845
     8661.758300       0.019019
     8669.267400       0.020222
     8676.789600       0.021453
     8684.324800       0.022711
     8691.873100       0.023996
     8699.434500       0.025308
     8707.009100       0.026646
     8714.596900       0.028009
     8722.198000       0.029397
     8729.812300       0.030810
     8737.439900       0.032247
     8745.080900       0.033709
     8752.735200       0.035194
     8760.403000       0.036702
     8768.084200       0.038234
     8775.778900       0.039788
     8783.487000       0.041365
     8791.208800       0.042964
     8798.944100       0.044586
     8806.693100       0.046229
     8814.455700       0.047894
     8822.232000       0.049581
     8830.022100       0.051289
     8837.825900       0.053019
     8845.643500       0.054770
     8853.475000       0.056542
     8861.320300       0.058335
     8869.179600       0.060149
     8877.052800       0.061984
     8884.940000       0.063840
     8892.841300       0.065717
     8900.756600       0.067615
     8908.686000       0.069533
     8916.629500       0.071473
     8924.587200       0.073433
     8932.559200       0.075413
     8940.545400       0.077415
     8948.545900       0.079438
     8956.560700       0.081481
     8964.589900       0.083546
     8972.633500       0.085631
     8980.691500       0.087737
     8988.764000       0.089864
     8996.851100       0.092013
     9004.952700       0.094182
     9013.068900       0.096373
     9021.199800       0.098585
     9029.345400       0.100819
     9037.505600       0.103074
     9045.680700       0.105350
     9053.870500       0.107648
     9062.075200       0.109968
     9070.294800       0.112310
     9078.529300       0.114673
     9086.778700       0.117058
     9095.043200       0.119466
     9103.322700       0.121895
     9111.617300       0.124347
     9119.927000       0.126821
     9128.251900       0.129318
     9136.592100       0.131837
     9144.947400       0.134378
     9153.318100       0.136943
     9161.704100       0.139530
     9170.105500       0.142139
     9178.522300       0.144772
     9186.954500       0.147428
     9195.402300       0.150107
     9203.865600       0.152808
     9212.344500       0.155533
     9220.839100       0.158282
     9229.349300       0.161053
     9237.875300       0.163848
     9246.417000       0.166666
     9254.974500       0.169508
     9263.547900       0.172374
     9272.137200       0.175263
     9280.742500       0.178176
     9289.363700       0.181112
     9298.000900       0.184072
     9306.654300       0.187056
     9315.323700       0.190063
     9324.009300       0.193094
     9332.711200       0.196149
     9341.429200       0.199228
     9350.163600       0.202330
     9358.914400       0.205456
     9367.681500       0.208607
     9376.465100       0.211780
     9385.265100       0.214978
     9394.081700       0.218199
     9402.914900       0.221444
     9411.764700       0.224712
     9420.631200       0.228004
     9429.514400       0.231320
     9438.414300       0.234659
     9447.331100       0.238021
     9456.264800       0.241407
     9465.215300       0.244816
     9474.182900       0.248249
     9483.167400       0.251704
     9492.169000       0.255182
     9501.187600       0.258684
     9510.223500       0.262208
     9519.276500       0.265754
     9528.346800       0.269324
     9537.434400       0.272916
     9546.539400       0.276530
     9555.661700       0.280166
     9564.801500       0.283824
     9573.958800       0.287504
     9583.133700       0.291206
     9592.326100       0.294929
     9601.536200       0.298674
     9610.764100       0.302440
     9620.009600       0.306227
     9629.273000       0.310035
     9638.554200       0.313863
     9647.853400       0.317712
     9657.170400       0.321581
     9666.505600       0.325470
     9675.858700       0.329379
     9685.230000       0.333307
     9694.619500       0.337255
     9704.027200       0.341221
     9713.453100       0.345207
     9722.897400       0.349211
     9732.360100       0.353233
     9741.841200       0.357273
     9751.340800       0.361331
     9760.859000       0.365407
     9770.395700       0.369500
     9779.951100       0.373609
     9789.525200       0.377735
     9799.118100       0.381878
     9808.729800       0.386036
     9818.360300       0.390211
     9828.009800       0.394400
     9837.678300       0.398605
     9847.365800       0.402824
     9857.072400       0.407057
     9866.798200       0.411305
     9876.543200       0.415566
     9886.307500       0.419841
     9896.091000       0.424129
     9905.894000       0.428429
     9915.716400       0.432741
     9925.558300       0.437065
     9935.419800       0.441401
     9945.300800       0.445749
     9955.201600       0.450106
     9965.122100       0.454474
     9975.062300       0.458852
     9985.022500       0.463240
     9995.002500       0.467637
    10005.002500       0.472042
    10015.022500       0.476456
    10025.062700       0.480878
    10035.122900       0.485307
    10045.203400       0.489744
    10055.304200       0.494187
    10065.425300       0.498636
    10075.566800       0.503091
    10085.728700       0.507552
    10095.911200       0.512018
    10106.114200       0.516488
    10116.337900       0.520962
    10126.582300       0.525440
    10136.847400       0.529921
    10147.133400       0.534404
    10157.440300       0.538890
    10167.768200       0.543378
    10178.117000       0.547867
    10188.487000       0.552358
    10198.878100       0.556848
    10209.290500       0.561339
    10219.724100       0.565829
    10230.179000       0.570318
    10240.655400       0.574806
    10251.153300       0.579292
    10261.672700       0.583775
    10272.213700       0.588256
    10282.776300       0.592734
    10293.360800       0.597207
    10303.967000       0.601677
    10314.595200       0.606142
    10325.245200       0.610601
    10335.917300       0.615055
    10346.611500       0.619503
    10357.327800       0.623944
    10368.066400       0.628378
    10378.827200       0.632805
    10389.610400       0.637223
    10400.416000       0.641633
    10411.244100       0.646034
    10422.094800       0.650426
    10432.968200       0.654807
    10443.864200       0.659178
    10454.783100       0.663539
    10465.724800       0.667887
    10476.689400       0.672224
    10487.677000       0.676549
    10498.687700       0.680861
    10509.721500       0.685159
    10520.778500       0.689444
    10531.858900       0.693715
    10542.962600       0.697971
    10554.089700       0.702212
    10565.240400       0.706437
    10576.414600       0.710646
    10587.612500       0.714839
    10598.834100       0.719015
    10610.079600       0.723173
    10621.348900       0.727314
    10632.642200       0.731436
    10643.959600       0.735540
    10655.301000       0.739624
    10666.666700       0.743688
    10678.056600       0.747733
    10689.470900       0.751757
    10700.909600       0.755760
    10712.372800       0.759741
    10723.860600       0.763701
    10735.373100       0.767638
    10746.910300       0.771554
    10758.472300       0.775445
    10770.059200       0.779314
    10781.671200       0.783158
    10793.308100       0.786978
    10804.970300       0.790774
    10816.657700       0.794544
    10828.370300       0.798289
    10840.108400       0.802007
    10851.871900       0.805700
    10863.661100       0.809366
    10875.475800       0.813005
    10887.316300       0.816617
    10899.182600       0.820200
    10911.074700       0.823756
    10922.992900       0.827283
    10934.937100       0.830781
    10946.907500       0.834250
    10958.904100       0.837690
    10970.927000       0.841100
    10982.976400       0.844479
    10995.052200       0.847828
    11007.154700       0.851146
    11019.283700       0.854432
    11031.439600       0.857688
    11043.622300       0.860911
    11055.832000       0.864102
    11068.068600       0.867261
    11080.332400       0.870387
    11092.623400       0.873480
    11104.941700       0.876540
    11117.287400       0.879566
    11129.660500       0.882559
    11142.061300       0.885517
    11154.489700       0.888441
    11166.945800       0.891330
    11179.429800       0.894184
    11191.941800       0.897004
    11204.481800       0.899788
    11217.049900       0.902536
    11229.646300       0.905249
    11242.270900       0.907925
    11254.924000       0.910566
    11267.605600       0.913169
    11280.315800       0.915737
    11293.054800       0.918267
    11305.822500       0.920761
    11318.619100       0.923217
    11331.444800       0.925636
    11344.299500       0.928017
    11357.183400       0.930361
    11370.096600       0.932667
    11383.039300       0.934935
    11396.011400       0.937164
    11409.013100       0.939356
    11422.044500       0.941509
    11435.105800       0.943624
    11448.196900       0.945700
    11461.318100       0.947737
    11474.469300       0.949736
    11487.650800       0.951695
    11500.862600       0.953616
    11514.104800       0.955497
    11527.377500       0.957340
    11540.680900       0.959143
    11554.015000       0.960907
    11567.380000       0.962631
    11580.775900       0.964316
    11594.202900       0.965962
    11607.661100       0.967568
    11621.150500       0.969135
    11634.671300       0.970662
    11648.223600       0.972150
    11661.807600       0.973599
    11675.423200       0.975007
    11689.070700       0.976377
    11702.750100       0.977707
    11716.461600       0.978997
    11730.205300       0.980248
    11743.981200       0.981460
    11757.789500       0.982632
    11771.630400       0.983765
    11785.503800       0.984858
    11799.410000       0.985913
    11813.349100       0.986928
    11827.321100       0.987905
    11841.326200       0.988842
    11855.364600       0.989741
    11869.436200       0.990601
    11883.541300       0.991422
    11897.680000       0.992205
    11911.852300       0.992949
    11926.058400       0.993655
    11940.298500       0.994322
    11954.572600       0.994952
    11968.880900       0.995544
    11983.223500       0.996098
    11997.600500       0.996614
    12012.012000       0.997094
    12026.458200       0.997535
    12040.939200       0.997940
    12055.455100       0.998308
    12070.006000       0.998639
    12084.592100       0.998933
    12099.213600       0.999192
    12113.870400       0.999414
    12128.562800       0.999600
    12143.290800       0.999750
    12158.054700       0.999865
    12172.854500       0.999945
    12187.690400       0.999990
    12202.562500       1.000000
    12217.471000       0.999975
    12232.415900       0.999917
    12247.397400       0.999824
    12262.415700       0.999697
    12277.470800       0.999537
    12292.563000       0.999344
    12307.692300       0.999118
    12322.858900       0.998859
    12338.062900       0.998568
    12353.304500       0.998245
    12368.583800       0.997890
    12383.900900       0.997503
    12399.256000       0.997086
    12414.649300       0.996637
    12430.080800       0.996158
    12445.550700       0.995649
    12461.059200       0.995110
    12476.606400       0.994542
    12492.192400       0.993944
    12507.817400       0.993317
    12523.481500       0.992662
    12539.185000       0.991979
    12554.927800       0.991268
    12570.710200       0.990530
    12586.532400       0.989764
    12602.394500       0.988972
    12618.296500       0.988154
    12634.238800       0.987309
    12650.221400       0.986439
    12666.244500       0.985544
    12682.308200       0.984624
    12698.412700       0.983679
    12714.558200       0.982711
    12730.744700       0.981719
    12746.972600       0.980704
    12763.241900       0.979665
    12779.552700       0.978605
    12795.905300       0.977522
    12812.299800       0.976418
    12828.736400       0.975293
    12845.215200       0.974147
    12861.736300       0.972980
    12878.300100       0.971794
    12894.906500       0.970588
    12911.555800       0.969363
    12928.248200       0.968120
    12944.983800       0.966858
    12961.762800       0.965578
    12978.585300       0.964281
    12995.451600       0.962968
    13012.361700       0.961637
    13029.316000       0.960291
    13046.314400       0.958929
    13063.357300       0.957552
    13080.444700       0.956161
    13097.576900       0.954755
    13114.754100       0.953335
    13131.976400       0.951902
    13149.243900       0.950456
    13166.556900       0.948997
    13183.915600       0.947527
    13201.320100       0.946045
    13218.770700       0.944552
    13236.267400       0.943048
    13253.810500       0.941534
    13271.400100       0.940011
    13289.036500       0.938478
    13306.719900       0.936936
    13324.450400       0.935386
    13342.228200       0.933828
    13360.053400       0.932262
    13377.926400       0.930690
    13395.847300       0.929110
    13413.816200       0.927525
    13431.833400       0.925934
    13449.899100       0.924338
    13468.013500       0.922737
    13486.176700       0.921132
    13504.388900       0.919522
    13522.650400       0.917910
    13540.961400       0.916294
    13559.322000       0.914676
    13577.732500       0.913056
    13596.193100       0.911434
    13614.703900       0.909810
    13633.265200       0.908186
    13651.877100       0.906562
    13670.540000       0.904938
    13689.253900       0.903313
    13708.019200       0.901690
    13726.836000       0.900069
    13745.704500       0.898449
    13764.624900       0.896831
    13783.597500       0.895216
    13802.622500       0.893604
    13821.700100       0.891995
    13840.830400       0.890390
    13860.013900       0.888789
    13879.250500       0.887192
    13898.540700       0.885601
    13917.884500       0.884015
    13937.282200       0.882435
    13956.734100       0.880861
    13976.240400       0.879294
    13995.801300       0.877733
    14015.417000       0.876180
    14035.087700       0.874634
    14054.813800       0.873097
    14074.595400       0.871568
    14094.432700       0.870047
    14114.326000       0.868536
    14134.275600       0.867034
    14154.281700       0.865542
    14174.344400       0.864060
    14194.464200       0.862588
    14214.641100       0.861127
    14234.875400       0.859677
    14255.167500       0.858239
    14275.517500       0.856812
    14295.925700       0.855398
    14316.392300       0.853995
    14336.917600       0.852606
    14357.501800       0.851229
    14378.145200       0.849865
    14398.848100       0.848515
    14419.610700       0.847178
    14440.433200       0.845856
    14461.316000       0.844547
    14482.259200       0.843254
    14503.263200       0.841975
    14524.328200       0.840710
    14545.454500       0.839462
    14566.642400       0.838228
    14587.892000       0.837010
    14609.203800       0.835808
    14630.577900       0.834623
    14652.014700       0.833453
    14673.514300       0.832300
    14695.077100       0.831163
    14716.703500       0.830044
    14738.393500       0.828941
    14760.147600       0.827856
    14781.966000       0.826787
    14803.849000       0.825737
    14825.796900       0.824703
    14847.809900       0.823688
    14869.888500       0.822691
    14892.032800       0.821711
    14914.243100       0.820749
    14936.519800       0.819806
    14958.863100       0.818881
    14981.273400       0.817974
    15003.750900       0.817086
    15026.296000       0.816216
    15048.909000       0.815365
    15071.590100       0.814533
    15094.339600       0.813719
    15117.158000       0.812924
    15140.045400       0.812147
    15163.002300       0.811390
    15186.028900       0.810651
    15209.125500       0.809931
    15232.292500       0.809229
    15255.530100       0.808547
    15278.838800       0.807883
    15302.218800       0.807238
    15325.670500       0.806611
    15349.194200       0.806003
    15372.790200       0.805414
    15396.458800       0.804843
    15420.200500       0.804291
    15444.015400       0.803756
    15467.904100       0.803240
    15491.866800       0.802743
    15515.903800       0.802263
    15540.015500       0.801801
    15564.202300       0.801357
    15588.464500       0.800931
    15612.802500       0.800522
    15637.216600       0.800130
    15661.707100       0.799756
    15686.274500       0.799398
    15710.919100       0.799058
    15735.641200       0.798734
    15760.441300       0.798426
    15785.319700       0.798135
    15810.276700       0.797859
    15835.312700       0.797600
    15860.428200       0.797356
    15885.623500       0.797127
    15910.899000       0.796913
    15936.255000       0.796714
    15961.691900       0.796529
    15987.210200       0.796359
    16012.810200       0.796203
    16038.492400       0.796060
    16064.257000       0.795930
    16090.104600       0.795814
    16116.035500       0.795710
    16142.050000       0.795618
    16168.148700       0.795539
    16194.332000       0.795471
    16220.600200       0.795414
    16246.953700       0.795369
    16273.393000       0.795333
    16299.918500       0.795308
    16326.530600       0.795293
    16353.229800       0.795287
    16380.016400       0.795290
    16406.890900       0.795301
    16433.853700       0.795320
    16460.905300       0.795347
    16488.046200       0.795381
    16515.276600       0.795422
    16542.597200       0.795469
    16570.008300       0.795522
    16597.510400       0.795580
    16625.103900       0.795643
    16652.789300       0.795711
    16680.567100       0.795782
    16708.437800       0.795856
    16736.401700       0.795933
    16764.459300       0.796013
    16792.611300       0.796094
    16820.857900       0.796176
    16849.199700       0.796259
    16877.637100       0.796342
    16906.170800       0.796424
    16934.801000       0.796505
    16963.528400       0.796585
    16992.353400       0.796663
    17021.276600       0.796737
    17050.298400       0.796809
    17079.419300       0.796876
    17108.639900       0.796938
    17137.960600       0.796996
    17167.382000       0.797047
    17196.904600       0.797092
    17226.528900       0.797130
    17256.255400       0.797160
    17286.084700       0.797181
    17316.017300       0.797194
    17346.053800       0.797196
    17376.194600       0.797189
    17406.440400       0.797170
    17436.791600       0.797140
    17467.248900       0.797097
    17497.812800       0.797041
    17528.483800       0.796971
    17559.262500       0.796887
    17590.149500       0.796787
    17621.145400       0.796672
    17652.250700       0.796540
    17683.466000       0.796391
    17714.791900       0.796224
    17746.228900       0.796038
    17777.777800       0.795832
    17809.439000       0.795607
    17841.213200       0.795361
    17873.101000       0.795093
    17905.103000       0.794803
    17937.219700       0.794489
    17969.451900       0.794152
    18001.800200       0.793791
    18034.265100       0.793404
    18066.847300       0.792991
    18099.547500       0.792552
    18132.366300       0.792085
    18165.304300       0.791590
    18198.362100       0.791066
    18231.540600       0.790512
    18264.840200       0.789928
    18298.261700       0.789313
    18331.805700       0.788666
    18365.472900       0.787986
    18399.264000       0.787273
    18433.179700       0.786526
    18467.220700       0.785744
    18501.387600       0.784926
    18535.681200       0.784072
    18570.102100       0.783181
    18604.651200       0.782253
    18639.329000       0.781286
    18674.136300       0.780279
    18709.073900       0.779233
    18744.142500       0.778146
    18779.342700       0.777018
    18814.675400       0.775848
    18850.141400       0.774635
    18885.741300       0.773378
    18921.475900       0.772078
    18957.346000       0.770732
    18993.352300       0.769341
    19029.495700       0.767904
    19065.776900       0.766420
    19102.196800       0.764888
    19138.756000       0.763308
    19175.455400       0.761680
    19212.295900       0.760002
    19249.278200       0.758273
    19286.403100       0.756494
    19323.671500       0.754664
    19361.084200       0.752782
    19398.642100       0.750847
    19436.346000       0.748859
    19474.196700       0.746816
    19512.195100       0.744720
    19550.342100       0.742569
    19588.638600       0.740362
    19627.085400       0.738099
    19665.683400       0.735780
    19704.433500       0.733404
    19743.336600       0.730970
    19782.393700       0.728478
    19821.605600       0.725927
    19860.973200       0.723317
    19900.497500       0.720648
    19940.179500       0.717919
    19980.020000       0.715129
    20020.020000       0.712278
    20060.180500       0.709367
    20100.502500       0.706394
    20140.986900       0.703358
    20181.634700       0.700261
    20222.446900       0.697100
    20263.424500       0.693877
    20304.568500       0.690590
    20345.880000       0.687240
    20387.359800       0.683826
    20429.009200       0.680348
    20470.829100       0.676805
    20512.820500       0.673198
    20554.984600       0.669526
    20597.322300       0.665789
    20639.834900       0.661987
    20682.523300       0.658120
    20725.388600       0.654187
    20768.432000       0.650189
    20811.654500       0.646125
    20855.057400       0.641996
    20898.641600       0.637801
    20942.408400       0.633540
    20986.358900       0.629214
    21030.494200       0.624822
    21074.815600       0.620365
    21119.324200       0.615842
    21164.021200       0.611254
    21208.907700       0.606601
    21253.985100       0.601883
    21299.254500       0.597100
    21344.717200       0.592253
    21390.374300       0.587341
    21436.227200       0.582366
    21482.277100       0.577326
    21528.525300       0.572224
    21574.973000       0.567058
    21621.621600       0.561829
    21668.472400       0.556539
    21715.526600       0.551186
    21762.785600       0.545773
    21810.250800       0.540299
    21857.923500       0.534764
    21905.805000       0.529170
    21953.896800       0.523518
    22002.200200       0.517806
    22050.716600       0.512037
    22099.447500       0.506212
    22148.394200       0.500330
    22197.558300       0.494393
    22246.941000       0.488401
    22296.544000       0.482356
    22346.368700       0.476258
    22396.416600       0.470108
    22446.689100       0.463908
    22497.187900       0.457657
    22547.914300       0.451358
    22598.870100       0.445011
    22650.056600       0.438618
    22701.475600       0.432180
    22753.128600       0.425697
    22805.017100       0.419172
    22857.142900       0.412605
    22909.507400       0.405998
    22962.112500       0.399352
    23014.959700       0.392669
    23068.050700       0.385950
    23121.387300       0.379197
    23174.971000       0.372411
    23228.803700       0.365594
    23282.887100       0.358747
    23337.222900       0.351873
    23391.812900       0.344973
    23446.658900       0.338048
    23501.762600       0.331101
    23557.126000       0.324134
    23612.750900       0.317149
    23668.639100       0.310147
    23724.792400       0.303130
    23781.212800       0.296101
    23837.902300       0.289062
    23894.862600       0.282016
    23952.095800       0.274963
    24009.603800       0.267908
    24067.388700       0.260851
    24125.452400       0.253796
    24183.796900       0.246745
    24242.424200       0.239700
    24301.336600       0.232665
    24360.535900       0.225641
    24420.024400       0.218632
    24479.804200       0.211640
    24539.877300       0.204668
    24600.246000       0.197720
    24660.912500       0.190797
    24721.878900       0.183903
    24783.147500       0.177042
    24844.720500       0.170215
    24906.600200       0.163427
    24968.789000       0.156680
    25031.289100       0.149979
    25094.102900       0.143326
    25157.232700       0.136724
    25220.681000       0.130178
    25284.450100       0.123691
    25348.542500       0.117266
    25412.960600       0.110908
    25477.707000       0.104620
