8,    channel 8 SRF extracted from SRF_FY-4A_AGRI.zip (5.8.txt) (received April 2018)
Number of data points:
568
Wavenumber (cm-1)   Filter response
     1258.019900       0.000074
     1258.811700       0.000116
     1259.604500       0.000360
     1260.398300       0.000765
     1261.193100       0.001207
     1261.988900       0.001479
     1262.785700       0.001456
     1263.583500       0.001195
     1264.382300       0.000841
     1265.182200       0.000597
     1265.983000       0.000536
     1266.784900       0.000686
     1267.587800       0.001114
     1268.391700       0.001636
     1269.196600       0.002087
     1270.002500       0.002318
     1270.809500       0.002244
     1271.617500       0.001981
     1272.426500       0.001674
     1273.236600       0.001473
     1274.047600       0.001526
     1274.859800       0.001867
     1275.672900       0.002359
     1276.487100       0.002849
     1277.302300       0.003186
     1278.118600       0.003226
     1278.935900       0.002983
     1279.754300       0.002599
     1280.573700       0.002218
     1281.394200       0.001986
     1282.215700       0.002015
     1283.038200       0.002243
     1283.861900       0.002538
     1284.686500       0.002769
     1285.512300       0.002802
     1286.339100       0.002581
     1287.166900       0.002225
     1287.995900       0.001885
     1288.825900       0.001715
     1289.657000       0.001849
     1290.489100       0.002276
     1291.322300       0.002836
     1292.156600       0.003361
     1292.992000       0.003687
     1293.828400       0.003682
     1294.666000       0.003429
     1295.504600       0.003084
     1296.344300       0.002807
     1297.185100       0.002752
     1298.027000       0.002983
     1298.870000       0.003383
     1299.714100       0.003817
     1300.559200       0.004154
     1301.405500       0.004272
     1302.252900       0.004208
     1303.101400       0.004111
     1303.951000       0.004134
     1304.801700       0.004410
     1305.653500       0.005003
     1306.506400       0.005758
     1307.360400       0.006489
     1308.215600       0.007007
     1309.071900       0.007125
     1309.929300       0.006887
     1310.787800       0.006483
     1311.647400       0.006083
     1312.508200       0.005867
     1313.370100       0.005945
     1314.233100       0.006219
     1315.097300       0.006564
     1315.962600       0.006846
     1316.829100       0.006946
     1317.696700       0.006887
     1318.565400       0.006820
     1319.435300       0.006899
     1320.306300       0.007250
     1321.178500       0.007920
     1322.051800       0.008733
     1322.926300       0.009489
     1323.802000       0.009989
     1324.678800       0.010059
     1325.556700       0.009779
     1326.435900       0.009351
     1327.316200       0.008974
     1328.197600       0.008828
     1329.080300       0.008987
     1329.964100       0.009327
     1330.849100       0.009676
     1331.735300       0.009881
     1332.622600       0.009848
     1333.511100       0.009703
     1334.400900       0.009629
     1335.291800       0.009812
     1336.183900       0.010408
     1337.077100       0.011329
     1337.971600       0.012326
     1338.867300       0.013144
     1339.764200       0.013532
     1340.662300       0.013426
     1341.561600       0.013035
     1342.462100       0.012568
     1343.363800       0.012283
     1344.266700       0.012357
     1345.170800       0.012660
     1346.076200       0.013025
     1346.982800       0.013287
     1347.890600       0.013313
     1348.799600       0.013196
     1349.709800       0.013139
     1350.621300       0.013344
     1351.534000       0.014001
     1352.447900       0.015050
     1353.363100       0.016203
     1354.279500       0.017170
     1355.197200       0.017622
     1356.116100       0.017505
     1357.036200       0.017099
     1357.957600       0.016628
     1358.880300       0.016360
     1359.804200       0.016458
     1360.729400       0.016808
     1361.655800       0.017251
     1362.583500       0.017623
     1363.512400       0.017813
     1364.442600       0.017909
     1365.374100       0.018143
     1366.306900       0.018746
     1367.240900       0.019833
     1368.176200       0.021241
     1369.112800       0.022669
     1370.050700       0.023812
     1370.989900       0.024399
     1371.930300       0.024460
     1372.872000       0.024223
     1373.815100       0.023870
     1374.759400       0.023676
     1375.705000       0.023734
     1376.652000       0.023902
     1377.600200       0.024075
     1378.549800       0.024161
     1379.500600       0.024220
     1380.452800       0.024483
     1381.406300       0.025181
     1382.361100       0.026538
     1383.317200       0.028424
     1384.274600       0.030468
     1385.233400       0.032301
     1386.193500       0.033429
     1387.154900       0.033738
     1388.117700       0.033523
     1389.081800       0.033104
     1390.047300       0.032803
     1391.014000       0.032793
     1391.982200       0.033021
     1392.951700       0.033432
     1393.922500       0.033964
     1394.894700       0.034676
     1395.868200       0.035773
     1396.843100       0.037465
     1397.819400       0.039960
     1398.797000       0.043100
     1399.776000       0.046278
     1400.756400       0.048858
     1401.738200       0.050233
     1402.721300       0.050223
     1403.705800       0.049451
     1404.691700       0.048561
     1405.678900       0.047953
     1406.667600       0.047819
     1407.657700       0.048080
     1408.649100       0.048644
     1409.642000       0.049433
     1410.636200       0.050435
     1411.631800       0.051972
     1412.628900       0.054381
     1413.627400       0.057701
     1414.627200       0.061529
     1415.628500       0.065212
     1416.631300       0.068097
     1417.635400       0.069659
     1418.640900       0.070124
     1419.647900       0.069954
     1420.656300       0.069461
     1421.666200       0.069182
     1422.677500       0.069394
     1423.690200       0.070012
     1424.704400       0.071094
     1425.720000       0.072752
     1426.737100       0.075171
     1427.755600       0.078523
     1428.775500       0.082962
     1429.797000       0.088182
     1430.819900       0.093130
     1431.844200       0.097104
     1432.870000       0.099540
     1433.897300       0.100347
     1434.926100       0.100198
     1435.956300       0.099805
     1436.988100       0.099800
     1438.021300       0.100433
     1439.056000       0.101837
     1440.092200       0.104166
     1441.129800       0.107553
     1442.169000       0.112051
     1443.209700       0.117456
     1444.251900       0.124036
     1445.295600       0.131580
     1446.340800       0.138773
     1447.387500       0.144543
     1448.435700       0.147930
     1449.485400       0.149150
     1450.536700       0.149030
     1451.589500       0.148383
     1452.643800       0.148106
     1453.699700       0.149048
     1454.757100       0.152717
     1455.816000       0.160621
     1456.876500       0.172229
     1457.938500       0.185696
     1459.002000       0.199128
     1460.067200       0.210750
     1461.133800       0.219829
     1462.202100       0.226130
     1463.271900       0.229369
     1464.343200       0.229722
     1465.416200       0.228512
     1466.490700       0.226686
     1467.566800       0.226202
     1468.644400       0.228918
     1469.723700       0.235606
     1470.804500       0.247575
     1471.887000       0.265419
     1472.971000       0.287084
     1474.056600       0.309889
     1475.143800       0.331158
     1476.232700       0.349034
     1477.323100       0.361842
     1478.415100       0.369547
     1479.508800       0.372659
     1480.604100       0.372122
     1481.701000       0.370467
     1482.799500       0.370300
     1483.899700       0.373742
     1485.001500       0.382280
     1486.104900       0.397349
     1487.210000       0.419869
     1488.316700       0.447622
     1489.425100       0.477063
     1490.535100       0.504658
     1491.646800       0.527994
     1492.760100       0.546060
     1493.875100       0.557959
     1494.991800       0.563386
     1496.110100       0.565314
     1497.230100       0.567837
     1498.351800       0.574970
     1499.475200       0.588109
     1500.600200       0.605598
     1501.727000       0.625676
     1502.855400       0.646693
     1503.985600       0.667932
     1505.117400       0.689064
     1506.250900       0.709605
     1507.386200       0.727801
     1508.523200       0.740880
     1509.661800       0.746056
     1510.802200       0.743172
     1511.944400       0.738189
     1513.088200       0.736275
     1514.233800       0.745070
     1515.381100       0.766521
     1516.530200       0.796722
     1517.681000       0.833351
     1518.833500       0.872098
     1519.987800       0.906303
     1521.143900       0.929183
     1522.301700       0.936780
     1523.461300       0.933835
     1524.622700       0.926758
     1525.785800       0.921501
     1526.950700       0.920227
     1528.117400       0.922923
     1529.285800       0.929527
     1530.456100       0.939152
     1531.628100       0.949600
     1532.802000       0.958611
     1533.977600       0.962559
     1535.155100       0.964710
     1536.334300       0.968768
     1537.515400       0.973681
     1538.698300       0.979599
     1539.883000       0.986261
     1541.069500       0.993312
     1542.257900       0.998899
     1543.448100       1.000000
     1544.640100       0.993622
     1545.834000       0.979780
     1547.029700       0.962991
     1548.227300       0.945907
     1549.426700       0.934282
     1550.628000       0.929794
     1551.831200       0.929014
     1553.036200       0.930923
     1554.243100       0.935455
     1555.451900       0.942757
     1556.662500       0.952846
     1557.875100       0.962095
     1559.089500       0.964502
     1560.305800       0.954469
     1561.524000       0.933424
     1562.744200       0.909637
     1563.966200       0.891564
     1565.190200       0.881229
     1566.416000       0.878203
     1567.643800       0.881395
     1568.873500       0.886251
     1570.105200       0.891374
     1571.338800       0.895321
     1572.574300       0.896763
     1573.811800       0.894423
     1575.051200       0.887031
     1576.292600       0.874037
     1577.535900       0.856284
     1578.781200       0.840017
     1580.028400       0.830793
     1581.277700       0.827246
     1582.528900       0.828879
     1583.782100       0.834821
     1585.037200       0.842568
     1586.294400       0.848673
     1587.553600       0.849800
     1588.814700       0.845420
     1590.077900       0.834702
     1591.343100       0.820896
     1592.610300       0.808236
     1593.879500       0.797646
     1595.150700       0.791926
     1596.424000       0.791819
     1597.699300       0.796059
     1598.976700       0.803103
     1600.256000       0.808642
     1601.537500       0.811769
     1602.821000       0.811642
     1604.106500       0.805607
     1605.394100       0.795393
     1606.683800       0.782674
     1607.975600       0.769797
     1609.269400       0.759977
     1610.565300       0.756280
     1611.863300       0.759852
     1613.163400       0.769897
     1614.465600       0.785447
     1615.769900       0.801650
     1617.076300       0.815747
     1618.384900       0.825304
     1619.695500       0.827231
     1621.008300       0.823302
     1622.323200       0.815449
     1623.640200       0.806560
     1624.959400       0.800216
     1626.280700       0.799815
     1627.604200       0.805374
     1628.929800       0.812834
     1630.257600       0.822386
     1631.587500       0.833909
     1632.919700       0.842860
     1634.254000       0.849084
     1635.590400       0.849344
     1636.929100       0.840812
     1638.270000       0.825984
     1639.613100       0.810005
     1640.958300       0.799341
     1642.305800       0.798503
     1643.655500       0.806487
     1645.007400       0.821209
     1646.361500       0.839582
     1647.717900       0.856907
     1649.076500       0.868330
     1650.437400       0.873764
     1651.800500       0.872380
     1653.165800       0.865897
     1654.533400       0.856702
     1655.903300       0.845913
     1657.275400       0.838826
     1658.649900       0.837888
     1660.026600       0.839645
     1661.405500       0.842712
     1662.786800       0.845129
     1664.170400       0.844751
     1665.556300       0.840956
     1666.944500       0.837753
     1668.335000       0.839767
     1669.727800       0.846058
     1671.123000       0.854671
     1672.520500       0.863247
     1673.920300       0.866979
     1675.322500       0.865117
     1676.727000       0.857261
     1678.133900       0.846947
     1679.543200       0.839745
     1680.954800       0.840290
     1682.368800       0.849510
     1683.785100       0.865271
     1685.203900       0.885532
     1686.625100       0.901036
     1688.048600       0.897731
     1689.474600       0.876112
     1690.902900       0.846446
     1692.333700       0.818761
     1693.766900       0.799484
     1695.202600       0.791647
     1696.640700       0.798953
     1698.081200       0.816701
     1699.524100       0.834686
     1700.969600       0.845035
     1702.417400       0.840044
     1703.867800       0.813786
     1705.320600       0.771907
     1706.775900       0.725098
     1708.233700       0.682747
     1709.694000       0.650401
     1711.156700       0.632646
     1712.622000       0.628733
     1714.089800       0.632637
     1715.560100       0.639211
     1717.033000       0.636864
     1718.508300       0.612892
     1719.986200       0.566688
     1721.466700       0.513138
     1722.949700       0.468341
     1724.435200       0.437618
     1725.923400       0.418680
     1727.414100       0.409031
     1728.907300       0.406020
     1730.403200       0.406818
     1731.901600       0.406419
     1733.402700       0.397396
     1734.906300       0.373917
     1736.412600       0.341177
     1737.921400       0.308421
     1739.432900       0.282172
     1740.947100       0.264426
     1742.463800       0.256263
     1743.983300       0.254420
     1745.505300       0.253451
     1747.030000       0.248941
     1748.557400       0.238851
     1750.087500       0.221791
     1751.620200       0.200390
     1753.155700       0.179824
     1754.693800       0.163683
     1756.234600       0.153384
     1757.778200       0.149515
     1759.324400       0.149282
     1760.873400       0.148560
     1762.425100       0.144497
     1763.979500       0.137826
     1765.536700       0.129861
     1767.096700       0.121059
     1768.659400       0.112244
     1770.224800       0.104431
     1771.793100       0.098731
     1773.364100       0.096441
     1774.937900       0.096190
     1776.514500       0.094842
     1778.093900       0.091108
     1779.676100       0.086208
     1781.261100       0.081008
     1782.849000       0.075648
     1784.439700       0.069831
     1786.033200       0.063859
     1787.629600       0.059493
     1789.228800       0.057968
     1790.830900       0.057644
     1792.435900       0.056245
     1794.043800       0.053494
     1795.654500       0.050614
     1797.268200       0.048119
     1798.884700       0.045336
     1800.504100       0.041814
     1802.126500       0.038513
     1803.751800       0.036898
     1805.380000       0.037223
     1807.011200       0.038130
     1808.645300       0.038410
     1810.282400       0.037823
     1811.922400       0.036440
     1813.565500       0.034417
     1815.211500       0.031721
     1816.860500       0.028746
     1818.512500       0.026717
     1820.167500       0.026427
     1821.825500       0.026965
     1823.486500       0.027092
     1825.150600       0.026721
     1826.817700       0.026485
     1828.487800       0.026442
     1830.161100       0.025702
     1831.837300       0.023572
     1833.516700       0.021098
     1835.199100       0.019753
     1836.884600       0.019514
     1838.573300       0.019472
     1840.265000       0.019208
     1841.959800       0.018828
     1843.657800       0.018362
     1845.358900       0.017552
     1847.063200       0.016079
     1848.770600       0.014558
     1850.481100       0.014040
     1852.194900       0.014459
     1853.911800       0.014803
     1855.631800       0.014558
     1857.355100       0.014141
     1859.081600       0.013909
     1860.811300       0.013461
     1862.544200       0.012369
     1864.280400       0.011147
     1866.019800       0.010603
     1867.762400       0.010662
     1869.508300       0.010545
     1871.257500       0.010007
     1873.009900       0.009634
     1874.765700       0.009666
     1876.524700       0.009428
     1878.287000       0.008425
     1880.052600       0.007330
     1881.821600       0.007035
     1883.593900       0.007297
     1885.369500       0.007346
     1887.148500       0.007100
     1888.930900       0.007023
     1890.716600       0.007131
     1892.505700       0.006779
     1894.298200       0.005775
     1896.094000       0.004941
     1897.893300       0.004858
     1899.696000       0.005056
     1901.502200       0.005010
     1903.311800       0.004898
     1905.124800       0.005021
     1906.941300       0.005118
     1908.761200       0.004726
     1910.584600       0.004124
     1912.411600       0.004015
     1914.242000       0.004298
     1916.075900       0.004197
     1917.913300       0.003654
     1919.754300       0.003431
     1921.598800       0.003724
     1923.446800       0.003792
     1925.298400       0.003286
     1927.153600       0.002787
     1929.012300       0.002697
     1930.874700       0.002690
     1932.740600       0.002505
     1934.610200       0.002423
     1936.483300       0.002672
     1938.360100       0.002816
     1940.240600       0.002445
     1942.124700       0.002009
     1944.012400       0.002058
     1945.903900       0.002251
     1947.799000       0.002069
     1949.697800       0.001778
     1951.600300       0.001850
     1953.506500       0.002029
     1955.416500       0.001846
