14, GOES 11.2um ABI FM4 SRF CWG processed March 10, 2016
Number of data points:
1331
Wavenumber (cm-1)   Filter response
      823.500000       0.001082
      823.600000       0.001182
      823.700000       0.001286
      823.800000       0.001382
      823.900000       0.001487
      824.000000       0.001580
      824.100000       0.001595
      824.200000       0.001605
      824.300000       0.001609
      824.400000       0.001615
      824.500000       0.001624
      824.600000       0.001632
      824.700000       0.001636
      824.800000       0.001643
      824.900000       0.001652
      825.000000       0.001653
      825.100000       0.001643
      825.200000       0.001626
      825.300000       0.001613
      825.400000       0.001596
      825.500000       0.001582
      825.600000       0.001566
      825.700000       0.001551
      825.800000       0.001535
      825.900000       0.001520
      826.000000       0.001503
      826.100000       0.001466
      826.200000       0.001430
      826.300000       0.001395
      826.400000       0.001359
      826.500000       0.001323
      826.600000       0.001288
      826.700000       0.001246
      826.800000       0.001208
      826.900000       0.001172
      827.000000       0.001140
      827.100000       0.001200
      827.200000       0.001274
      827.300000       0.001343
      827.400000       0.001412
      827.500000       0.001481
      827.600000       0.001549
      827.700000       0.001620
      827.800000       0.001688
      827.900000       0.001752
      828.000000       0.001812
      828.100000       0.001815
      828.200000       0.001816
      828.300000       0.001816
      828.400000       0.001809
      828.500000       0.001809
      828.600000       0.001810
      828.700000       0.001802
      828.800000       0.001803
      828.900000       0.001803
      829.000000       0.001810
      829.100000       0.001908
      829.200000       0.002020
      829.300000       0.002138
      829.400000       0.002248
      829.500000       0.002358
      829.600000       0.002468
      829.700000       0.002583
      829.800000       0.002699
      829.900000       0.002811
      830.000000       0.002916
      830.100000       0.002899
      830.200000       0.002870
      830.300000       0.002847
      830.400000       0.002817
      830.500000       0.002786
      830.600000       0.002765
      830.700000       0.002734
      830.800000       0.002708
      830.900000       0.002680
      831.000000       0.002637
      831.100000       0.002505
      831.200000       0.002359
      831.300000       0.002214
      831.400000       0.002068
      831.500000       0.001923
      831.600000       0.001777
      831.700000       0.001632
      831.800000       0.001478
      831.900000       0.001326
      832.000000       0.001208
      832.100000       0.001368
      832.200000       0.001552
      832.300000       0.001736
      832.400000       0.001916
      832.500000       0.002098
      832.600000       0.002271
      832.700000       0.002444
      832.800000       0.002608
      832.900000       0.002775
      833.000000       0.002926
      833.100000       0.002976
      833.200000       0.003004
      833.300000       0.003038
      833.400000       0.003073
      833.500000       0.003102
      833.600000       0.003133
      833.700000       0.003168
      833.800000       0.003200
      833.900000       0.003229
      834.000000       0.003249
      834.100000       0.003183
      834.200000       0.003098
      834.300000       0.003013
      834.400000       0.002927
      834.500000       0.002842
      834.600000       0.002757
      834.700000       0.002666
      834.800000       0.002577
      834.900000       0.002479
      835.000000       0.002387
      835.100000       0.002508
      835.200000       0.002631
      835.300000       0.002755
      835.400000       0.002880
      835.500000       0.002995
      835.600000       0.003120
      835.700000       0.003236
      835.800000       0.003351
      835.900000       0.003469
      836.000000       0.003574
      836.100000       0.003623
      836.200000       0.003652
      836.300000       0.003690
      836.400000       0.003728
      836.500000       0.003763
      836.600000       0.003797
      836.700000       0.003835
      836.800000       0.003874
      836.900000       0.003911
      837.000000       0.003957
      837.100000       0.004085
      837.200000       0.004213
      837.300000       0.004353
      837.400000       0.004489
      837.500000       0.004620
      837.600000       0.004749
      837.700000       0.004883
      837.800000       0.005018
      837.900000       0.005147
      838.000000       0.005274
      838.100000       0.005341
      838.200000       0.005412
      838.300000       0.005478
      838.400000       0.005547
      838.500000       0.005616
      838.600000       0.005683
      838.700000       0.005753
      838.800000       0.005818
      838.900000       0.005889
      839.000000       0.005962
      839.100000       0.006054
      839.200000       0.006146
      839.300000       0.006243
      839.400000       0.006337
      839.500000       0.006429
      839.600000       0.006006
      839.700000       0.005554
      839.800000       0.005419
      839.900000       0.005281
      840.000000       0.005146
      840.100000       0.005010
      840.200000       0.004876
      840.300000       0.004737
      840.400000       0.004599
      840.500000       0.004520
      840.600000       0.004622
      840.700000       0.004758
      840.800000       0.004899
      840.900000       0.005040
      841.000000       0.005176
      841.100000       0.005304
      841.200000       0.008109
      841.300000       0.008180
      841.400000       0.008258
      841.500000       0.008337
      841.600000       0.008416
      841.700000       0.008491
      841.800000       0.008565
      841.900000       0.008645
      842.000000       0.008728
      842.100000       0.008754
      842.200000       0.008747
      842.300000       0.008741
      842.400000       0.008733
      842.500000       0.008726
      842.600000       0.008718
      842.700000       0.008710
      842.800000       0.008701
      842.900000       0.008696
      843.000000       0.008758
      843.100000       0.008896
      843.200000       0.009033
      843.300000       0.009169
      843.400000       0.009313
      843.500000       0.009419
      843.600000       0.009543
      843.700000       0.009692
      843.800000       0.009851
      843.900000       0.009883
      844.000000       0.009885
      844.100000       0.009886
      844.200000       0.009887
      844.300000       0.009887
      844.400000       0.009888
      844.500000       0.009888
      844.600000       0.009890
      844.700000       0.009900
      844.800000       0.010090
      844.900000       0.010524
      845.000000       0.010966
      845.100000       0.011409
      845.200000       0.011901
      845.300000       0.012390
      845.400000       0.012836
      845.500000       0.013283
      845.600000       0.013734
      845.700000       0.014270
      845.800000       0.014805
      845.900000       0.015310
      846.000000       0.015879
      846.100000       0.016415
      846.200000       0.016975
      846.300000       0.017515
      846.400000       0.018082
      846.500000       0.018594
      846.600000       0.019120
      846.700000       0.019724
      846.800000       0.020251
      846.900000       0.020826
      847.000000       0.021405
      847.100000       0.021765
      847.200000       0.022176
      847.300000       0.022589
      847.400000       0.022928
      847.500000       0.023355
      847.600000       0.023782
      847.700000       0.024167
      847.800000       0.024536
      847.900000       0.024960
      848.000000       0.025387
      848.100000       0.025810
      848.200000       0.026238
      848.300000       0.026660
      848.400000       0.027083
      848.500000       0.027507
      848.600000       0.027932
      848.700000       0.028359
      848.800000       0.028783
      848.900000       0.029208
      849.000000       0.029628
      849.100000       0.030187
      849.200000       0.030749
      849.300000       0.031352
      849.400000       0.031987
      849.500000       0.032533
      849.600000       0.033153
      849.700000       0.033766
      849.800000       0.034323
      849.900000       0.034956
      850.000000       0.035539
      850.100000       0.036117
      850.200000       0.036749
      850.300000       0.037323
      850.400000       0.038070
      850.500000       0.038909
      850.600000       0.039746
      850.700000       0.040582
      850.800000       0.041413
      850.900000       0.042248
      851.000000       0.043096
      851.100000       0.044033
      851.200000       0.045060
      851.300000       0.046079
      851.400000       0.047103
      851.500000       0.048121
      851.600000       0.049372
      851.700000       0.050645
      851.800000       0.052002
      851.900000       0.053302
      852.000000       0.054579
      852.100000       0.055929
      852.200000       0.057238
      852.300000       0.058566
      852.400000       0.059903
      852.500000       0.061210
      852.600000       0.062618
      852.700000       0.064160
      852.800000       0.065747
      852.900000       0.067410
      853.000000       0.069005
      853.100000       0.070644
      853.200000       0.072223
      853.300000       0.073902
      853.400000       0.075478
      853.500000       0.077146
      853.600000       0.078745
      853.700000       0.080506
      853.800000       0.082491
      853.900000       0.084488
      854.000000       0.086474
      854.100000       0.088469
      854.200000       0.090459
      854.300000       0.092486
      854.400000       0.094464
      854.500000       0.096535
      854.600000       0.098264
      854.700000       0.100556
      854.800000       0.103106
      854.900000       0.105649
      855.000000       0.108186
      855.100000       0.110708
      855.200000       0.113196
      855.300000       0.116657
      855.400000       0.119269
      855.500000       0.121797
      855.600000       0.124319
      855.700000       0.126801
      855.800000       0.129917
      855.900000       0.133000
      856.000000       0.136543
      856.100000       0.140348
      856.200000       0.144140
      856.300000       0.147930
      856.400000       0.151740
      856.500000       0.155465
      856.600000       0.158383
      856.700000       0.162162
      856.800000       0.165950
      856.900000       0.169796
      857.000000       0.174596
      857.100000       0.178279
      857.200000       0.183031
      857.300000       0.187255
      857.400000       0.191598
      857.500000       0.196291
      857.600000       0.200225
      857.700000       0.204647
      857.800000       0.208983
      857.900000       0.213476
      858.000000       0.217927
      858.100000       0.223662
      858.200000       0.229081
      858.300000       0.234148
      858.400000       0.239245
      858.500000       0.244322
      858.600000       0.249398
      858.700000       0.254476
      858.800000       0.259548
      858.900000       0.264513
      859.000000       0.269732
      859.100000       0.274935
      859.200000       0.280463
      859.300000       0.285703
      859.400000       0.291116
      859.500000       0.296364
      859.600000       0.301584
      859.700000       0.306316
      859.800000       0.311963
      859.900000       0.317260
      860.000000       0.322477
      860.100000       0.328021
      860.200000       0.333982
      860.300000       0.339924
      860.400000       0.345857
      860.500000       0.351763
      860.600000       0.358675
      860.700000       0.364751
      860.800000       0.370745
      860.900000       0.376813
      861.000000       0.383563
      861.100000       0.389789
      861.200000       0.395808
      861.300000       0.402446
      861.400000       0.408934
      861.500000       0.415777
      861.600000       0.422323
      861.700000       0.429073
      861.800000       0.435649
      861.900000       0.442036
      862.000000       0.448640
      862.100000       0.454604
      862.200000       0.461337
      862.300000       0.467724
      862.400000       0.473911
      862.500000       0.479992
      862.600000       0.486514
      862.700000       0.493136
      862.800000       0.499176
      862.900000       0.505894
      863.000000       0.512240
      863.100000       0.518496
      863.200000       0.525208
      863.300000       0.531294
      863.400000       0.537793
      863.500000       0.544423
      863.600000       0.550410
      863.700000       0.556676
      863.800000       0.562336
      863.900000       0.568607
      864.000000       0.574552
      864.100000       0.580150
      864.200000       0.585942
      864.300000       0.592311
      864.400000       0.597953
      864.500000       0.603572
      864.600000       0.609188
      864.700000       0.615489
      864.800000       0.621456
      864.900000       0.627080
      865.000000       0.632611
      865.100000       0.637531
      865.200000       0.643235
      865.300000       0.648902
      865.400000       0.653932
      865.500000       0.659397
      865.600000       0.665099
      865.700000       0.670099
      865.800000       0.674136
      865.900000       0.678896
      866.000000       0.683776
      866.100000       0.688600
      866.200000       0.692927
      866.300000       0.696816
      866.400000       0.700732
      866.500000       0.704652
      866.600000       0.708607
      866.700000       0.712900
      866.800000       0.717449
      866.900000       0.721334
      867.000000       0.725257
      867.100000       0.729184
      867.200000       0.733119
      867.300000       0.737055
      867.400000       0.741084
      867.500000       0.745701
      867.600000       0.749829
      867.700000       0.752952
      867.800000       0.755915
      867.900000       0.758935
      868.000000       0.761885
      868.100000       0.764781
      868.200000       0.767635
      868.300000       0.770459
      868.400000       0.773290
      868.500000       0.776916
      868.600000       0.779741
      868.700000       0.782489
      868.800000       0.785234
      868.900000       0.787983
      869.000000       0.790454
      869.100000       0.792209
      869.200000       0.793970
      869.300000       0.795984
      869.400000       0.798346
      869.500000       0.800028
      869.600000       0.801826
      869.700000       0.803601
      869.800000       0.805955
      869.900000       0.808360
      870.000000       0.810188
      870.100000       0.812085
      870.200000       0.814002
      870.300000       0.815925
      870.400000       0.817861
      870.500000       0.819090
      870.600000       0.820772
      870.700000       0.821869
      870.800000       0.823607
      870.900000       0.824901
      871.000000       0.826647
      871.100000       0.827759
      871.200000       0.829475
      871.300000       0.830809
      871.400000       0.832513
      871.500000       0.833860
      871.600000       0.835396
      871.700000       0.836349
      871.800000       0.837328
      871.900000       0.838206
      872.000000       0.839171
      872.100000       0.840072
      872.200000       0.840963
      872.300000       0.841887
      872.400000       0.842691
      872.500000       0.843409
      872.600000       0.844147
      872.700000       0.845606
      872.800000       0.846509
      872.900000       0.847213
      873.000000       0.847040
      873.100000       0.847609
      873.200000       0.848234
      873.300000       0.848812
      873.400000       0.848737
      873.500000       0.849353
      873.600000       0.850068
      873.700000       0.851063
      873.800000       0.851814
      873.900000       0.853186
      874.000000       0.854643
      874.100000       0.855601
      874.200000       0.856484
      874.300000       0.857584
      874.400000       0.858503
      874.500000       0.859426
      874.600000       0.860435
      874.700000       0.861416
      874.800000       0.862689
      874.900000       0.863538
      875.000000       0.864671
      875.100000       0.865506
      875.200000       0.866744
      875.300000       0.867522
      875.400000       0.868698
      875.500000       0.869467
      875.600000       0.870754
      875.700000       0.871403
      875.800000       0.871986
      875.900000       0.873310
      876.000000       0.874014
      876.100000       0.875268
      876.200000       0.875781
      876.300000       0.876401
      876.400000       0.877571
      876.500000       0.878073
      876.600000       0.878690
      876.700000       0.879903
      876.800000       0.880389
      876.900000       0.881135
      877.000000       0.882299
      877.100000       0.882752
      877.200000       0.883228
      877.300000       0.883714
      877.400000       0.884206
      877.500000       0.885173
      877.600000       0.886185
      877.700000       0.886635
      877.800000       0.887173
      877.900000       0.887711
      878.000000       0.888253
      878.100000       0.889503
      878.200000       0.890425
      878.300000       0.890991
      878.400000       0.891604
      878.500000       0.892961
      878.600000       0.893587
      878.700000       0.894102
      878.800000       0.894585
      878.900000       0.895942
      879.000000       0.896569
      879.100000       0.897011
      879.200000       0.897349
      879.300000       0.897783
      879.400000       0.899052
      879.500000       0.899704
      879.600000       0.900196
      879.700000       0.900677
      879.800000       0.901163
      879.900000       0.901433
      880.000000       0.901912
      880.100000       0.902376
      880.200000       0.902845
      880.300000       0.903321
      880.400000       0.903795
      880.500000       0.904254
      880.600000       0.904708
      880.700000       0.905499
      880.800000       0.906699
      880.900000       0.907195
      881.000000       0.907679
      881.100000       0.908160
      881.200000       0.909130
      881.300000       0.910219
      881.400000       0.910826
      881.500000       0.911502
      881.600000       0.912210
      881.700000       0.913502
      881.800000       0.914857
      881.900000       0.915747
      882.000000       0.916602
      882.100000       0.917617
      882.200000       0.918623
      882.300000       0.920405
      882.400000       0.921820
      882.500000       0.922862
      882.600000       0.923896
      882.700000       0.925037
      882.800000       0.926090
      882.900000       0.927151
      883.000000       0.928207
      883.100000       0.930009
      883.200000       0.931322
      883.300000       0.932290
      883.400000       0.933222
      883.500000       0.934089
      883.600000       0.934994
      883.700000       0.936709
      883.800000       0.937551
      883.900000       0.938234
      884.000000       0.939000
      884.100000       0.939769
      884.200000       0.941379
      884.300000       0.942298
      884.400000       0.942928
      884.500000       0.943659
      884.600000       0.944580
      884.700000       0.946090
      884.800000       0.946928
      884.900000       0.947567
      885.000000       0.948324
      885.100000       0.949038
      885.200000       0.949581
      885.300000       0.950118
      885.400000       0.951338
      885.500000       0.951868
      885.600000       0.952325
      885.700000       0.952728
      885.800000       0.953134
      885.900000       0.953617
      886.000000       0.954287
      886.100000       0.955597
      886.200000       0.956212
      886.300000       0.956765
      886.400000       0.957357
      886.500000       0.957977
      886.600000       0.958530
      886.700000       0.959105
      886.800000       0.959739
      886.900000       0.960363
      887.000000       0.961246
      887.100000       0.962633
      887.200000       0.963261
      887.300000       0.963296
      887.400000       0.963039
      887.500000       0.963507
      887.600000       0.963994
      887.700000       0.964427
      887.800000       0.964464
      887.900000       0.964029
      888.000000       0.964347
      888.100000       0.964598
      888.200000       0.964820
      888.300000       0.964637
      888.400000       0.964179
      888.500000       0.964347
      888.600000       0.964659
      888.700000       0.964392
      888.800000       0.964014
      888.900000       0.964227
      889.000000       0.964132
      889.100000       0.963783
      889.200000       0.964129
      889.300000       0.963989
      889.400000       0.963558
      889.500000       0.963989
      889.600000       0.963798
      889.700000       0.963442
      889.800000       0.963854
      889.900000       0.963642
      890.000000       0.963375
      890.100000       0.963693
      890.200000       0.964118
      890.300000       0.963941
      890.400000       0.963713
      890.500000       0.964115
      890.600000       0.964519
      890.700000       0.964385
      890.800000       0.964274
      890.900000       0.964922
      891.000000       0.965514
      891.100000       0.965502
      891.200000       0.965452
      891.300000       0.966082
      891.400000       0.966664
      891.500000       0.967379
      891.600000       0.967995
      891.700000       0.968622
      891.800000       0.969237
      891.900000       0.969848
      892.000000       0.970550
      892.100000       0.971057
      892.200000       0.971560
      892.300000       0.972201
      892.400000       0.972730
      892.500000       0.973235
      892.600000       0.973710
      892.700000       0.974261
      892.800000       0.974689
      892.900000       0.975094
      893.000000       0.975585
      893.100000       0.976005
      893.200000       0.976412
      893.300000       0.976812
      893.400000       0.977310
      893.500000       0.977730
      893.600000       0.978138
      893.700000       0.978546
      893.800000       0.978994
      893.900000       0.979058
      894.000000       0.978747
      894.100000       0.979265
      894.200000       0.979261
      894.300000       0.978954
      894.400000       0.979445
      894.500000       0.979501
      894.600000       0.979304
      894.700000       0.979703
      894.800000       0.979954
      894.900000       0.979661
      895.000000       0.980024
      895.100000       0.980314
      895.200000       0.979954
      895.300000       0.980525
      895.400000       0.980740
      895.500000       0.980497
      895.600000       0.981158
      895.700000       0.981437
      895.800000       0.981367
      895.900000       0.981888
      896.000000       0.982318
      896.100000       0.982166
      896.200000       0.982674
      896.300000       0.983238
      896.400000       0.982928
      896.500000       0.983551
      896.600000       0.984017
      896.700000       0.983718
      896.800000       0.984346
      896.900000       0.984972
      897.000000       0.985428
      897.100000       0.985086
      897.200000       0.985687
      897.300000       0.986318
      897.400000       0.986831
      897.500000       0.986492
      897.600000       0.986937
      897.700000       0.987582
      897.800000       0.988148
      897.900000       0.987844
      898.000000       0.988223
      898.100000       0.988863
      898.200000       0.989489
      898.300000       0.990112
      898.400000       0.990712
      898.500000       0.991131
      898.600000       0.991071
      898.700000       0.991355
      898.800000       0.991943
      898.900000       0.992516
      899.000000       0.993091
      899.100000       0.993656
      899.200000       0.994224
      899.300000       0.994121
      899.400000       0.994124
      899.500000       0.994705
      899.600000       0.995213
      899.700000       0.995720
      899.800000       0.996254
      899.900000       0.996037
      900.000000       0.995992
      900.100000       0.996460
      900.200000       0.996957
      900.300000       0.997437
      900.400000       0.997951
      900.500000       0.997998
      900.600000       0.997700
      900.700000       0.998166
      900.800000       0.998679
      900.900000       0.998653
      901.000000       0.998244
      901.100000       0.998735
      901.200000       0.999217
      901.300000       0.999346
      901.400000       0.998877
      901.500000       0.999349
      901.600000       0.999801
      901.700000       0.999997
      901.800000       0.999559
      901.900000       0.999809
      902.000000       0.999392
      902.100000       0.999414
      902.200000       0.998800
      902.300000       0.999041
      902.400000       0.998550
      902.500000       0.998504
      902.600000       0.997865
      902.700000       0.998019
      902.800000       0.997467
      902.900000       0.997448
      903.000000       0.997752
      903.100000       0.997082
      903.200000       0.997006
      903.300000       0.996579
      903.400000       0.996383
      903.500000       0.995884
      903.600000       0.995618
      903.700000       0.995225
      903.800000       0.994959
      903.900000       0.994580
      904.000000       0.994242
      904.100000       0.993964
      904.200000       0.993516
      904.300000       0.993171
      904.400000       0.992266
      904.500000       0.991618
      904.600000       0.991515
      904.700000       0.990948
      904.800000       0.990688
      904.900000       0.990069
      905.000000       0.990077
      905.100000       0.989386
      905.200000       0.989146
      905.300000       0.988427
      905.400000       0.988498
      905.500000       0.987722
      905.600000       0.987489
      905.700000       0.986745
      905.800000       0.986805
      905.900000       0.985905
      906.000000       0.984996
      906.100000       0.984796
      906.200000       0.983975
      906.300000       0.983830
      906.400000       0.983267
      906.500000       0.982919
      906.600000       0.982203
      906.700000       0.981944
      906.800000       0.981263
      906.900000       0.980808
      907.000000       0.980342
      907.100000       0.979191
      907.200000       0.978693
      907.300000       0.978341
      907.400000       0.977747
      907.500000       0.977423
      907.600000       0.976438
      907.700000       0.975757
      907.800000       0.975659
      907.900000       0.974467
      908.000000       0.973791
      908.100000       0.973736
      908.200000       0.972966
      908.300000       0.972901
      908.400000       0.972118
      908.500000       0.971297
      908.600000       0.971510
      908.700000       0.970779
      908.800000       0.970110
      908.900000       0.970137
      909.000000       0.969609
      909.100000       0.968721
      909.200000       0.968343
      909.300000       0.967706
      909.400000       0.966462
      909.500000       0.966149
      909.600000       0.965524
      909.700000       0.964361
      909.800000       0.963120
      909.900000       0.962534
      910.000000       0.961899
      910.100000       0.960635
      910.200000       0.959276
      910.300000       0.958342
      910.400000       0.957652
      910.500000       0.956311
      910.600000       0.954869
      910.700000       0.953389
      910.800000       0.952141
      910.900000       0.951539
      911.000000       0.950170
      911.100000       0.948692
      911.200000       0.947262
      911.300000       0.945854
      911.400000       0.944379
      911.500000       0.942916
      911.600000       0.941467
      911.700000       0.939908
      911.800000       0.938340
      911.900000       0.936880
      912.000000       0.935400
      912.100000       0.933903
      912.200000       0.932347
      912.300000       0.930896
      912.400000       0.928969
      912.500000       0.926602
      912.600000       0.925120
      912.700000       0.923236
      912.800000       0.920902
      912.900000       0.919254
      913.000000       0.917613
      913.100000       0.915933
      913.200000       0.913601
      913.300000       0.911850
      913.400000       0.910357
      913.500000       0.907925
      913.600000       0.906136
      913.700000       0.904614
      913.800000       0.902329
      913.900000       0.900504
      914.000000       0.898370
      914.100000       0.896316
      914.200000       0.894360
      914.300000       0.892311
      914.400000       0.890336
      914.500000       0.888183
      914.600000       0.886503
      914.700000       0.884254
      914.800000       0.882454
      914.900000       0.880261
      915.000000       0.878727
      915.100000       0.876228
      915.200000       0.873742
      915.300000       0.871416
      915.400000       0.869075
      915.500000       0.866035
      915.600000       0.862967
      915.700000       0.860428
      915.800000       0.857952
      915.900000       0.854836
      916.000000       0.851795
      916.100000       0.848782
      916.200000       0.845778
      916.300000       0.842771
      916.400000       0.839760
      916.500000       0.836737
      916.600000       0.833546
      916.700000       0.829428
      916.800000       0.826416
      916.900000       0.823363
      917.000000       0.819250
      917.100000       0.815773
      917.200000       0.811431
      917.300000       0.807314
      917.400000       0.803014
      917.500000       0.798692
      917.600000       0.795102
      917.700000       0.790682
      917.800000       0.786643
      917.900000       0.781668
      918.000000       0.777722
      918.100000       0.773212
      918.200000       0.768350
      918.300000       0.763873
      918.400000       0.759983
      918.500000       0.755669
      918.600000       0.751025
      918.700000       0.746406
      918.800000       0.741474
      918.900000       0.735914
      919.000000       0.731152
      919.100000       0.725716
      919.200000       0.721016
      919.300000       0.715571
      919.400000       0.710376
      919.500000       0.705013
      919.600000       0.700393
      919.700000       0.694852
      919.800000       0.689753
      919.900000       0.683825
      920.000000       0.678571
      920.100000       0.672723
      920.200000       0.667625
      920.300000       0.661891
      920.400000       0.657048
      920.500000       0.651061
      920.600000       0.645773
      920.700000       0.639607
      920.800000       0.632892
      920.900000       0.626813
      921.000000       0.620826
      921.100000       0.614761
      921.200000       0.608708
      921.300000       0.602652
      921.400000       0.596659
      921.500000       0.590553
      921.600000       0.583643
      921.700000       0.577391
      921.800000       0.571500
      921.900000       0.564462
      922.000000       0.558350
      922.100000       0.552308
      922.200000       0.545630
      922.300000       0.539290
      922.400000       0.533393
      922.500000       0.526408
      922.600000       0.520304
      922.700000       0.514344
      922.800000       0.507945
      922.900000       0.501921
      923.000000       0.496587
      923.100000       0.490815
      923.200000       0.484618
      923.300000       0.479270
      923.400000       0.473692
      923.500000       0.467839
      923.600000       0.463010
      923.700000       0.457740
      923.800000       0.452373
      923.900000       0.446998
      924.000000       0.441607
      924.100000       0.436261
      924.200000       0.430922
      924.300000       0.425599
      924.400000       0.420294
      924.500000       0.415000
      924.600000       0.409666
      924.700000       0.404903
      924.800000       0.400234
      924.900000       0.394996
      925.000000       0.389720
      925.100000       0.384441
      925.200000       0.379163
      925.300000       0.373886
      925.400000       0.368566
      925.500000       0.364193
      925.600000       0.359191
      925.700000       0.353886
      925.800000       0.348593
      925.900000       0.343293
      926.000000       0.337936
      926.100000       0.333659
      926.200000       0.328503
      926.300000       0.323174
      926.400000       0.317849
      926.500000       0.312435
      926.600000       0.308102
      926.700000       0.303008
      926.800000       0.298870
      926.900000       0.293516
      927.000000       0.288848
      927.100000       0.284084
      927.200000       0.279832
      927.300000       0.274734
      927.400000       0.270621
      927.500000       0.265656
      927.600000       0.261199
      927.700000       0.256610
      927.800000       0.252667
      927.900000       0.248679
      928.000000       0.244725
      928.100000       0.240777
      928.200000       0.236831
      928.300000       0.232889
      928.400000       0.229000
      928.500000       0.223941
      928.600000       0.219992
      928.700000       0.216356
      928.800000       0.213374
      928.900000       0.209394
      929.000000       0.205460
      929.100000       0.202679
      929.200000       0.198912
      929.300000       0.195289
      929.400000       0.192403
      929.500000       0.188409
      929.600000       0.185442
      929.700000       0.181905
      929.800000       0.178132
      929.900000       0.175593
      930.000000       0.173068
      930.100000       0.169960
      930.200000       0.166826
      930.300000       0.164328
      930.400000       0.161709
      930.500000       0.158089
      930.600000       0.155574
      930.700000       0.152525
      930.800000       0.149225
      930.900000       0.146729
      931.000000       0.145009
      931.100000       0.142454
      931.200000       0.139804
      931.300000       0.137150
      931.400000       0.134490
      931.500000       0.131840
      931.600000       0.129189
      931.700000       0.126513
      931.800000       0.124610
      931.900000       0.122364
      932.000000       0.119984
      932.100000       0.118005
      932.200000       0.116155
      932.300000       0.113898
      932.400000       0.112194
      932.500000       0.110147
      932.600000       0.108152
      932.700000       0.106159
      932.800000       0.104162
      932.900000       0.102367
      933.000000       0.100745
      933.100000       0.099037
      933.200000       0.097351
      933.300000       0.095705
      933.400000       0.094030
      933.500000       0.092339
      933.600000       0.090648
      933.700000       0.088987
      933.800000       0.087332
      933.900000       0.085830
      934.000000       0.084370
      934.100000       0.082902
      934.200000       0.081493
      934.300000       0.080081
      934.400000       0.078621
      934.500000       0.077156
      934.600000       0.075688
      934.700000       0.074264
      934.800000       0.072870
      934.900000       0.071477
      935.000000       0.070254
      935.100000       0.069040
      935.200000       0.067736
      935.300000       0.066534
      935.400000       0.065270
      935.500000       0.063987
      935.600000       0.062710
      935.700000       0.061488
      935.800000       0.060228
      935.900000       0.059031
      936.000000       0.058035
      936.100000       0.056998
      936.200000       0.055926
      936.300000       0.054856
      936.400000       0.053783
      936.500000       0.052707
      936.600000       0.051737
      936.700000       0.050720
      936.800000       0.049723
      936.900000       0.048895
      937.000000       0.048369
      937.100000       0.047883
      937.200000       0.047389
      937.300000       0.046957
      937.400000       0.046524
      937.500000       0.046029
      937.600000       0.045536
      937.700000       0.045055
      937.800000       0.044649
      937.900000       0.044176
      938.000000       0.043693
      938.100000       0.043324
      938.200000       0.042955
      938.300000       0.042587
      938.400000       0.042219
      938.500000       0.041851
      938.600000       0.041483
      938.700000       0.041116
      938.800000       0.040749
      938.900000       0.040383
      939.000000       0.040017
      939.100000       0.039653
      939.200000       0.039268
      939.300000       0.038823
      939.400000       0.038424
      939.500000       0.037964
      939.600000       0.037577
      939.700000       0.037121
      939.800000       0.036713
      939.900000       0.036287
      940.000000       0.035861
      940.100000       0.035373
      940.200000       0.034975
      940.300000       0.034447
      940.400000       0.033931
      940.500000       0.033434
      940.600000       0.032885
      940.700000       0.032347
      940.800000       0.031798
      940.900000       0.031272
      941.000000       0.030706
      941.100000       0.030191
      941.200000       0.029626
      941.300000       0.029095
      941.400000       0.028604
      941.500000       0.028250
      941.600000       0.027891
      941.700000       0.027437
      941.800000       0.027045
      941.900000       0.026682
      942.000000       0.026319
      942.100000       0.025930
      942.200000       0.025486
      942.300000       0.025057
      942.400000       0.024638
      942.500000       0.024107
      942.600000       0.023660
      942.700000       0.023228
      942.800000       0.022749
      942.900000       0.022256
      943.000000       0.021796
      943.100000       0.021299
      943.200000       0.020857
      943.300000       0.020432
      943.400000       0.019886
      943.500000       0.019434
      943.600000       0.018907
      943.700000       0.018425
      943.800000       0.017916
      943.900000       0.017433
      944.000000       0.016914
      944.100000       0.016459
      944.200000       0.015918
      944.300000       0.015499
      944.400000       0.015183
      944.500000       0.014988
      944.600000       0.014764
      944.700000       0.014562
      944.800000       0.014326
      944.900000       0.014151
      945.000000       0.013892
      945.100000       0.013722
      945.200000       0.013489
      945.300000       0.013368
      945.400000       0.013289
      945.500000       0.013226
      945.600000       0.013129
      945.700000       0.013090
      945.800000       0.013076
      945.900000       0.012967
      946.000000       0.012921
      946.100000       0.012834
      946.200000       0.012745
      946.300000       0.012598
      946.400000       0.012459
      946.500000       0.012305
      946.600000       0.012277
      946.700000       0.012150
      946.800000       0.012012
      946.900000       0.011873
      947.000000       0.011734
      947.100000       0.011587
      947.200000       0.011507
      947.300000       0.011498
      947.400000       0.011488
      947.500000       0.011386
      947.600000       0.011381
      947.700000       0.011378
      947.800000       0.011374
      947.900000       0.011371
      948.000000       0.011325
      948.100000       0.011261
      948.200000       0.011095
      948.300000       0.010895
      948.400000       0.010707
      948.500000       0.010510
      948.600000       0.010313
      948.700000       0.010121
      948.800000       0.009930
      948.900000       0.009739
      949.000000       0.009547
      949.100000       0.009397
      949.200000       0.009284
      949.300000       0.009174
      949.400000       0.009064
      949.500000       0.008954
      949.600000       0.008835
      949.700000       0.008724
      949.800000       0.008615
      949.900000       0.008505
      950.000000       0.008393
      950.100000       0.008277
      950.200000       0.008160
      950.300000       0.008045
      950.400000       0.007936
      950.500000       0.007817
      950.600000       0.007707
      950.700000       0.007593
      950.800000       0.007470
      950.900000       0.007401
      951.000000       0.007502
      951.100000       0.007757
      951.200000       0.008015
      951.300000       0.008277
      951.400000       0.008542
      951.500000       0.008805
      951.600000       0.009064
      951.700000       0.009323
      951.800000       0.009607
      951.900000       0.009745
      952.000000       0.009704
      952.100000       0.009622
      952.200000       0.009542
      952.300000       0.009461
      952.400000       0.009380
      952.500000       0.009299
      952.600000       0.009221
      952.700000       0.009148
      952.800000       0.009066
      952.900000       0.008951
      953.000000       0.008827
      953.100000       0.008706
      953.200000       0.008576
      953.300000       0.008457
      953.400000       0.008331
      953.500000       0.008207
      953.600000       0.008083
      953.700000       0.007963
      953.800000       0.007753
      953.900000       0.007398
      954.000000       0.007024
      954.100000       0.006646
      954.200000       0.006270
      954.300000       0.005895
      954.400000       0.005525
      954.500000       0.005147
      954.600000       0.004773
      954.700000       0.004396
      954.800000       0.004020
      954.900000       0.003640
      955.000000       0.003266
      955.100000       0.002871
      955.200000       0.002735
      955.300000       0.002564
      955.400000       0.002384
      955.500000       0.002211
      955.600000       0.002033
      955.700000       0.001859
      955.800000       0.001676
      955.900000       0.001493
      956.000000       0.001322
      956.100000       0.001230
      956.200000       0.001162
      956.300000       0.001094
      956.400000       0.001019
      956.500000       0.000949
