151,   151, MVIRI VIS channel from srf_MET7_2016168_2016169_1801-Release_S10EE_10.dat
Number of data points:
793
Wavenumber (cm-1)   Filter response
     8442.380800       0.000000
     8449.514200       0.000000
     8456.659600       0.000004
     8463.817200       0.000057
     8470.986900       0.000169
     8478.168700       0.000338
     8485.362700       0.000563
     8492.569000       0.000841
     8499.787500       0.001172
     8507.018300       0.001554
     8514.261400       0.001984
     8521.516800       0.002463
     8528.784600       0.002989
     8536.064900       0.003559
     8543.357500       0.004174
     8550.662700       0.004831
     8557.980300       0.005530
     8565.310500       0.006269
     8572.653200       0.007048
     8580.008600       0.007865
     8587.376600       0.008719
     8594.757200       0.009610
     8602.150500       0.010536
     8609.556600       0.011496
     8616.975400       0.012490
     8624.407100       0.013518
     8631.851500       0.014577
     8639.308900       0.015667
     8646.779100       0.016788
     8654.262200       0.017939
     8661.758300       0.019120
     8669.267400       0.020329
     8676.789600       0.021566
     8684.324800       0.022831
     8691.873100       0.024122
     8699.434500       0.025441
     8707.009100       0.026785
     8714.596900       0.028155
     8722.198000       0.029550
     8729.812300       0.030970
     8737.439900       0.032414
     8745.080900       0.033883
     8752.735200       0.035375
     8760.403000       0.036891
     8768.084200       0.038430
     8775.778900       0.039992
     8783.487000       0.041577
     8791.208800       0.043183
     8798.944100       0.044813
     8806.693100       0.046464
     8814.455700       0.048137
     8822.232000       0.049832
     8830.022100       0.051548
     8837.825900       0.053286
     8845.643500       0.055045
     8853.475000       0.056826
     8861.320300       0.058627
     8869.179600       0.060450
     8877.052800       0.062293
     8884.940000       0.064158
     8892.841300       0.066043
     8900.756600       0.067950
     8908.686000       0.069877
     8916.629500       0.071825
     8924.587200       0.073794
     8932.559200       0.075784
     8940.545400       0.077794
     8948.545900       0.079826
     8956.560700       0.081878
     8964.589900       0.083952
     8972.633500       0.086046
     8980.691500       0.088161
     8988.764000       0.090298
     8996.851100       0.092456
     9004.952700       0.094635
     9013.068900       0.096835
     9021.199800       0.099056
     9029.345400       0.101299
     9037.505600       0.103564
     9045.680700       0.105850
     9053.870500       0.108158
     9062.075200       0.110487
     9070.294800       0.112839
     9078.529300       0.115212
     9086.778700       0.117607
     9095.043200       0.120024
     9103.322700       0.122464
     9111.617300       0.124926
     9119.927000       0.127410
     9128.251900       0.129916
     9136.592100       0.132445
     9144.947400       0.134997
     9153.318100       0.137571
     9161.704100       0.140168
     9170.105500       0.142788
     9178.522300       0.145432
     9186.954500       0.148097
     9195.402300       0.150786
     9203.865600       0.153498
     9212.344500       0.156234
     9220.839100       0.158993
     9229.349300       0.161775
     9237.875300       0.164580
     9246.417000       0.167409
     9254.974500       0.170262
     9263.547900       0.173138
     9272.137200       0.176037
     9280.742500       0.178961
     9289.363700       0.181907
     9298.000900       0.184878
     9306.654300       0.187873
     9315.323700       0.190891
     9324.009300       0.193933
     9332.711200       0.196999
     9341.429200       0.200088
     9350.163600       0.203201
     9358.914400       0.206338
     9367.681500       0.209499
     9376.465100       0.212684
     9385.265100       0.215892
     9394.081700       0.219125
     9402.914900       0.222380
     9411.764700       0.225660
     9420.631200       0.228963
     9429.514400       0.232289
     9438.414300       0.235639
     9447.331100       0.239012
     9456.264800       0.242409
     9465.215300       0.245829
     9474.182900       0.249272
     9483.167400       0.252739
     9492.169000       0.256228
     9501.187600       0.259740
     9510.223500       0.263275
     9519.276500       0.266833
     9528.346800       0.270413
     9537.434400       0.274016
     9546.539400       0.277641
     9555.661700       0.281288
     9564.801500       0.284957
     9573.958800       0.288648
     9583.133700       0.292361
     9592.326100       0.296095
     9601.536200       0.299850
     9610.764100       0.303627
     9620.009600       0.307425
     9629.273000       0.311243
     9638.554200       0.315082
     9647.853400       0.318941
     9657.170400       0.322821
     9666.505600       0.326720
     9675.858700       0.330640
     9685.230000       0.334578
     9694.619500       0.338536
     9704.027200       0.342513
     9713.453100       0.346509
     9722.897400       0.350523
     9732.360100       0.354555
     9741.841200       0.358606
     9751.340800       0.362674
     9760.859000       0.366760
     9770.395700       0.370862
     9779.951100       0.374981
     9789.525200       0.379118
     9799.118100       0.383270
     9808.729800       0.387438
     9818.360300       0.391622
     9828.009800       0.395820
     9837.678300       0.400035
     9847.365800       0.404263
     9857.072400       0.408506
     9866.798200       0.412763
     9876.543200       0.417033
     9886.307500       0.421317
     9896.091000       0.425613
     9905.894000       0.429922
     9915.716400       0.434244
     9925.558300       0.438576
     9935.419800       0.442921
     9945.300800       0.447276
     9955.201600       0.451642
     9965.122100       0.456018
     9975.062300       0.460404
     9985.022500       0.464800
     9995.002500       0.469205
    10005.002500       0.473618
    10015.022500       0.478039
    10025.062700       0.482469
    10035.122900       0.486905
    10045.203400       0.491349
    10055.304200       0.495799
    10065.425300       0.500255
    10075.566800       0.504717
    10085.728700       0.509185
    10095.911200       0.513657
    10106.114200       0.518133
    10116.337900       0.522614
    10126.582300       0.527098
    10136.847400       0.531585
    10147.133400       0.536074
    10157.440300       0.540566
    10167.768200       0.545059
    10178.117000       0.549554
    10188.487000       0.554049
    10198.878100       0.558545
    10209.290500       0.563040
    10219.724100       0.567535
    10230.179000       0.572029
    10240.655400       0.576521
    10251.153300       0.581011
    10261.672700       0.585499
    10272.213700       0.589983
    10282.776300       0.594465
    10293.360800       0.598942
    10303.967000       0.603415
    10314.595200       0.607883
    10325.245200       0.612345
    10335.917300       0.616802
    10346.611500       0.621252
    10357.327800       0.625696
    10368.066400       0.630132
    10378.827200       0.634561
    10389.610400       0.638981
    10400.416000       0.643393
    10411.244100       0.647795
    10422.094800       0.652188
    10432.968200       0.656571
    10443.864200       0.660943
    10454.783100       0.665304
    10465.724800       0.669653
    10476.689400       0.673990
    10487.677000       0.678315
    10498.687700       0.682627
    10509.721500       0.686925
    10520.778500       0.691209
    10531.858900       0.695479
    10542.962600       0.699735
    10554.089700       0.703974
    10565.240400       0.708198
    10576.414600       0.712406
    10587.612500       0.716597
    10598.834100       0.720771
    10610.079600       0.724927
    10621.348900       0.729065
    10632.642200       0.733184
    10643.959600       0.737285
    10655.301000       0.741366
    10666.666700       0.745427
    10678.056600       0.749468
    10689.470900       0.753488
    10700.909600       0.757488
    10712.372800       0.761465
    10723.860600       0.765420
    10735.373100       0.769353
    10746.910300       0.773264
    10758.472300       0.777150
    10770.059200       0.781013
    10781.671200       0.784852
    10793.308100       0.788667
    10804.970300       0.792456
    10816.657700       0.796220
    10828.370300       0.799959
    10840.108400       0.803671
    10851.871900       0.807357
    10863.661100       0.811016
    10875.475800       0.814648
    10887.316300       0.818252
    10899.182600       0.821828
    10911.074700       0.825375
    10922.992900       0.828894
    10934.937100       0.832384
    10946.907500       0.835845
    10958.904100       0.839275
    10970.927000       0.842676
    10982.976400       0.846046
    10995.052200       0.849386
    11007.154700       0.852694
    11019.283700       0.855971
    11031.439600       0.859216
    11043.622300       0.862429
    11055.832000       0.865610
    11068.068600       0.868758
    11080.332400       0.871873
    11092.623400       0.874955
    11104.941700       0.878003
    11117.287400       0.881018
    11129.660500       0.883999
    11142.061300       0.886945
    11154.489700       0.889857
    11166.945800       0.892733
    11179.429800       0.895575
    11191.941800       0.898382
    11204.481800       0.901153
    11217.049900       0.903888
    11229.646300       0.906587
    11242.270900       0.909250
    11254.924000       0.911877
    11267.605600       0.914466
    11280.315800       0.917020
    11293.054800       0.919536
    11305.822500       0.922014
    11318.619100       0.924456
    11331.444800       0.926860
    11344.299500       0.929226
    11357.183400       0.931555
    11370.096600       0.933845
    11383.039300       0.936097
    11396.011400       0.938311
    11409.013100       0.940487
    11422.044500       0.942624
    11435.105800       0.944722
    11448.196900       0.946781
    11461.318100       0.948802
    11474.469300       0.950783
    11487.650800       0.952726
    11500.862600       0.954629
    11514.104800       0.956493
    11527.377500       0.958318
    11540.680900       0.960104
    11554.015000       0.961850
    11567.380000       0.963556
    11580.775900       0.965223
    11594.202900       0.966850
    11607.661100       0.968438
    11621.150500       0.969986
    11634.671300       0.971495
    11648.223600       0.972964
    11661.807600       0.974393
    11675.423200       0.975783
    11689.070700       0.977133
    11702.750100       0.978443
    11716.461600       0.979714
    11730.205300       0.980945
    11743.981200       0.982137
    11757.789500       0.983289
    11771.630400       0.984402
    11785.503800       0.985475
    11799.410000       0.986509
    11813.349100       0.987504
    11827.321100       0.988460
    11841.326200       0.989377
    11855.364600       0.990255
    11869.436200       0.991094
    11883.541300       0.991894
    11897.680000       0.992655
    11911.852300       0.993378
    11926.058400       0.994063
    11940.298500       0.994709
    11954.572600       0.995317
    11968.880900       0.995888
    11983.223500       0.996420
    11997.600500       0.996915
    12012.012000       0.997372
    12026.458200       0.997792
    12040.939200       0.998174
    12055.455100       0.998520
    12070.006000       0.998829
    12084.592100       0.999101
    12099.213600       0.999337
    12113.870400       0.999537
    12128.562800       0.999700
    12143.290800       0.999828
    12158.054700       0.999921
    12172.854500       0.999978
    12187.690400       1.000000
    12202.562500       0.999987
    12217.471000       0.999940
    12232.415900       0.999858
    12247.397400       0.999743
    12262.415700       0.999593
    12277.470800       0.999410
    12292.563000       0.999194
    12307.692300       0.998944
    12322.858900       0.998663
    12338.062900       0.998348
    12353.304500       0.998002
    12368.583800       0.997624
    12383.900900       0.997214
    12399.256000       0.996773
    12414.649300       0.996301
    12430.080800       0.995799
    12445.550700       0.995267
    12461.059200       0.994704
    12476.606400       0.994112
    12492.192400       0.993491
    12507.817400       0.992841
    12523.481500       0.992163
    12539.185000       0.991456
    12554.927800       0.990722
    12570.710200       0.989960
    12586.532400       0.989171
    12602.394500       0.988355
    12618.296500       0.987514
    12634.238800       0.986646
    12650.221400       0.985752
    12666.244500       0.984834
    12682.308200       0.983890
    12698.412700       0.982922
    12714.558200       0.981930
    12730.744700       0.980915
    12746.972600       0.979876
    12763.241900       0.978815
    12779.552700       0.977731
    12795.905300       0.976625
    12812.299800       0.975497
    12828.736400       0.974349
    12845.215200       0.973179
    12861.736300       0.971990
    12878.300100       0.970780
    12894.906500       0.969551
    12911.555800       0.968303
    12928.248200       0.967036
    12944.983800       0.965751
    12961.762800       0.964449
    12978.585300       0.963129
    12995.451600       0.961792
    13012.361700       0.960438
    13029.316000       0.959069
    13046.314400       0.957684
    13063.357300       0.956285
    13080.444700       0.954870
    13097.576900       0.953441
    13114.754100       0.951999
    13131.976400       0.950543
    13149.243900       0.949074
    13166.556900       0.947593
    13183.915600       0.946100
    13201.320100       0.944595
    13218.770700       0.943080
    13236.267400       0.941553
    13253.810500       0.940017
    13271.400100       0.938471
    13289.036500       0.936915
    13306.719900       0.935351
    13324.450400       0.933779
    13342.228200       0.932198
    13360.053400       0.930610
    13377.926400       0.929015
    13395.847300       0.927414
    13413.816200       0.925807
    13431.833400       0.924193
    13449.899100       0.922575
    13468.013500       0.920952
    13486.176700       0.919325
    13504.388900       0.917694
    13522.650400       0.916059
    13540.961400       0.914422
    13559.322000       0.912781
    13577.732500       0.911139
    13596.193100       0.909495
    13614.703900       0.907850
    13633.265200       0.906205
    13651.877100       0.904558
    13670.540000       0.902912
    13689.253900       0.901267
    13708.019200       0.899622
    13726.836000       0.897979
    13745.704500       0.896337
    13764.624900       0.894698
    13783.597500       0.893061
    13802.622500       0.891427
    13821.700100       0.889797
    13840.830400       0.888171
    13860.013900       0.886548
    13879.250500       0.884931
    13898.540700       0.883318
    13917.884500       0.881711
    13937.282200       0.880109
    13956.734100       0.878514
    13976.240400       0.876925
    13995.801300       0.875344
    14015.417000       0.873769
    14035.087700       0.872202
    14054.813800       0.870643
    14074.595400       0.869093
    14094.432700       0.867551
    14114.326000       0.866019
    14134.275600       0.864496
    14154.281700       0.862982
    14174.344400       0.861479
    14194.464200       0.859986
    14214.641100       0.858504
    14234.875400       0.857033
    14255.167500       0.855573
    14275.517500       0.854125
    14295.925700       0.852689
    14316.392300       0.851265
    14336.917600       0.849854
    14357.501800       0.848456
    14378.145200       0.847071
    14398.848100       0.845700
    14419.610700       0.844342
    14440.433200       0.842998
    14461.316000       0.841668
    14482.259200       0.840353
    14503.263200       0.839052
    14524.328200       0.837766
    14545.454500       0.836496
    14566.642400       0.835241
    14587.892000       0.834001
    14609.203800       0.832778
    14630.577900       0.831570
    14652.014700       0.830379
    14673.514300       0.829204
    14695.077100       0.828045
    14716.703500       0.826904
    14738.393500       0.825779
    14760.147600       0.824672
    14781.966000       0.823581
    14803.849000       0.822508
    14825.796900       0.821453
    14847.809900       0.820415
    14869.888500       0.819395
    14892.032800       0.818393
    14914.243100       0.817409
    14936.519800       0.816443
    14958.863100       0.815496
    14981.273400       0.814566
    15003.750900       0.813655
    15026.296000       0.812762
    15048.909000       0.811888
    15071.590100       0.811033
    15094.339600       0.810196
    15117.158000       0.809377
    15140.045400       0.808577
    15163.002300       0.807796
    15186.028900       0.807034
    15209.125500       0.806290
    15232.292500       0.805565
    15255.530100       0.804859
    15278.838800       0.804171
    15302.218800       0.803502
    15325.670500       0.802851
    15349.194200       0.802219
    15372.790200       0.801605
    15396.458800       0.801010
    15420.200500       0.800433
    15444.015400       0.799874
    15467.904100       0.799333
    15491.866800       0.798810
    15515.903800       0.798306
    15540.015500       0.797819
    15564.202300       0.797349
    15588.464500       0.796897
    15612.802500       0.796463
    15637.216600       0.796046
    15661.707100       0.795645
    15686.274500       0.795262
    15710.919100       0.794895
    15735.641200       0.794545
    15760.441300       0.794211
    15785.319700       0.793894
    15810.276700       0.793592
    15835.312700       0.793305
    15860.428200       0.793034
    15885.623500       0.792779
    15910.899000       0.792538
    15936.255000       0.792312
    15961.691900       0.792100
    15987.210200       0.791902
    16012.810200       0.791718
    16038.492400       0.791547
    16064.257000       0.791390
    16090.104600       0.791245
    16116.035500       0.791113
    16142.050000       0.790994
    16168.148700       0.790886
    16194.332000       0.790789
    16220.600200       0.790704
    16246.953700       0.790629
    16273.393000       0.790565
    16299.918500       0.790511
    16326.530600       0.790466
    16353.229800       0.790431
    16380.016400       0.790404
    16406.890900       0.790386
    16433.853700       0.790376
    16460.905300       0.790373
    16488.046200       0.790377
    16515.276600       0.790388
    16542.597200       0.790405
    16570.008300       0.790428
    16597.510400       0.790456
    16625.103900       0.790488
    16652.789300       0.790525
    16680.567100       0.790565
    16708.437800       0.790609
    16736.401700       0.790655
    16764.459300       0.790704
    16792.611300       0.790754
    16820.857900       0.790805
    16849.199700       0.790857
    16877.637100       0.790909
    16906.170800       0.790960
    16934.801000       0.791010
    16963.528400       0.791058
    16992.353400       0.791104
    17021.276600       0.791147
    17050.298400       0.791187
    17079.419300       0.791222
    17108.639900       0.791253
    17137.960600       0.791279
    17167.382000       0.791298
    17196.904600       0.791311
    17226.528900       0.791317
    17256.255400       0.791315
    17286.084700       0.791305
    17316.017300       0.791286
    17346.053800       0.791256
    17376.194600       0.791217
    17406.440400       0.791166
    17436.791600       0.791104
    17467.248900       0.791029
    17497.812800       0.790941
    17528.483800       0.790840
    17559.262500       0.790724
    17590.149500       0.790593
    17621.145400       0.790446
    17652.250700       0.790282
    17683.466000       0.790102
    17714.791900       0.789903
    17746.228900       0.789686
    17777.777800       0.789449
    17809.439000       0.789193
    17841.213200       0.788915
    17873.101000       0.788617
    17905.103000       0.788296
    17937.219700       0.787952
    17969.451900       0.787584
    18001.800200       0.787192
    18034.265100       0.786776
    18066.847300       0.786333
    18099.547500       0.785864
    18132.366300       0.785367
    18165.304300       0.784843
    18198.362100       0.784289
    18231.540600       0.783707
    18264.840200       0.783094
    18298.261700       0.782450
    18331.805700       0.781775
    18365.472900       0.781067
    18399.264000       0.780326
    18433.179700       0.779552
    18467.220700       0.778743
    18501.387600       0.777898
    18535.681200       0.777018
    18570.102100       0.776101
    18604.651200       0.775146
    18639.329000       0.774154
    18674.136300       0.773122
    18709.073900       0.772051
    18744.142500       0.770940
    18779.342700       0.769788
    18814.675400       0.768594
    18850.141400       0.767358
    18885.741300       0.766079
    18921.475900       0.764756
    18957.346000       0.763389
    18993.352300       0.761977
    19029.495700       0.760519
    19065.776900       0.759014
    19102.196800       0.757463
    19138.756000       0.755864
    19175.455400       0.754217
    19212.295900       0.752520
    19249.278200       0.750775
    19286.403100       0.748979
    19323.671500       0.747132
    19361.084200       0.745234
    19398.642100       0.743284
    19436.346000       0.741281
    19474.196700       0.739225
    19512.195100       0.737116
    19550.342100       0.734952
    19588.638600       0.732733
    19627.085400       0.730459
    19665.683400       0.728130
    19704.433500       0.725744
    19743.336600       0.723301
    19782.393700       0.720800
    19821.605600       0.718242
    19860.973200       0.715626
    19900.497500       0.712951
    19940.179500       0.710217
    19980.020000       0.707423
    20020.020000       0.704569
    20060.180500       0.701655
    20100.502500       0.698680
    20140.986900       0.695644
    20181.634700       0.692547
    20222.446900       0.689388
    20263.424500       0.686167
    20304.568500       0.682883
    20345.880000       0.679537
    20387.359800       0.676128
    20429.009200       0.672655
    20470.829100       0.669119
    20512.820500       0.665520
    20554.984600       0.661857
    20597.322300       0.658130
    20639.834900       0.654339
    20682.523300       0.650484
    20725.388600       0.646564
    20768.432000       0.642580
    20811.654500       0.638532
    20855.057400       0.634419
    20898.641600       0.630242
    20942.408400       0.626000
    20986.358900       0.621693
    21030.494200       0.617323
    21074.815600       0.612888
    21119.324200       0.608388
    21164.021200       0.603825
    21208.907700       0.599197
    21253.985100       0.594506
    21299.254500       0.589751
    21344.717200       0.584933
    21390.374300       0.580052
    21436.227200       0.575108
    21482.277100       0.570102
    21528.525300       0.565033
    21574.973000       0.559903
    21621.621600       0.554711
    21668.472400       0.549459
    21715.526600       0.544146
    21762.785600       0.538773
    21810.250800       0.533341
    21857.923500       0.527849
    21905.805000       0.522300
    21953.896800       0.516693
    22002.200200       0.511028
    22050.716600       0.505308
    22099.447500       0.499532
    22148.394200       0.493701
    22197.558300       0.487816
    22246.941000       0.481878
    22296.544000       0.475888
    22346.368700       0.469846
    22396.416600       0.463754
    22446.689100       0.457612
    22497.187900       0.451421
    22547.914300       0.445184
    22598.870100       0.438900
    22650.056600       0.432570
    22701.475600       0.426197
    22753.128600       0.419781
    22805.017100       0.413323
    22857.142900       0.406825
    22909.507400       0.400289
    22962.112500       0.393714
    23014.959700       0.387104
    23068.050700       0.380458
    23121.387300       0.373780
    23174.971000       0.367070
    23228.803700       0.360330
    23282.887100       0.353562
    23337.222900       0.346768
    23391.812900       0.339948
    23446.658900       0.333105
    23501.762600       0.326241
    23557.126000       0.319358
    23612.750900       0.312457
    23668.639100       0.305541
    23724.792400       0.298611
    23781.212800       0.291671
    23837.902300       0.284720
    23894.862600       0.277763
    23952.095800       0.270801
    24009.603800       0.263837
    24067.388700       0.256872
    24125.452400       0.249910
    24183.796900       0.242953
    24242.424200       0.236003
    24301.336600       0.229062
    24360.535900       0.222134
    24420.024400       0.215221
    24479.804200       0.208326
    24539.877300       0.201451
    24600.246000       0.194600
    24660.912500       0.187775
    24721.878900       0.180980
    24783.147500       0.174217
    24844.720500       0.167489
    24906.600200       0.160800
    24968.789000       0.154152
    25031.289100       0.147550
    25094.102900       0.140996
    25157.232700       0.134493
    25220.681000       0.128046
    25284.450100       0.121658
    25348.542500       0.115332
    25412.960600       0.109071
    25477.707000       0.102881
