6,   6, MVIRI VIS channel from srf_MET6_1997258_1997259_1801-Release_S10EL_10.dat
Number of data points:
750
Wavenumber (cm-1)   Filter response
     8760.403000       0.000000
     8768.084200       0.000000
     8775.778900       0.000000
     8783.487000       0.000002
     8791.208800       0.000004
     8798.944100       0.000010
     8806.693100       0.000018
     8814.455700       0.000030
     8822.232000       0.000046
     8830.022100       0.000068
     8837.825900       0.000095
     8845.643500       0.000129
     8853.475000       0.000171
     8861.320300       0.000221
     8869.179600       0.000279
     8877.052800       0.000348
     8884.940000       0.000427
     8892.841300       0.000517
     8900.756600       0.000619
     8908.686000       0.000735
     8916.629500       0.000864
     8924.587200       0.001007
     8932.559200       0.001166
     8940.545400       0.001341
     8948.545900       0.001533
     8956.560700       0.001743
     8964.589900       0.001971
     8972.633500       0.002218
     8980.691500       0.002486
     8988.764000       0.002775
     8996.851100       0.003085
     9004.952700       0.003418
     9013.068900       0.003775
     9021.199800       0.004155
     9029.345400       0.004561
     9037.505600       0.004992
     9045.680700       0.005450
     9053.870500       0.005935
     9062.075200       0.006448
     9070.294800       0.006990
     9078.529300       0.007561
     9086.778700       0.008162
     9095.043200       0.008795
     9103.322700       0.009460
     9111.617300       0.010156
     9119.927000       0.010886
     9128.251900       0.011650
     9136.592100       0.012449
     9144.947400       0.013282
     9153.318100       0.014152
     9161.704100       0.015058
     9170.105500       0.016001
     9178.522300       0.016982
     9186.954500       0.018001
     9195.402300       0.019060
     9203.865600       0.020157
     9212.344500       0.021295
     9220.839100       0.022474
     9229.349300       0.023694
     9237.875300       0.024956
     9246.417000       0.026260
     9254.974500       0.027607
     9263.547900       0.028998
     9272.137200       0.030432
     9280.742500       0.031910
     9289.363700       0.033433
     9298.000900       0.035001
     9306.654300       0.036614
     9315.323700       0.038274
     9324.009300       0.039979
     9332.711200       0.041731
     9341.429200       0.043530
     9350.163600       0.045377
     9358.914400       0.047270
     9367.681500       0.049212
     9376.465100       0.051202
     9385.265100       0.053240
     9394.081700       0.055327
     9402.914900       0.057463
     9411.764700       0.059647
     9420.631200       0.061881
     9429.514400       0.064164
     9438.414300       0.066497
     9447.331100       0.068879
     9456.264800       0.071311
     9465.215300       0.073793
     9474.182900       0.076325
     9483.167400       0.078907
     9492.169000       0.081538
     9501.187600       0.084220
     9510.223500       0.086952
     9519.276500       0.089734
     9528.346800       0.092566
     9537.434400       0.095448
     9546.539400       0.098379
     9555.661700       0.101361
     9564.801500       0.104392
     9573.958800       0.107472
     9583.133700       0.110603
     9592.326100       0.113782
     9601.536200       0.117011
     9610.764100       0.120288
     9620.009600       0.123614
     9629.273000       0.126989
     9638.554200       0.130412
     9647.853400       0.133883
     9657.170400       0.137401
     9666.505600       0.140968
     9675.858700       0.144581
     9685.230000       0.148242
     9694.619500       0.151949
     9704.027200       0.155701
     9713.453100       0.159501
     9722.897400       0.163345
     9732.360100       0.167234
     9741.841200       0.171169
     9751.340800       0.175147
     9760.859000       0.179170
     9770.395700       0.183236
     9779.951100       0.187344
     9789.525200       0.191496
     9799.118100       0.195689
     9808.729800       0.199924
     9818.360300       0.204200
     9828.009800       0.208516
     9837.678300       0.212872
     9847.365800       0.217268
     9857.072400       0.221703
     9866.798200       0.226176
     9876.543200       0.230686
     9886.307500       0.235235
     9896.091000       0.239819
     9905.894000       0.244439
     9915.716400       0.249096
     9925.558300       0.253786
     9935.419800       0.258511
     9945.300800       0.263269
     9955.201600       0.268060
     9965.122100       0.272883
     9975.062300       0.277737
     9985.022500       0.282623
     9995.002500       0.287539
    10005.002500       0.292484
    10015.022500       0.297458
    10025.062700       0.302459
    10035.122900       0.307488
    10045.203400       0.312544
    10055.304200       0.317626
    10065.425300       0.322732
    10075.566800       0.327863
    10085.728700       0.333018
    10095.911200       0.338196
    10106.114200       0.343396
    10116.337900       0.348617
    10126.582300       0.353859
    10136.847400       0.359121
    10147.133400       0.364402
    10157.440300       0.369701
    10167.768200       0.375018
    10178.117000       0.380352
    10188.487000       0.385701
    10198.878100       0.391066
    10209.290500       0.396446
    10219.724100       0.401838
    10230.179000       0.407244
    10240.655400       0.412662
    10251.153300       0.418091
    10261.672700       0.423531
    10272.213700       0.428980
    10282.776300       0.434438
    10293.360800       0.439905
    10303.967000       0.445378
    10314.595200       0.450858
    10325.245200       0.456344
    10335.917300       0.461834
    10346.611500       0.467329
    10357.327800       0.472827
    10368.066400       0.478327
    10378.827200       0.483829
    10389.610400       0.489333
    10400.416000       0.494836
    10411.244100       0.500338
    10422.094800       0.505839
    10432.968200       0.511338
    10443.864200       0.516834
    10454.783100       0.522326
    10465.724800       0.527813
    10476.689400       0.533295
    10487.677000       0.538771
    10498.687700       0.544240
    10509.721500       0.549702
    10520.778500       0.555155
    10531.858900       0.560598
    10542.962600       0.566033
    10554.089700       0.571456
    10565.240400       0.576868
    10576.414600       0.582267
    10587.612500       0.587654
    10598.834100       0.593028
    10610.079600       0.598387
    10621.348900       0.603730
    10632.642200       0.609059
    10643.959600       0.614371
    10655.301000       0.619665
    10666.666700       0.624942
    10678.056600       0.630200
    10689.470900       0.635439
    10700.909600       0.640658
    10712.372800       0.645857
    10723.860600       0.651034
    10735.373100       0.656189
    10746.910300       0.661322
    10758.472300       0.666432
    10770.059200       0.671518
    10781.671200       0.676579
    10793.308100       0.681616
    10804.970300       0.686627
    10816.657700       0.691611
    10828.370300       0.696569
    10840.108400       0.701499
    10851.871900       0.706401
    10863.661100       0.711275
    10875.475800       0.716119
    10887.316300       0.720933
    10899.182600       0.725718
    10911.074700       0.730471
    10922.992900       0.735193
    10934.937100       0.739883
    10946.907500       0.744541
    10958.904100       0.749166
    10970.927000       0.753757
    10982.976400       0.758315
    10995.052200       0.762838
    11007.154700       0.767326
    11019.283700       0.771779
    11031.439600       0.776196
    11043.622300       0.780577
    11055.832000       0.784921
    11068.068600       0.789228
    11080.332400       0.793497
    11092.623400       0.797729
    11104.941700       0.801922
    11117.287400       0.806077
    11129.660500       0.810192
    11142.061300       0.814268
    11154.489700       0.818304
    11166.945800       0.822300
    11179.429800       0.826255
    11191.941800       0.830169
    11204.481800       0.834043
    11217.049900       0.837874
    11229.646300       0.841664
    11242.270900       0.845411
    11254.924000       0.849117
    11267.605600       0.852779
    11280.315800       0.856399
    11293.054800       0.859975
    11305.822500       0.863508
    11318.619100       0.866997
    11331.444800       0.870442
    11344.299500       0.873843
    11357.183400       0.877200
    11370.096600       0.880512
    11383.039300       0.883779
    11396.011400       0.887001
    11409.013100       0.890178
    11422.044500       0.893310
    11435.105800       0.896396
    11448.196900       0.899437
    11461.318100       0.902432
    11474.469300       0.905381
    11487.650800       0.908284
    11500.862600       0.911141
    11514.104800       0.913951
    11527.377500       0.916716
    11540.680900       0.919434
    11554.015000       0.922106
    11567.380000       0.924731
    11580.775900       0.927310
    11594.202900       0.929842
    11607.661100       0.932327
    11621.150500       0.934766
    11634.671300       0.937158
    11648.223600       0.939503
    11661.807600       0.941802
    11675.423200       0.944054
    11689.070700       0.946260
    11702.750100       0.948419
    11716.461600       0.950531
    11730.205300       0.952597
    11743.981200       0.954616
    11757.789500       0.956589
    11771.630400       0.958516
    11785.503800       0.960396
    11799.410000       0.962230
    11813.349100       0.964019
    11827.321100       0.965761
    11841.326200       0.967457
    11855.364600       0.969108
    11869.436200       0.970713
    11883.541300       0.972273
    11897.680000       0.973787
    11911.852300       0.975256
    11926.058400       0.976680
    11940.298500       0.978060
    11954.572600       0.979395
    11968.880900       0.980685
    11983.223500       0.981931
    11997.600500       0.983133
    12012.012000       0.984292
    12026.458200       0.985406
    12040.939200       0.986477
    12055.455100       0.987505
    12070.006000       0.988491
    12084.592100       0.989433
    12099.213600       0.990333
    12113.870400       0.991191
    12128.562800       0.992007
    12143.290800       0.992781
    12158.054700       0.993514
    12172.854500       0.994206
    12187.690400       0.994857
    12202.562500       0.995468
    12217.471000       0.996038
    12232.415900       0.996569
    12247.397400       0.997060
    12262.415700       0.997512
    12277.470800       0.997925
    12292.563000       0.998299
    12307.692300       0.998635
    12322.858900       0.998934
    12338.062900       0.999195
    12353.304500       0.999418
    12368.583800       0.999605
    12383.900900       0.999755
    12399.256000       0.999870
    12414.649300       0.999948
    12430.080800       0.999992
    12445.550700       1.000000
    12461.059200       0.999974
    12476.606400       0.999914
    12492.192400       0.999820
    12507.817400       0.999692
    12523.481500       0.999532
    12539.185000       0.999339
    12554.927800       0.999115
    12570.710200       0.998858
    12586.532400       0.998570
    12602.394500       0.998252
    12618.296500       0.997903
    12634.238800       0.997524
    12650.221400       0.997116
    12666.244500       0.996679
    12682.308200       0.996213
    12698.412700       0.995719
    12714.558200       0.995197
    12730.744700       0.994648
    12746.972600       0.994072
    12763.241900       0.993470
    12779.552700       0.992842
    12795.905300       0.992189
    12812.299800       0.991511
    12828.736400       0.990808
    12845.215200       0.990082
    12861.736300       0.989331
    12878.300100       0.988558
    12894.906500       0.987763
    12911.555800       0.986945
    12928.248200       0.986106
    12944.983800       0.985245
    12961.762800       0.984364
    12978.585300       0.983463
    12995.451600       0.982543
    13012.361700       0.981603
    13029.316000       0.980644
    13046.314400       0.979668
    13063.357300       0.978674
    13080.444700       0.977662
    13097.576900       0.976634
    13114.754100       0.975590
    13131.976400       0.974530
    13149.243900       0.973455
    13166.556900       0.972365
    13183.915600       0.971261
    13201.320100       0.970144
    13218.770700       0.969013
    13236.267400       0.967869
    13253.810500       0.966713
    13271.400100       0.965546
    13289.036500       0.964367
    13306.719900       0.963178
    13324.450400       0.961978
    13342.228200       0.960768
    13360.053400       0.959550
    13377.926400       0.958322
    13395.847300       0.957086
    13413.816200       0.955842
    13431.833400       0.954591
    13449.899100       0.953334
    13468.013500       0.952069
    13486.176700       0.950799
    13504.388900       0.949524
    13522.650400       0.948243
    13540.961400       0.946958
    13559.322000       0.945669
    13577.732500       0.944377
    13596.193100       0.943081
    13614.703900       0.941783
    13633.265200       0.940482
    13651.877100       0.939180
    13670.540000       0.937877
    13689.253900       0.936572
    13708.019200       0.935268
    13726.836000       0.933963
    13745.704500       0.932659
    13764.624900       0.931356
    13783.597500       0.930054
    13802.622500       0.928755
    13821.700100       0.927457
    13840.830400       0.926162
    13860.013900       0.924870
    13879.250500       0.923581
    13898.540700       0.922297
    13917.884500       0.921017
    13937.282200       0.919741
    13956.734100       0.918470
    13976.240400       0.917205
    13995.801300       0.915946
    14015.417000       0.914693
    14035.087700       0.913446
    14054.813800       0.912207
    14074.595400       0.910975
    14094.432700       0.909750
    14114.326000       0.908534
    14134.275600       0.907326
    14154.281700       0.906126
    14174.344400       0.904936
    14194.464200       0.903755
    14214.641100       0.902584
    14234.875400       0.901423
    14255.167500       0.900272
    14275.517500       0.899132
    14295.925700       0.898003
    14316.392300       0.896885
    14336.917600       0.895779
    14357.501800       0.894685
    14378.145200       0.893602
    14398.848100       0.892532
    14419.610700       0.891475
    14440.433200       0.890430
    14461.316000       0.889399
    14482.259200       0.888381
    14503.263200       0.887377
    14524.328200       0.886386
    14545.454500       0.885410
    14566.642400       0.884448
    14587.892000       0.883500
    14609.203800       0.882567
    14630.577900       0.881648
    14652.014700       0.880745
    14673.514300       0.879857
    14695.077100       0.878985
    14716.703500       0.878128
    14738.393500       0.877286
    14760.147600       0.876461
    14781.966000       0.875652
    14803.849000       0.874858
    14825.796900       0.874081
    14847.809900       0.873320
    14869.888500       0.872576
    14892.032800       0.871848
    14914.243100       0.871137
    14936.519800       0.870442
    14958.863100       0.869764
    14981.273400       0.869103
    15003.750900       0.868459
    15026.296000       0.867832
    15048.909000       0.867222
    15071.590100       0.866629
    15094.339600       0.866053
    15117.158000       0.865494
    15140.045400       0.864951
    15163.002300       0.864426
    15186.028900       0.863918
    15209.125500       0.863427
    15232.292500       0.862953
    15255.530100       0.862495
    15278.838800       0.862055
    15302.218800       0.861631
    15325.670500       0.861224
    15349.194200       0.860834
    15372.790200       0.860460
    15396.458800       0.860102
    15420.200500       0.859761
    15444.015400       0.859436
    15467.904100       0.859127
    15491.866800       0.858834
    15515.903800       0.858557
    15540.015500       0.858295
    15564.202300       0.858049
    15588.464500       0.857818
    15612.802500       0.857603
    15637.216600       0.857402
    15661.707100       0.857216
    15686.274500       0.857044
    15710.919100       0.856887
    15735.641200       0.856744
    15760.441300       0.856614
    15785.319700       0.856498
    15810.276700       0.856396
    15835.312700       0.856306
    15860.428200       0.856229
    15885.623500       0.856165
    15910.899000       0.856112
    15936.255000       0.856072
    15961.691900       0.856043
    15987.210200       0.856025
    16012.810200       0.856019
    16038.492400       0.856022
    16064.257000       0.856036
    16090.104600       0.856060
    16116.035500       0.856093
    16142.050000       0.856135
    16168.148700       0.856186
    16194.332000       0.856245
    16220.600200       0.856312
    16246.953700       0.856387
    16273.393000       0.856468
    16299.918500       0.856556
    16326.530600       0.856651
    16353.229800       0.856750
    16380.016400       0.856855
    16406.890900       0.856965
    16433.853700       0.857079
    16460.905300       0.857197
    16488.046200       0.857318
    16515.276600       0.857442
    16542.597200       0.857568
    16570.008300       0.857696
    16597.510400       0.857825
    16625.103900       0.857954
    16652.789300       0.858084
    16680.567100       0.858213
    16708.437800       0.858342
    16736.401700       0.858468
    16764.459300       0.858593
    16792.611300       0.858714
    16820.857900       0.858833
    16849.199700       0.858947
    16877.637100       0.859057
    16906.170800       0.859162
    16934.801000       0.859260
    16963.528400       0.859353
    16992.353400       0.859438
    17021.276600       0.859515
    17050.298400       0.859585
    17079.419300       0.859645
    17108.639900       0.859695
    17137.960600       0.859735
    17167.382000       0.859764
    17196.904600       0.859781
    17226.528900       0.859785
    17256.255400       0.859777
    17286.084700       0.859754
    17316.017300       0.859718
    17346.053800       0.859665
    17376.194600       0.859597
    17406.440400       0.859512
    17436.791600       0.859409
    17467.248900       0.859289
    17497.812800       0.859149
    17528.483800       0.858990
    17559.262500       0.858810
    17590.149500       0.858609
    17621.145400       0.858386
    17652.250700       0.858141
    17683.466000       0.857871
    17714.791900       0.857578
    17746.228900       0.857260
    17777.777800       0.856916
    17809.439000       0.856545
    17841.213200       0.856147
    17873.101000       0.855720
    17905.103000       0.855265
    17937.219700       0.854780
    17969.451900       0.854265
    18001.800200       0.853718
    18034.265100       0.853140
    18066.847300       0.852528
    18099.547500       0.851883
    18132.366300       0.851203
    18165.304300       0.850488
    18198.362100       0.849737
    18231.540600       0.848949
    18264.840200       0.848123
    18298.261700       0.847259
    18331.805700       0.846356
    18365.472900       0.845413
    18399.264000       0.844429
    18433.179700       0.843403
    18467.220700       0.842335
    18501.387600       0.841224
    18535.681200       0.840068
    18570.102100       0.838868
    18604.651200       0.837623
    18639.329000       0.836331
    18674.136300       0.834992
    18709.073900       0.833606
    18744.142500       0.832171
    18779.342700       0.830686
    18814.675400       0.829151
    18850.141400       0.827566
    18885.741300       0.825929
    18921.475900       0.824240
    18957.346000       0.822497
    18993.352300       0.820701
    19029.495700       0.818850
    19065.776900       0.816945
    19102.196800       0.814983
    19138.756000       0.812965
    19175.455400       0.810889
    19212.295900       0.808756
    19249.278200       0.806564
    19286.403100       0.804313
    19323.671500       0.802002
    19361.084200       0.799631
    19398.642100       0.797198
    19436.346000       0.794704
    19474.196700       0.792147
    19512.195100       0.789528
    19550.342100       0.786845
    19588.638600       0.784098
    19627.085400       0.781286
    19665.683400       0.778409
    19704.433500       0.775467
    19743.336600       0.772458
    19782.393700       0.769383
    19821.605600       0.766241
    19860.973200       0.763031
    19900.497500       0.759753
    19940.179500       0.756407
    19980.020000       0.752992
    20020.020000       0.749508
    20060.180500       0.745954
    20100.502500       0.742330
    20140.986900       0.738636
    20181.634700       0.734871
    20222.446900       0.731036
    20263.424500       0.727129
    20304.568500       0.723151
    20345.880000       0.719102
    20387.359800       0.714980
    20429.009200       0.710787
    20470.829100       0.706522
    20512.820500       0.702184
    20554.984600       0.697774
    20597.322300       0.693292
    20639.834900       0.688737
    20682.523300       0.684109
    20725.388600       0.679409
    20768.432000       0.674637
    20811.654500       0.669792
    20855.057400       0.664875
    20898.641600       0.659886
    20942.408400       0.654825
    20986.358900       0.649692
    21030.494200       0.644487
    21074.815600       0.639210
    21119.324200       0.633863
    21164.021200       0.628445
    21208.907700       0.622956
    21253.985100       0.617397
    21299.254500       0.611769
    21344.717200       0.606071
    21390.374300       0.600305
    21436.227200       0.594470
    21482.277100       0.588568
    21528.525300       0.582599
    21574.973000       0.576563
    21621.621600       0.570462
    21668.472400       0.564295
    21715.526600       0.558065
    21762.785600       0.551771
    21810.250800       0.545414
    21857.923500       0.538996
    21905.805000       0.532517
    21953.896800       0.525979
    22002.200200       0.519382
    22050.716600       0.512727
    22099.447500       0.506016
    22148.394200       0.499249
    22197.558300       0.492429
    22246.941000       0.485555
    22296.544000       0.478631
    22346.368700       0.471656
    22396.416600       0.464633
    22446.689100       0.457562
    22497.187900       0.450447
    22547.914300       0.443287
    22598.870100       0.436085
    22650.056600       0.428842
    22701.475600       0.421560
    22753.128600       0.414242
    22805.017100       0.406889
    22857.142900       0.399502
    22909.507400       0.392085
    22962.112500       0.384638
    23014.959700       0.377165
    23068.050700       0.369667
    23121.387300       0.362147
    23174.971000       0.354606
    23228.803700       0.347048
    23282.887100       0.339476
    23337.222900       0.331890
    23391.812900       0.324295
    23446.658900       0.316692
    23501.762600       0.309085
    23557.126000       0.301476
    23612.750900       0.293869
    23668.639100       0.286266
    23724.792400       0.278670
    23781.212800       0.271084
    23837.902300       0.263513
    23894.862600       0.255958
    23952.095800       0.248424
    24009.603800       0.240914
    24067.388700       0.233431
    24125.452400       0.225979
    24183.796900       0.218563
    24242.424200       0.211184
    24301.336600       0.203848
    24360.535900       0.196559
    24420.024400       0.189320
    24479.804200       0.182136
    24539.877300       0.175011
    24600.246000       0.167950
    24660.912500       0.160956
    24721.878900       0.154034
    24783.147500       0.147189
    24844.720500       0.140426
    24906.600200       0.133750
    24968.789000       0.127165
    25031.289100       0.120677
    25094.102900       0.114290
    25157.232700       0.108010
    25220.681000       0.101843
    25284.450100       0.095793
    25348.542500       0.089867
    25412.960600       0.084069
    25477.707000       0.078407
