 5    ,noaa_19_avhrr_05.flt
Number of data points:
67
Wavenumber (cm-1)   Filter response
      786.163500       0.000000
      787.401600       0.001761
      788.643500       0.005266
      789.889400       0.012569
      791.139200       0.024995
      792.393000       0.050735
      793.650800       0.116650
      794.912600       0.218110
      796.178300       0.374220
      797.448200       0.559620
      798.722000       0.720330
      800.000000       0.845290
      801.282100       0.893460
      802.568200       0.906420
      803.858500       0.914320
      805.153000       0.925410
      806.451600       0.925280
      807.754400       0.928130
      809.061500       0.931110
      810.372800       0.933640
      811.688300       0.941190
      813.008100       0.940370
      814.332200       0.940860
      815.660700       0.933290
      816.993500       0.941490
      818.330600       0.944000
      819.672100       0.943830
      821.018100       0.955410
      822.368400       0.958430
      823.723200       0.968000
      825.082500       0.973580
      826.446300       0.979130
      827.814600       0.987300
      829.187400       1.000000
      830.564800       0.991370
      831.946800       0.988840
      833.333300       0.979460
      834.724500       0.989380
      836.120400       0.975750
      837.520900       0.971180
      838.926200       0.973780
      840.336100       0.976570
      841.750800       0.972410
      843.170300       0.983140
      844.594600       0.979740
      846.023700       0.974130
      847.457600       0.981290
      848.896400       0.974940
      850.340100       0.969910
      851.788800       0.956210
      853.242300       0.956310
      854.700900       0.930830
      856.164400       0.923480
      857.632900       0.923660
      859.106500       0.919840
      860.585200       0.922590
      862.069000       0.868760
      863.557900       0.715590
      865.051900       0.488040
      866.551100       0.275340
      868.055600       0.133000
      869.565200       0.060109
      871.080100       0.025554
      872.600300       0.009848
      874.125900       0.002072
      875.656700       0.001229
      877.193000       0.000000
