11 , goes_12_sounder_11.flt
Number of data points:
1185
Wavenumber (cm-1)   Filter response
     1366.600000       0.001056
     1366.700000       0.001229
     1366.800000       0.001401
     1366.900000       0.001563
     1367.000000       0.001701
     1367.100000       0.001817
     1367.200000       0.001910
     1367.300000       0.001991
     1367.400000       0.002038
     1367.500000       0.002073
     1367.600000       0.002074
     1367.700000       0.002074
     1367.800000       0.002052
     1367.900000       0.002029
     1368.000000       0.001995
     1368.100000       0.001961
     1368.200000       0.001927
     1368.300000       0.001893
     1368.400000       0.001858
     1368.500000       0.001835
     1368.600000       0.001812
     1368.700000       0.001790
     1368.800000       0.001778
     1368.900000       0.001778
     1369.000000       0.001790
     1369.100000       0.001813
     1369.200000       0.001847
     1369.300000       0.001916
     1369.400000       0.001997
     1369.500000       0.002124
     1369.600000       0.002274
     1369.700000       0.002447
     1369.800000       0.002620
     1369.900000       0.002805
     1370.000000       0.003025
     1370.100000       0.003233
     1370.200000       0.003429
     1370.300000       0.003603
     1370.400000       0.003765
     1370.500000       0.003893
     1370.600000       0.004020
     1370.700000       0.004124
     1370.800000       0.004240
     1370.900000       0.004378
     1371.000000       0.004575
     1371.100000       0.004817
     1371.200000       0.005140
     1371.300000       0.005556
     1371.400000       0.006086
     1371.500000       0.006674
     1371.600000       0.007238
     1371.700000       0.007801
     1371.800000       0.008433
     1371.900000       0.009042
     1372.000000       0.009569
     1372.100000       0.010016
     1372.200000       0.010336
     1372.300000       0.010459
     1372.400000       0.010571
     1372.500000       0.010891
     1372.600000       0.011476
     1372.700000       0.012233
     1372.800000       0.013025
     1372.900000       0.013759
     1373.000000       0.014400
     1373.100000       0.014949
     1373.200000       0.015440
     1373.300000       0.015895
     1373.400000       0.016291
     1373.500000       0.016650
     1373.600000       0.017053
     1373.700000       0.017476
     1373.800000       0.017884
     1373.900000       0.018311
     1374.000000       0.018733
     1374.100000       0.019196
     1374.200000       0.019664
     1374.300000       0.020093
     1374.400000       0.020552
     1374.500000       0.021076
     1374.600000       0.021620
     1374.700000       0.022163
     1374.800000       0.022729
     1374.900000       0.023285
     1375.000000       0.023867
     1375.100000       0.024409
     1375.200000       0.024892
     1375.300000       0.025451
     1375.400000       0.026044
     1375.500000       0.026626
     1375.600000       0.027206
     1375.700000       0.027794
     1375.800000       0.028389
     1375.900000       0.028988
     1376.000000       0.029566
     1376.100000       0.030144
     1376.200000       0.030741
     1376.300000       0.031388
     1376.400000       0.032061
     1376.500000       0.032732
     1376.600000       0.033423
     1376.700000       0.034117
     1376.800000       0.034833
     1376.900000       0.035544
     1377.000000       0.036148
     1377.100000       0.036811
     1377.200000       0.037603
     1377.300000       0.038461
     1377.400000       0.039416
     1377.500000       0.040497
     1377.600000       0.041728
     1377.700000       0.043188
     1377.800000       0.044728
     1377.900000       0.046410
     1378.000000       0.048574
     1378.100000       0.051089
     1378.200000       0.053747
     1378.300000       0.056389
     1378.400000       0.058759
     1378.500000       0.060796
     1378.600000       0.062706
     1378.700000       0.064680
     1378.800000       0.067053
     1378.900000       0.069768
     1379.000000       0.072629
     1379.100000       0.075379
     1379.200000       0.078024
     1379.300000       0.080623
     1379.400000       0.083177
     1379.500000       0.085781
     1379.600000       0.088355
     1379.700000       0.090669
     1379.800000       0.093234
     1379.900000       0.096261
     1380.000000       0.099692
     1380.100000       0.103917
     1380.200000       0.108806
     1380.300000       0.113985
     1380.400000       0.118989
     1380.500000       0.122980
     1380.600000       0.126141
     1380.700000       0.129590
     1380.800000       0.133351
     1380.900000       0.137437
     1381.000000       0.141897
     1381.100000       0.146191
     1381.200000       0.149986
     1381.300000       0.153484
     1381.400000       0.157346
     1381.500000       0.161511
     1381.600000       0.166601
     1381.700000       0.173237
     1381.800000       0.179696
     1381.900000       0.185484
     1382.000000       0.191859
     1382.100000       0.200615
     1382.200000       0.207727
     1382.300000       0.211117
     1382.400000       0.212734
     1382.500000       0.215635
     1382.600000       0.220501
     1382.700000       0.226230
     1382.800000       0.231678
     1382.900000       0.236056
     1383.000000       0.241234
     1383.100000       0.250605
     1383.200000       0.258610
     1383.300000       0.265302
     1383.400000       0.274716
     1383.500000       0.285174
     1383.600000       0.293807
     1383.700000       0.299521
     1383.800000       0.305175
     1383.900000       0.315376
     1384.000000       0.328359
     1384.100000       0.337493
     1384.200000       0.343091
     1384.300000       0.349741
     1384.400000       0.359607
     1384.500000       0.365805
     1384.600000       0.372445
     1384.700000       0.382873
     1384.800000       0.393063
     1384.900000       0.400267
     1385.000000       0.408702
     1385.100000       0.422211
     1385.200000       0.432018
     1385.300000       0.435680
     1385.400000       0.448458
     1385.500000       0.455524
     1385.600000       0.465074
     1385.700000       0.473606
     1385.800000       0.484251
     1385.900000       0.498077
     1386.000000       0.510586
     1386.100000       0.523777
     1386.200000       0.541643
     1386.300000       0.555558
     1386.400000       0.565825
     1386.500000       0.576337
     1386.600000       0.587138
     1386.700000       0.595631
     1386.800000       0.600797
     1386.900000       0.604423
     1387.000000       0.611344
     1387.100000       0.620373
     1387.200000       0.628893
     1387.300000       0.637576
     1387.400000       0.646703
     1387.500000       0.654969
     1387.600000       0.664684
     1387.700000       0.677203
     1387.800000       0.688850
     1387.900000       0.698499
     1388.000000       0.708408
     1388.100000       0.721637
     1388.200000       0.735703
     1388.300000       0.747930
     1388.400000       0.760199
     1388.500000       0.774005
     1388.600000       0.787849
     1388.700000       0.801920
     1388.800000       0.813693
     1388.900000       0.824102
     1389.000000       0.832511
     1389.100000       0.839672
     1389.200000       0.847634
     1389.300000       0.856174
     1389.400000       0.862006
     1389.500000       0.864442
     1389.600000       0.867442
     1389.700000       0.869171
     1389.800000       0.873272
     1389.900000       0.879071
     1390.000000       0.884594
     1390.100000       0.889322
     1390.200000       0.893857
     1390.300000       0.898172
     1390.400000       0.902042
     1390.500000       0.905577
     1390.600000       0.909395
     1390.700000       0.913184
     1390.800000       0.916829
     1390.900000       0.920533
     1391.000000       0.924434
     1391.100000       0.928700
     1391.200000       0.933253
     1391.300000       0.937683
     1391.400000       0.942538
     1391.500000       0.947851
     1391.600000       0.952488
     1391.700000       0.955032
     1391.800000       0.956985
     1391.900000       0.961729
     1392.000000       0.970662
     1392.100000       0.976341
     1392.200000       0.976523
     1392.300000       0.978887
     1392.400000       0.982407
     1392.500000       0.985483
     1392.600000       0.987972
     1392.700000       0.989935
     1392.800000       0.991462
     1392.900000       0.992678
     1393.000000       0.993717
     1393.100000       0.994591
     1393.200000       0.995450
     1393.300000       0.996460
     1393.400000       0.997467
     1393.500000       0.998326
     1393.600000       0.998988
     1393.700000       0.999466
     1393.800000       0.999799
     1393.900000       0.999973
     1394.000000       1.000000
     1394.100000       0.999938
     1394.200000       0.999826
     1394.300000       0.999608
     1394.400000       0.999296
     1394.500000       0.998892
     1394.600000       0.998351
     1394.700000       0.997692
     1394.800000       0.996882
     1394.900000       0.995946
     1395.000000       0.994949
     1395.100000       0.993881
     1395.200000       0.992784
     1395.300000       0.991671
     1395.400000       0.990597
     1395.500000       0.989563
     1395.600000       0.988598
     1395.700000       0.987711
     1395.800000       0.986884
     1395.900000       0.986117
     1396.000000       0.985413
     1396.100000       0.984746
     1396.200000       0.984109
     1396.300000       0.983489
     1396.400000       0.982848
     1396.500000       0.982200
     1396.600000       0.981508
     1396.700000       0.980793
     1396.800000       0.980070
     1396.900000       0.979353
     1397.000000       0.978617
     1397.100000       0.977885
     1397.200000       0.977178
     1397.300000       0.976485
     1397.400000       0.975837
     1397.500000       0.975245
     1397.600000       0.974676
     1397.700000       0.974149
     1397.800000       0.973622
     1397.900000       0.973094
     1398.000000       0.972550
     1398.100000       0.971969
     1398.200000       0.971323
     1398.300000       0.970630
     1398.400000       0.969890
     1398.500000       0.969162
     1398.600000       0.968435
     1398.700000       0.967674
     1398.800000       0.966956
     1398.900000       0.966297
     1399.000000       0.965670
     1399.100000       0.965091
     1399.200000       0.964542
     1399.300000       0.964026
     1399.400000       0.963544
     1399.500000       0.963059
     1399.600000       0.962588
     1399.700000       0.962127
     1399.800000       0.961678
     1399.900000       0.961235
     1400.000000       0.960802
     1400.100000       0.960403
     1400.200000       0.960007
     1400.300000       0.959638
     1400.400000       0.959323
     1400.500000       0.959061
     1400.600000       0.958852
     1400.700000       0.958678
     1400.800000       0.958526
     1400.900000       0.958396
     1401.000000       0.958272
     1401.100000       0.958120
     1401.200000       0.957942
     1401.300000       0.957714
     1401.400000       0.957446
     1401.500000       0.957139
     1401.600000       0.956784
     1401.700000       0.956402
     1401.800000       0.955975
     1401.900000       0.955511
     1402.000000       0.955003
     1402.100000       0.954451
     1402.200000       0.953875
     1402.300000       0.953241
     1402.400000       0.952590
     1402.500000       0.951924
     1402.600000       0.951267
     1402.700000       0.950621
     1402.800000       0.950021
     1402.900000       0.949454
     1403.000000       0.948949
     1403.100000       0.948512
     1403.200000       0.948149
     1403.300000       0.947849
     1403.400000       0.947604
     1403.500000       0.947370
     1403.600000       0.947160
     1403.700000       0.946951
     1403.800000       0.946743
     1403.900000       0.946530
     1404.000000       0.946313
     1404.100000       0.946117
     1404.200000       0.945943
     1404.300000       0.945800
     1404.400000       0.945717
     1404.500000       0.945689
     1404.600000       0.945715
     1404.700000       0.945820
     1404.800000       0.945965
     1404.900000       0.946085
     1405.000000       0.946188
     1405.100000       0.946278
     1405.200000       0.946341
     1405.300000       0.946380
     1405.400000       0.946367
     1405.500000       0.946306
     1405.600000       0.946272
     1405.700000       0.946231
     1405.800000       0.946189
     1405.900000       0.946170
     1406.000000       0.946191
     1406.100000       0.946284
     1406.200000       0.946421
     1406.300000       0.946650
     1406.400000       0.946952
     1406.500000       0.947339
     1406.600000       0.947772
     1406.700000       0.948229
     1406.800000       0.948678
     1406.900000       0.949120
     1407.000000       0.949533
     1407.100000       0.949903
     1407.200000       0.950205
     1407.300000       0.950435
     1407.400000       0.950608
     1407.500000       0.950737
     1407.600000       0.950783
     1407.700000       0.950807
     1407.800000       0.950790
     1407.900000       0.950753
     1408.000000       0.950695
     1408.100000       0.950629
     1408.200000       0.950568
     1408.300000       0.950512
     1408.400000       0.950447
     1408.500000       0.950361
     1408.600000       0.950264
     1408.700000       0.950154
     1408.800000       0.950040
     1408.900000       0.949908
     1409.000000       0.949770
     1409.100000       0.949601
     1409.200000       0.949437
     1409.300000       0.949308
     1409.400000       0.949144
     1409.500000       0.948952
     1409.600000       0.948781
     1409.700000       0.948626
     1409.800000       0.948478
     1409.900000       0.948354
     1410.000000       0.948237
     1410.100000       0.948180
     1410.200000       0.948128
     1410.300000       0.948050
     1410.400000       0.947969
     1410.500000       0.947878
     1410.600000       0.947774
     1410.700000       0.947636
     1410.800000       0.947472
     1410.900000       0.947275
     1411.000000       0.947085
     1411.100000       0.946863
     1411.200000       0.946591
     1411.300000       0.946335
     1411.400000       0.946073
     1411.500000       0.945841
     1411.600000       0.945637
     1411.700000       0.945465
     1411.800000       0.945359
     1411.900000       0.945301
     1412.000000       0.945309
     1412.100000       0.945350
     1412.200000       0.945414
     1412.300000       0.945500
     1412.400000       0.945581
     1412.500000       0.945643
     1412.600000       0.945667
     1412.700000       0.945640
     1412.800000       0.945581
     1412.900000       0.945477
     1413.000000       0.945341
     1413.100000       0.945177
     1413.200000       0.944989
     1413.300000       0.944779
     1413.400000       0.944581
     1413.500000       0.944392
     1413.600000       0.944222
     1413.700000       0.944059
     1413.800000       0.943923
     1413.900000       0.943807
     1414.000000       0.943693
     1414.100000       0.943596
     1414.200000       0.943494
     1414.300000       0.943382
     1414.400000       0.943263
     1414.500000       0.943129
     1414.600000       0.942975
     1414.700000       0.942803
     1414.800000       0.942624
     1414.900000       0.942450
     1415.000000       0.942290
     1415.100000       0.942155
     1415.200000       0.942054
     1415.300000       0.942002
     1415.400000       0.942012
     1415.500000       0.942059
     1415.600000       0.942167
     1415.700000       0.942354
     1415.800000       0.942568
     1415.900000       0.942812
     1416.000000       0.943062
     1416.100000       0.943305
     1416.200000       0.943505
     1416.300000       0.943662
     1416.400000       0.943775
     1416.500000       0.943853
     1416.600000       0.943898
     1416.700000       0.943910
     1416.800000       0.943903
     1416.900000       0.943902
     1417.000000       0.943917
     1417.100000       0.943949
     1417.200000       0.944025
     1417.300000       0.944130
     1417.400000       0.944271
     1417.500000       0.944442
     1417.600000       0.944608
     1417.700000       0.944758
     1417.800000       0.944872
     1417.900000       0.944926
     1418.000000       0.944921
     1418.100000       0.944831
     1418.200000       0.944620
     1418.300000       0.944384
     1418.400000       0.944158
     1418.500000       0.944022
     1418.600000       0.944041
     1418.700000       0.944273
     1418.800000       0.944758
     1418.900000       0.945554
     1419.000000       0.946638
     1419.100000       0.948005
     1419.200000       0.949625
     1419.300000       0.951338
     1419.400000       0.952966
     1419.500000       0.954391
     1419.600000       0.955494
     1419.700000       0.956139
     1419.800000       0.956218
     1419.900000       0.955588
     1420.000000       0.954321
     1420.100000       0.952617
     1420.200000       0.950724
     1420.300000       0.948777
     1420.400000       0.946919
     1420.500000       0.945357
     1420.600000       0.944246
     1420.700000       0.943786
     1420.800000       0.943993
     1420.900000       0.944715
     1421.000000       0.945856
     1421.100000       0.947278
     1421.200000       0.948803
     1421.300000       0.950313
     1421.400000       0.951669
     1421.500000       0.952737
     1421.600000       0.953409
     1421.700000       0.953694
     1421.800000       0.953691
     1421.900000       0.953539
     1422.000000       0.953290
     1422.100000       0.952986
     1422.200000       0.952706
     1422.300000       0.952486
     1422.400000       0.952405
     1422.500000       0.952531
     1422.600000       0.952874
     1422.700000       0.953384
     1422.800000       0.954045
     1422.900000       0.954859
     1423.000000       0.955718
     1423.100000       0.956560
     1423.200000       0.957332
     1423.300000       0.957976
     1423.400000       0.958510
     1423.500000       0.958932
     1423.600000       0.959226
     1423.700000       0.959545
     1423.800000       0.959930
     1423.900000       0.960357
     1424.000000       0.960847
     1424.100000       0.961384
     1424.200000       0.961924
     1424.300000       0.962445
     1424.400000       0.962821
     1424.500000       0.963095
     1424.600000       0.963305
     1424.700000       0.963422
     1424.800000       0.963450
     1424.900000       0.963389
     1425.000000       0.963273
     1425.100000       0.963112
     1425.200000       0.962933
     1425.300000       0.962746
     1425.400000       0.962534
     1425.500000       0.962324
     1425.600000       0.962131
     1425.700000       0.961947
     1425.800000       0.961776
     1425.900000       0.961615
     1426.000000       0.961473
     1426.100000       0.961357
     1426.200000       0.961264
     1426.300000       0.961183
     1426.400000       0.961138
     1426.500000       0.961125
     1426.600000       0.961129
     1426.700000       0.961167
     1426.800000       0.961224
     1426.900000       0.961277
     1427.000000       0.961322
     1427.100000       0.961338
     1427.200000       0.961332
     1427.300000       0.961272
     1427.400000       0.961169
     1427.500000       0.961013
     1427.600000       0.960819
     1427.700000       0.960591
     1427.800000       0.960333
     1427.900000       0.960053
     1428.000000       0.959727
     1428.100000       0.959375
     1428.200000       0.958978
     1428.300000       0.958513
     1428.400000       0.958009
     1428.500000       0.957441
     1428.600000       0.956830
     1428.700000       0.956169
     1428.800000       0.955503
     1428.900000       0.954828
     1429.000000       0.954192
     1429.100000       0.953569
     1429.200000       0.952962
     1429.300000       0.952384
     1429.400000       0.951807
     1429.500000       0.951210
     1429.600000       0.950593
     1429.700000       0.949963
     1429.800000       0.949287
     1429.900000       0.948551
     1430.000000       0.947759
     1430.100000       0.946916
     1430.200000       0.946052
     1430.300000       0.945159
     1430.400000       0.944268
     1430.500000       0.943379
     1430.600000       0.942519
     1430.700000       0.941687
     1430.800000       0.940931
     1430.900000       0.940207
     1431.000000       0.939494
     1431.100000       0.938793
     1431.200000       0.938102
     1431.300000       0.937416
     1431.400000       0.936730
     1431.500000       0.936038
     1431.600000       0.935381
     1431.700000       0.934728
     1431.800000       0.934066
     1431.900000       0.933420
     1432.000000       0.932836
     1432.100000       0.932328
     1432.200000       0.931864
     1432.300000       0.931426
     1432.400000       0.930978
     1432.500000       0.930579
     1432.600000       0.930170
     1432.700000       0.929738
     1432.800000       0.929317
     1432.900000       0.928917
     1433.000000       0.928518
     1433.100000       0.928150
     1433.200000       0.927808
     1433.300000       0.927509
     1433.400000       0.927257
     1433.500000       0.927037
     1433.600000       0.926841
     1433.700000       0.926626
     1433.800000       0.926415
     1433.900000       0.926165
     1434.000000       0.925886
     1434.100000       0.925562
     1434.200000       0.925202
     1434.300000       0.924848
     1434.400000       0.924460
     1434.500000       0.923993
     1434.600000       0.923448
     1434.700000       0.922812
     1434.800000       0.922067
     1434.900000       0.921169
     1435.000000       0.920091
     1435.100000       0.918787
     1435.200000       0.917298
     1435.300000       0.915622
     1435.400000       0.913809
     1435.500000       0.911933
     1435.600000       0.910018
     1435.700000       0.908108
     1435.800000       0.906268
     1435.900000       0.904527
     1436.000000       0.902936
     1436.100000       0.901500
     1436.200000       0.900249
     1436.300000       0.899194
     1436.400000       0.898300
     1436.500000       0.897571
     1436.600000       0.896955
     1436.700000       0.896466
     1436.800000       0.896074
     1436.900000       0.895773
     1437.000000       0.895551
     1437.100000       0.895410
     1437.200000       0.895326
     1437.300000       0.895305
     1437.400000       0.895334
     1437.500000       0.895397
     1437.600000       0.895490
     1437.700000       0.895591
     1437.800000       0.895706
     1437.900000       0.895806
     1438.000000       0.895896
     1438.100000       0.895944
     1438.200000       0.895947
     1438.300000       0.895874
     1438.400000       0.895735
     1438.500000       0.895533
     1438.600000       0.895261
     1438.700000       0.894916
     1438.800000       0.894535
     1438.900000       0.894126
     1439.000000       0.893703
     1439.100000       0.893295
     1439.200000       0.892944
     1439.300000       0.892673
     1439.400000       0.892490
     1439.500000       0.892428
     1439.600000       0.892478
     1439.700000       0.892607
     1439.800000       0.892808
     1439.900000       0.893109
     1440.000000       0.893467
     1440.100000       0.893846
     1440.200000       0.894233
     1440.300000       0.894621
     1440.400000       0.895014
     1440.500000       0.895360
     1440.600000       0.895632
     1440.700000       0.895937
     1440.800000       0.896260
     1440.900000       0.896556
     1441.000000       0.896843
     1441.100000       0.897122
     1441.200000       0.897392
     1441.300000       0.897651
     1441.400000       0.897893
     1441.500000       0.898089
     1441.600000       0.898187
     1441.700000       0.898293
     1441.800000       0.898349
     1441.900000       0.898303
     1442.000000       0.898182
     1442.100000       0.897974
     1442.200000       0.897707
     1442.300000       0.897360
     1442.400000       0.896954
     1442.500000       0.896506
     1442.600000       0.896058
     1442.700000       0.895612
     1442.800000       0.895185
     1442.900000       0.894793
     1443.000000       0.894444
     1443.100000       0.894149
     1443.200000       0.893875
     1443.300000       0.893611
     1443.400000       0.893394
     1443.500000       0.893194
     1443.600000       0.893002
     1443.700000       0.892791
     1443.800000       0.892559
     1443.900000       0.892322
     1444.000000       0.892084
     1444.100000       0.891847
     1444.200000       0.891595
     1444.300000       0.891341
     1444.400000       0.891113
     1444.500000       0.890900
     1444.600000       0.890692
     1444.700000       0.890494
     1444.800000       0.890329
     1444.900000       0.890186
     1445.000000       0.890073
     1445.100000       0.889993
     1445.200000       0.889958
     1445.300000       0.889964
     1445.400000       0.890007
     1445.500000       0.890086
     1445.600000       0.890196
     1445.700000       0.890337
     1445.800000       0.890502
     1445.900000       0.890702
     1446.000000       0.890926
     1446.100000       0.891170
     1446.200000       0.891447
     1446.300000       0.891726
     1446.400000       0.892007
     1446.500000       0.892283
     1446.600000       0.892522
     1446.700000       0.892705
     1446.800000       0.892824
     1446.900000       0.892851
     1447.000000       0.892803
     1447.100000       0.892652
     1447.200000       0.892442
     1447.300000       0.892176
     1447.400000       0.891883
     1447.500000       0.891567
     1447.600000       0.891231
     1447.700000       0.890911
     1447.800000       0.890632
     1447.900000       0.890336
     1448.000000       0.889997
     1448.100000       0.889650
     1448.200000       0.889267
     1448.300000       0.888849
     1448.400000       0.888384
     1448.500000       0.887852
     1448.600000       0.887294
     1448.700000       0.886691
     1448.800000       0.885931
     1448.900000       0.885070
     1449.000000       0.884152
     1449.100000       0.883159
     1449.200000       0.882098
     1449.300000       0.880969
     1449.400000       0.879812
     1449.500000       0.878645
     1449.600000       0.877483
     1449.700000       0.876278
     1449.800000       0.875002
     1449.900000       0.873681
     1450.000000       0.872315
     1450.100000       0.870894
     1450.200000       0.869417
     1450.300000       0.867824
     1450.400000       0.866186
     1450.500000       0.864595
     1450.600000       0.862858
     1450.700000       0.860973
     1450.800000       0.859066
     1450.900000       0.857118
     1451.000000       0.855145
     1451.100000       0.853151
     1451.200000       0.851130
     1451.300000       0.849208
     1451.400000       0.847302
     1451.500000       0.845270
     1451.600000       0.843216
     1451.700000       0.841161
     1451.800000       0.839080
     1451.900000       0.836984
     1452.000000       0.834895
     1452.100000       0.832799
     1452.200000       0.830714
     1452.300000       0.828755
     1452.400000       0.826836
     1452.500000       0.824795
     1452.600000       0.822752
     1452.700000       0.820738
     1452.800000       0.818690
     1452.900000       0.816633
     1453.000000       0.814521
     1453.100000       0.812421
     1453.200000       0.810371
     1453.300000       0.808191
     1453.400000       0.805900
     1453.500000       0.803582
     1453.600000       0.801221
     1453.700000       0.798821
     1453.800000       0.796384
     1453.900000       0.793907
     1454.000000       0.791463
     1454.100000       0.788987
     1454.200000       0.786442
     1454.300000       0.783974
     1454.400000       0.781673
     1454.500000       0.779588
     1454.600000       0.777755
     1454.700000       0.776234
     1454.800000       0.775056
     1454.900000       0.774312
     1455.000000       0.774146
     1455.100000       0.774566
     1455.200000       0.775576
     1455.300000       0.777366
     1455.400000       0.780022
     1455.500000       0.783632
     1455.600000       0.788272
     1455.700000       0.794016
     1455.800000       0.800695
     1455.900000       0.807680
     1456.000000       0.814319
     1456.100000       0.820457
     1456.200000       0.826125
     1456.300000       0.831326
     1456.400000       0.836041
     1456.500000       0.840292
     1456.600000       0.844065
     1456.700000       0.847432
     1456.800000       0.850333
     1456.900000       0.852759
     1457.000000       0.854751
     1457.100000       0.856320
     1457.200000       0.857468
     1457.300000       0.858191
     1457.400000       0.858459
     1457.500000       0.858317
     1457.600000       0.857790
     1457.700000       0.856771
     1457.800000       0.855302
     1457.900000       0.853465
     1458.000000       0.851266
     1458.100000       0.848746
     1458.200000       0.845967
     1458.300000       0.842936
     1458.400000       0.839709
     1458.500000       0.836339
     1458.600000       0.832807
     1458.700000       0.829068
     1458.800000       0.825156
     1458.900000       0.821091
     1459.000000       0.816868
     1459.100000       0.812477
     1459.200000       0.807908
     1459.300000       0.803172
     1459.400000       0.798298
     1459.500000       0.793337
     1459.600000       0.788317
     1459.700000       0.783302
     1459.800000       0.778325
     1459.900000       0.773444
     1460.000000       0.768686
     1460.100000       0.764114
     1460.200000       0.759753
     1460.300000       0.755633
     1460.400000       0.751715
     1460.500000       0.748008
     1460.600000       0.744474
     1460.700000       0.741125
     1460.800000       0.737921
     1460.900000       0.734889
     1461.000000       0.732006
     1461.100000       0.729259
     1461.200000       0.726615
     1461.300000       0.724120
     1461.400000       0.721810
     1461.500000       0.719679
     1461.600000       0.717735
     1461.700000       0.715985
     1461.800000       0.714422
     1461.900000       0.713053
     1462.000000       0.711894
     1462.100000       0.710905
     1462.200000       0.710079
     1462.300000       0.709377
     1462.400000       0.708770
     1462.500000       0.708228
     1462.600000       0.707707
     1462.700000       0.707179
     1462.800000       0.706602
     1462.900000       0.705946
     1463.000000       0.705211
     1463.100000       0.704412
     1463.200000       0.703576
     1463.300000       0.702734
     1463.400000       0.701895
     1463.500000       0.701053
     1463.600000       0.700252
     1463.700000       0.699461
     1463.800000       0.698644
     1463.900000       0.697836
     1464.000000       0.696794
     1464.100000       0.695180
     1464.200000       0.693133
     1464.300000       0.690812
     1464.400000       0.688416
     1464.500000       0.686138
     1464.600000       0.683845
     1464.700000       0.681499
     1464.800000       0.679111
     1464.900000       0.676138
     1465.000000       0.672447
     1465.100000       0.668325
     1465.200000       0.664295
     1465.300000       0.661101
     1465.400000       0.658869
     1465.500000       0.656751
     1465.600000       0.654232
     1465.700000       0.650026
     1465.800000       0.643099
     1465.900000       0.635944
     1466.000000       0.630812
     1466.100000       0.628530
     1466.200000       0.627693
     1466.300000       0.625157
     1466.400000       0.620538
     1466.500000       0.616365
     1466.600000       0.613661
     1466.700000       0.608614
     1466.800000       0.598790
     1466.900000       0.591386
     1467.000000       0.588220
     1467.100000       0.586183
     1467.200000       0.579612
     1467.300000       0.566793
     1467.400000       0.555775
     1467.500000       0.553389
     1467.600000       0.548129
     1467.700000       0.541265
     1467.800000       0.536591
     1467.900000       0.528954
     1468.000000       0.529819
     1468.100000       0.526289
     1468.200000       0.519605
     1468.300000       0.511904
     1468.400000       0.506405
     1468.500000       0.501063
     1468.600000       0.494860
     1468.700000       0.487650
     1468.800000       0.478770
     1468.900000       0.467338
     1469.000000       0.456955
     1469.100000       0.451825
     1469.200000       0.447298
     1469.300000       0.439432
     1469.400000       0.431397
     1469.500000       0.425022
     1469.600000       0.419180
     1469.700000       0.413129
     1469.800000       0.408345
     1469.900000       0.403520
     1470.000000       0.397085
     1470.100000       0.391051
     1470.200000       0.383601
     1470.300000       0.375689
     1470.400000       0.367714
     1470.500000       0.358988
     1470.600000       0.352164
     1470.700000       0.345271
     1470.800000       0.334420
     1470.900000       0.321933
     1471.000000       0.311072
     1471.100000       0.305231
     1471.200000       0.300956
     1471.300000       0.294882
     1471.400000       0.288060
     1471.500000       0.279588
     1471.600000       0.271554
     1471.700000       0.267788
     1471.800000       0.265091
     1471.900000       0.260520
     1472.000000       0.253954
     1472.100000       0.247665
     1472.200000       0.240049
     1472.300000       0.232696
     1472.400000       0.226269
     1472.500000       0.220888
     1472.600000       0.216267
     1472.700000       0.211490
     1472.800000       0.206237
     1472.900000       0.200724
     1473.000000       0.195027
     1473.100000       0.186317
     1473.200000       0.175598
     1473.300000       0.167706
     1473.400000       0.163997
     1473.500000       0.161244
     1473.600000       0.156767
     1473.700000       0.152540
     1473.800000       0.148574
     1473.900000       0.144020
     1474.000000       0.137927
     1474.100000       0.130338
     1474.200000       0.123501
     1474.300000       0.119627
     1474.400000       0.116876
     1474.500000       0.113983
     1474.600000       0.110791
     1474.700000       0.107862
     1474.800000       0.104722
     1474.900000       0.101334
     1475.000000       0.098123
     1475.100000       0.094942
     1475.200000       0.091685
     1475.300000       0.088326
     1475.400000       0.084889
     1475.500000       0.081842
     1475.600000       0.079076
     1475.700000       0.076014
     1475.800000       0.072846
     1475.900000       0.069597
     1476.000000       0.066156
     1476.100000       0.062695
     1476.200000       0.059368
     1476.300000       0.056430
     1476.400000       0.054257
     1476.500000       0.052372
     1476.600000       0.050577
     1476.700000       0.049061
     1476.800000       0.047644
     1476.900000       0.046205
     1477.000000       0.044661
     1477.100000       0.042991
     1477.200000       0.041268
     1477.300000       0.039669
     1477.400000       0.038389
     1477.500000       0.037202
     1477.600000       0.036080
     1477.700000       0.035134
     1477.800000       0.034279
     1477.900000       0.033469
     1478.000000       0.032665
     1478.100000       0.031831
     1478.200000       0.031079
     1478.300000       0.030353
     1478.400000       0.029542
     1478.500000       0.028768
     1478.600000       0.028068
     1478.700000       0.027434
     1478.800000       0.026857
     1478.900000       0.026307
     1479.000000       0.025805
     1479.100000       0.025395
     1479.200000       0.024957
     1479.300000       0.024499
     1479.400000       0.024061
     1479.500000       0.023640
     1479.600000       0.023220
     1479.700000       0.022790
     1479.800000       0.022351
     1479.900000       0.021885
     1480.000000       0.021410
     1480.100000       0.020944
     1480.200000       0.020384
     1480.300000       0.019711
     1480.400000       0.018982
     1480.500000       0.018194
     1480.600000       0.017378
     1480.700000       0.016561
     1480.800000       0.015752
     1480.900000       0.015075
     1481.000000       0.014424
     1481.100000       0.013716
     1481.200000       0.013027
     1481.300000       0.012374
     1481.400000       0.011741
     1481.500000       0.011136
     1481.600000       0.010531
     1481.700000       0.009993
     1481.800000       0.009521
     1481.900000       0.009012
     1482.000000       0.008493
     1482.100000       0.008003
     1482.200000       0.007532
     1482.300000       0.007089
     1482.400000       0.006674
     1482.500000       0.006287
     1482.600000       0.005909
     1482.700000       0.005569
     1482.800000       0.005266
     1482.900000       0.004945
     1483.000000       0.004604
     1483.100000       0.004273
     1483.200000       0.003951
     1483.300000       0.003620
     1483.400000       0.003298
     1483.500000       0.002986
     1483.600000       0.002722
     1483.700000       0.002476
     1483.800000       0.002221
     1483.900000       0.002004
     1484.000000       0.001833
     1484.100000       0.001720
     1484.200000       0.001644
     1484.300000       0.001588
     1484.400000       0.001559
     1484.500000       0.001531
     1484.600000       0.001492
     1484.700000       0.001445
     1484.800000       0.001378
     1484.900000       0.001265
     1485.000000       0.001103
