 2    ,Original SRF for METOP-B AVHRR A307 channel 2 file METOPB_A307C002.txt
Number of data points:
102
Wavenumber (cm-1)   Filter response
     9328.358200       0.000316
     9363.295900       0.000377
     9398.496200       0.000507
     9433.962300       0.000661
     9469.697000       0.000829
     9505.703400       0.001088
     9541.984700       0.001339
     9578.544100       0.001599
     9615.384600       0.001850
     9652.509700       0.002175
     9689.922500       0.002544
     9727.626500       0.002921
     9765.625000       0.003576
     9803.921600       0.004582
     9842.519700       0.006558
     9881.422900       0.010949
     9920.634900       0.022110
     9960.159400       0.053473
    10000.000000       0.148160
    10040.160600       0.388350
    10080.645200       0.631200
    10121.457500       0.673410
    10162.601600       0.692120
    10204.081600       0.714860
    10245.901600       0.737780
    10288.065800       0.754690
    10330.578500       0.765200
    10373.444000       0.772990
    10416.666700       0.781440
    10460.251000       0.790390
    10504.201700       0.800330
    10548.523200       0.808210
    10593.220300       0.813430
    10638.297900       0.819580
    10683.760700       0.825240
    10729.613700       0.831230
    10775.862100       0.839300
    10822.510800       0.848130
    10869.565200       0.858820
    10917.030600       0.870420
    10964.912300       0.880940
    11013.215900       0.890900
    11061.946900       0.900120
    11111.111100       0.910110
    11160.714300       0.918030
    11210.762300       0.921220
    11261.261300       0.918290
    11312.217200       0.910880
    11363.636400       0.903060
    11415.525100       0.889610
    11467.889900       0.881400
    11520.737300       0.878900
    11574.074100       0.879360
    11627.907000       0.881370
    11682.243000       0.894940
    11737.089200       0.911820
    11792.452800       0.927130
    11848.341200       0.942660
    11904.761900       0.955120
    11961.722500       0.968320
    12019.230800       0.981250
    12077.294700       0.992040
    12135.922300       0.997910
    12195.122000       1.000000
    12254.902000       0.992620
    12315.270900       0.979320
    12376.237600       0.972490
    12437.810900       0.968380
    12500.000000       0.975360
    12562.814100       0.985040
    12626.262600       0.995360
    12690.355300       0.996220
    12755.102000       0.985620
    12820.512800       0.975020
    12886.597900       0.966240
    12953.367900       0.971060
    13020.833300       0.981080
    13089.005200       0.985240
    13157.894700       0.979350
    13227.513200       0.958170
    13297.872300       0.917010
    13368.984000       0.868000
    13440.860200       0.836270
    13513.513500       0.809530
    13586.956500       0.799580
    13661.202200       0.662010
    13736.263700       0.461380
    13812.154700       0.356460
    13888.888900       0.284740
    13966.480400       0.222980
    14044.943800       0.166020
    14124.293800       0.110230
    14204.545500       0.065716
    14285.714300       0.025066
    14367.816100       0.004369
    14450.867100       0.000223
    14534.883700       0.000335
    14619.883000       0.000112
    14705.882400       0.000187
    14792.899400       0.000218
    14880.952400       0.000164
    14970.059900       0.000086
