   6  ,noaa_11_hirs_06.flt
Number of data points:
101
Wavenumber (cm-1)   Filter response
      699.960000       0.000000
      700.550000       0.000000
      701.150000       0.000000
      701.740000       0.000000
      702.330000       0.000000
      702.930000       0.000000
      703.530000       0.000000
      704.120000       0.000000
      704.710000       0.000000
      705.310000       0.000000
      705.910000       0.000000
      706.500000       0.000000
      707.100000       0.000000
      707.690000       0.000000
      708.280000       0.000000
      708.880000       0.000000
      709.480000       0.000000
      710.080000       0.006116
      710.690000       0.000993
      711.300000       0.003584
      711.900000       0.007303
      712.510000       0.014182
      713.120000       0.017026
      713.720000       0.021755
      714.330000       0.026330
      714.940000       0.031392
      715.540000       0.038905
      716.150000       0.050224
      716.760000       0.064587
      717.360000       0.080892
      717.970000       0.104150
      718.580000       0.127030
      719.180000       0.155570
      719.770000       0.194650
      720.390000       0.239120
      720.960000       0.287720
      721.600000       0.331900
      722.180000       0.380060
      722.750000       0.434030
      723.330000       0.481220
      723.940000       0.546640
      724.530000       0.587910
      725.110000       0.638110
      725.730000       0.698660
      726.310000       0.742480
      726.890000       0.793530
      727.460000       0.843200
      728.100000       0.884670
      728.690000       0.912000
      729.270000       0.945720
      729.860000       0.969310
      730.500000       0.984860
      731.100000       1.000000
      731.700000       0.995350
      732.310000       0.986860
      732.910000       0.974020
      733.520000       0.971170
      734.120000       0.957660
      734.720000       0.937290
      735.350000       0.929540
      735.960000       0.915320
      736.560000       0.898350
      737.170000       0.876300
      737.770000       0.840660
      738.380000       0.810250
      738.990000       0.753490
      739.590000       0.695370
      740.180000       0.620690
      740.800000       0.539160
      741.370000       0.458570
      742.050000       0.393740
      742.620000       0.314260
      743.180000       0.246230
      743.880000       0.199720
      744.460000       0.160290
      745.050000       0.127100
      745.640000       0.100010
      746.230000       0.081702
      746.820000       0.067777
      747.410000       0.054082
      748.010000       0.041662
      748.600000       0.032269
      749.200000       0.024540
      749.800000       0.017511
      750.390000       0.018230
      750.990000       0.019525
      751.600000       0.011390
      752.190000       0.007980
      752.790000       0.011284
      753.400000       0.008124
      754.000000       0.008130
      754.600000       0.001662
      755.200000       0.000199
      755.800000       0.008413
      756.400000       0.000000
      757.000000       0.000000
      757.600000       0.000000
      758.200000       0.000000
      758.800000       0.000000
      759.400000       0.000000
      760.000000       0.000000
