89,   89, MVIRI VIS channel from srf_MET7_2008258_2008259_1801-Release_S10EE_10.dat
Number of data points:
793
Wavenumber (cm-1)   Filter response
     8442.380800       0.000000
     8449.514200       0.000000
     8456.659600       0.000004
     8463.817200       0.000056
     8470.986900       0.000165
     8478.168700       0.000330
     8485.362700       0.000549
     8492.569000       0.000821
     8499.787500       0.001144
     8507.018300       0.001517
     8514.261400       0.001938
     8521.516800       0.002406
     8528.784600       0.002919
     8536.064900       0.003476
     8543.357500       0.004077
     8550.662700       0.004719
     8557.980300       0.005402
     8565.310500       0.006124
     8572.653200       0.006885
     8580.008600       0.007683
     8587.376600       0.008518
     8594.757200       0.009389
     8602.150500       0.010294
     8609.556600       0.011233
     8616.975400       0.012205
     8624.407100       0.013209
     8631.851500       0.014245
     8639.308900       0.015311
     8646.779100       0.016407
     8654.262200       0.017533
     8661.758300       0.018687
     8669.267400       0.019870
     8676.789600       0.021080
     8684.324800       0.022317
     8691.873100       0.023581
     8699.434500       0.024871
     8707.009100       0.026186
     8714.596900       0.027527
     8722.198000       0.028892
     8729.812300       0.030282
     8737.439900       0.031696
     8745.080900       0.033134
     8752.735200       0.034594
     8760.403000       0.036078
     8768.084200       0.037585
     8775.778900       0.039114
     8783.487000       0.040666
     8791.208800       0.042240
     8798.944100       0.043835
     8806.693100       0.045453
     8814.455700       0.047092
     8822.232000       0.048752
     8830.022100       0.050434
     8837.825900       0.052136
     8845.643500       0.053860
     8853.475000       0.055605
     8861.320300       0.057370
     8869.179600       0.059157
     8877.052800       0.060964
     8884.940000       0.062792
     8892.841300       0.064640
     8900.756600       0.066509
     8908.686000       0.068399
     8916.629500       0.070309
     8924.587200       0.072240
     8932.559200       0.074191
     8940.545400       0.076163
     8948.545900       0.078156
     8956.560700       0.080169
     8964.589900       0.082204
     8972.633500       0.084259
     8980.691500       0.086334
     8988.764000       0.088431
     8996.851100       0.090549
     9004.952700       0.092687
     9013.068900       0.094847
     9021.199800       0.097028
     9029.345400       0.099230
     9037.505600       0.101453
     9045.680700       0.103698
     9053.870500       0.105964
     9062.075200       0.108251
     9070.294800       0.110561
     9078.529300       0.112892
     9086.778700       0.115245
     9095.043200       0.117619
     9103.322700       0.120016
     9111.617300       0.122435
     9119.927000       0.124876
     9128.251900       0.127339
     9136.592100       0.129825
     9144.947400       0.132333
     9153.318100       0.134863
     9161.704100       0.137416
     9170.105500       0.139992
     9178.522300       0.142591
     9186.954500       0.145212
     9195.402300       0.147857
     9203.865600       0.150524
     9212.344500       0.153215
     9220.839100       0.155928
     9229.349300       0.158665
     9237.875300       0.161425
     9246.417000       0.164208
     9254.974500       0.167015
     9263.547900       0.169846
     9272.137200       0.172699
     9280.742500       0.175577
     9289.363700       0.178477
     9298.000900       0.181402
     9306.654300       0.184350
     9315.323700       0.187322
     9324.009300       0.190317
     9332.711200       0.193336
     9341.429200       0.196379
     9350.163600       0.199446
     9358.914400       0.202536
     9367.681500       0.205650
     9376.465100       0.208787
     9385.265100       0.211948
     9394.081700       0.215134
     9402.914900       0.218342
     9411.764700       0.221574
     9420.631200       0.224830
     9429.514400       0.228109
     9438.414300       0.231412
     9447.331100       0.234738
     9456.264800       0.238087
     9465.215300       0.241460
     9474.182900       0.244855
     9483.167400       0.248275
     9492.169000       0.251716
     9501.187600       0.255181
     9510.223500       0.258669
     9519.276500       0.262179
     9528.346800       0.265712
     9537.434400       0.269268
     9546.539400       0.272846
     9555.661700       0.276446
     9564.801500       0.280068
     9573.958800       0.283712
     9583.133700       0.287378
     9592.326100       0.291065
     9601.536200       0.294774
     9610.764100       0.298504
     9620.009600       0.302256
     9629.273000       0.306028
     9638.554200       0.309821
     9647.853400       0.313634
     9657.170400       0.317468
     9666.505600       0.321322
     9675.858700       0.325196
     9685.230000       0.329089
     9694.619500       0.333002
     9704.027200       0.336934
     9713.453100       0.340885
     9722.897400       0.344855
     9732.360100       0.348843
     9741.841200       0.352850
     9751.340800       0.356874
     9760.859000       0.360916
     9770.395700       0.364976
     9779.951100       0.369052
     9789.525200       0.373146
     9799.118100       0.377256
     9808.729800       0.381382
     9818.360300       0.385524
     9828.009800       0.389681
     9837.678300       0.393854
     9847.365800       0.398043
     9857.072400       0.402245
     9866.798200       0.406462
     9876.543200       0.410692
     9886.307500       0.414937
     9896.091000       0.419195
     9905.894000       0.423465
     9915.716400       0.427749
     9925.558300       0.432044
     9935.419800       0.436351
     9945.300800       0.440670
     9955.201600       0.445000
     9965.122100       0.449340
     9975.062300       0.453691
     9985.022500       0.458052
     9995.002500       0.462423
    10005.002500       0.466802
    10015.022500       0.471190
    10025.062700       0.475587
    10035.122900       0.479991
    10045.203400       0.484403
    10055.304200       0.488823
    10065.425300       0.493248
    10075.566800       0.497680
    10085.728700       0.502118
    10095.911200       0.506562
    10106.114200       0.511010
    10116.337900       0.515463
    10126.582300       0.519920
    10136.847400       0.524380
    10147.133400       0.528845
    10157.440300       0.533311
    10167.768200       0.537780
    10178.117000       0.542251
    10188.487000       0.546723
    10198.878100       0.551197
    10209.290500       0.555671
    10219.724100       0.560144
    10230.179000       0.564618
    10240.655400       0.569091
    10251.153300       0.573562
    10261.672700       0.578031
    10272.213700       0.582499
    10282.776300       0.586963
    10293.360800       0.591425
    10303.967000       0.595883
    10314.595200       0.600336
    10325.245200       0.604785
    10335.917300       0.609229
    10346.611500       0.613668
    10357.327800       0.618100
    10368.066400       0.622526
    10378.827200       0.626945
    10389.610400       0.631357
    10400.416000       0.635761
    10411.244100       0.640156
    10422.094800       0.644542
    10432.968200       0.648920
    10443.864200       0.653287
    10454.783100       0.657644
    10465.724800       0.661991
    10476.689400       0.666326
    10487.677000       0.670650
    10498.687700       0.674962
    10509.721500       0.679260
    10520.778500       0.683546
    10531.858900       0.687819
    10542.962600       0.692077
    10554.089700       0.696321
    10565.240400       0.700550
    10576.414600       0.704764
    10587.612500       0.708962
    10598.834100       0.713144
    10610.079600       0.717309
    10621.348900       0.721456
    10632.642200       0.725587
    10643.959600       0.729699
    10655.301000       0.733793
    10666.666700       0.737867
    10678.056600       0.741923
    10689.470900       0.745958
    10700.909600       0.749974
    10712.372800       0.753968
    10723.860600       0.757942
    10735.373100       0.761894
    10746.910300       0.765824
    10758.472300       0.769732
    10770.059200       0.773617
    10781.671200       0.777479
    10793.308100       0.781317
    10804.970300       0.785131
    10816.657700       0.788921
    10828.370300       0.792686
    10840.108400       0.796426
    10851.871900       0.800141
    10863.661100       0.803830
    10875.475800       0.807492
    10887.316300       0.811127
    10899.182600       0.814736
    10911.074700       0.818317
    10922.992900       0.821870
    10934.937100       0.825396
    10946.907500       0.828892
    10958.904100       0.832360
    10970.927000       0.835799
    10982.976400       0.839208
    10995.052200       0.842588
    11007.154700       0.845937
    11019.283700       0.849255
    11031.439600       0.852544
    11043.622300       0.855800
    11055.832000       0.859026
    11068.068600       0.862219
    11080.332400       0.865381
    11092.623400       0.868511
    11104.941700       0.871607
    11117.287400       0.874671
    11129.660500       0.877702
    11142.061300       0.880699
    11154.489700       0.883663
    11166.945800       0.886593
    11179.429800       0.889488
    11191.941800       0.892349
    11204.481800       0.895176
    11217.049900       0.897967
    11229.646300       0.900724
    11242.270900       0.903445
    11254.924000       0.906130
    11267.605600       0.908780
    11280.315800       0.911394
    11293.054800       0.913971
    11305.822500       0.916512
    11318.619100       0.919017
    11331.444800       0.921485
    11344.299500       0.923916
    11357.183400       0.926310
    11370.096600       0.928667
    11383.039300       0.930986
    11396.011400       0.933268
    11409.013100       0.935512
    11422.044500       0.937718
    11435.105800       0.939887
    11448.196900       0.942017
    11461.318100       0.944110
    11474.469300       0.946164
    11487.650800       0.948179
    11500.862600       0.950157
    11514.104800       0.952095
    11527.377500       0.953995
    11540.680900       0.955857
    11554.015000       0.957680
    11567.380000       0.959464
    11580.775900       0.961209
    11594.202900       0.962915
    11607.661100       0.964582
    11621.150500       0.966210
    11634.671300       0.967799
    11648.223600       0.969350
    11661.807600       0.970861
    11675.423200       0.972333
    11689.070700       0.973766
    11702.750100       0.975160
    11716.461600       0.976515
    11730.205300       0.977831
    11743.981200       0.979109
    11757.789500       0.980347
    11771.630400       0.981546
    11785.503800       0.982707
    11799.410000       0.983828
    11813.349100       0.984912
    11827.321100       0.985956
    11841.326200       0.986962
    11855.364600       0.987929
    11869.436200       0.988858
    11883.541300       0.989749
    11897.680000       0.990601
    11911.852300       0.991416
    11926.058400       0.992192
    11940.298500       0.992931
    11954.572600       0.993632
    11968.880900       0.994295
    11983.223500       0.994921
    11997.600500       0.995510
    12012.012000       0.996061
    12026.458200       0.996576
    12040.939200       0.997053
    12055.455100       0.997494
    12070.006000       0.997899
    12084.592100       0.998267
    12099.213600       0.998599
    12113.870400       0.998896
    12128.562800       0.999156
    12143.290800       0.999381
    12158.054700       0.999571
    12172.854500       0.999726
    12187.690400       0.999846
    12202.562500       0.999932
    12217.471000       0.999983
    12232.415900       1.000000
    12247.397400       0.999983
    12262.415700       0.999933
    12277.470800       0.999849
    12292.563000       0.999732
    12307.692300       0.999583
    12322.858900       0.999401
    12338.062900       0.999186
    12353.304500       0.998940
    12368.583800       0.998662
    12383.900900       0.998353
    12399.256000       0.998013
    12414.649300       0.997642
    12430.080800       0.997240
    12445.550700       0.996809
    12461.059200       0.996348
    12476.606400       0.995857
    12492.192400       0.995337
    12507.817400       0.994788
    12523.481500       0.994211
    12539.185000       0.993606
    12554.927800       0.992973
    12570.710200       0.992312
    12586.532400       0.991625
    12602.394500       0.990911
    12618.296500       0.990170
    12634.238800       0.989404
    12650.221400       0.988612
    12666.244500       0.987795
    12682.308200       0.986953
    12698.412700       0.986086
    12714.558200       0.985196
    12730.744700       0.984282
    12746.972600       0.983344
    12763.241900       0.982384
    12779.552700       0.981401
    12795.905300       0.980396
    12812.299800       0.979370
    12828.736400       0.978323
    12845.215200       0.977254
    12861.736300       0.976165
    12878.300100       0.975056
    12894.906500       0.973928
    12911.555800       0.972781
    12928.248200       0.971614
    12944.983800       0.970430
    12961.762800       0.969227
    12978.585300       0.968008
    12995.451600       0.966771
    13012.361700       0.965517
    13029.316000       0.964248
    13046.314400       0.962963
    13063.357300       0.961663
    13080.444700       0.960347
    13097.576900       0.959018
    13114.754100       0.957674
    13131.976400       0.956318
    13149.243900       0.954948
    13166.556900       0.953565
    13183.915600       0.952171
    13201.320100       0.950765
    13218.770700       0.949347
    13236.267400       0.947919
    13253.810500       0.946480
    13271.400100       0.945032
    13289.036500       0.943574
    13306.719900       0.942108
    13324.450400       0.940632
    13342.228200       0.939149
    13360.053400       0.937658
    13377.926400       0.936160
    13395.847300       0.934656
    13413.816200       0.933145
    13431.833400       0.931628
    13449.899100       0.930106
    13468.013500       0.928579
    13486.176700       0.927048
    13504.388900       0.925512
    13522.650400       0.923973
    13540.961400       0.922431
    13559.322000       0.920886
    13577.732500       0.919339
    13596.193100       0.917790
    13614.703900       0.916240
    13633.265200       0.914689
    13651.877100       0.913138
    13670.540000       0.911586
    13689.253900       0.910035
    13708.019200       0.908485
    13726.836000       0.906936
    13745.704500       0.905388
    13764.624900       0.903843
    13783.597500       0.902300
    13802.622500       0.900760
    13821.700100       0.899223
    13840.830400       0.897690
    13860.013900       0.896161
    13879.250500       0.894637
    13898.540700       0.893118
    13917.884500       0.891604
    13937.282200       0.890095
    13956.734100       0.888593
    13976.240400       0.887097
    13995.801300       0.885609
    14015.417000       0.884127
    14035.087700       0.882653
    14054.813800       0.881187
    14074.595400       0.879730
    14094.432700       0.878281
    14114.326000       0.876841
    14134.275600       0.875411
    14154.281700       0.873990
    14174.344400       0.872580
    14194.464200       0.871180
    14214.641100       0.869790
    14234.875400       0.868412
    14255.167500       0.867046
    14275.517500       0.865691
    14295.925700       0.864348
    14316.392300       0.863018
    14336.917600       0.861700
    14357.501800       0.860395
    14378.145200       0.859103
    14398.848100       0.857825
    14419.610700       0.856561
    14440.433200       0.855311
    14461.316000       0.854075
    14482.259200       0.852854
    14503.263200       0.851647
    14524.328200       0.850456
    14545.454500       0.849280
    14566.642400       0.848120
    14587.892000       0.846975
    14609.203800       0.845847
    14630.577900       0.844734
    14652.014700       0.843638
    14673.514300       0.842559
    14695.077100       0.841497
    14716.703500       0.840451
    14738.393500       0.839423
    14760.147600       0.838412
    14781.966000       0.837419
    14803.849000       0.836443
    14825.796900       0.835485
    14847.809900       0.834545
    14869.888500       0.833623
    14892.032800       0.832720
    14914.243100       0.831834
    14936.519800       0.830968
    14958.863100       0.830119
    14981.273400       0.829290
    15003.750900       0.828479
    15026.296000       0.827687
    15048.909000       0.826913
    15071.590100       0.826159
    15094.339600       0.825424
    15117.158000       0.824707
    15140.045400       0.824010
    15163.002300       0.823332
    15186.028900       0.822673
    15209.125500       0.822033
    15232.292500       0.821412
    15255.530100       0.820810
    15278.838800       0.820227
    15302.218800       0.819664
    15325.670500       0.819119
    15349.194200       0.818593
    15372.790200       0.818087
    15396.458800       0.817599
    15420.200500       0.817130
    15444.015400       0.816679
    15467.904100       0.816248
    15491.866800       0.815834
    15515.903800       0.815440
    15540.015500       0.815063
    15564.202300       0.814705
    15588.464500       0.814365
    15612.802500       0.814043
    15637.216600       0.813738
    15661.707100       0.813451
    15686.274500       0.813182
    15710.919100       0.812930
    15735.641200       0.812695
    15760.441300       0.812476
    15785.319700       0.812275
    15810.276700       0.812090
    15835.312700       0.811921
    15860.428200       0.811768
    15885.623500       0.811631
    15910.899000       0.811509
    15936.255000       0.811402
    15961.691900       0.811311
    15987.210200       0.811234
    16012.810200       0.811171
    16038.492400       0.811123
    16064.257000       0.811088
    16090.104600       0.811067
    16116.035500       0.811059
    16142.050000       0.811064
    16168.148700       0.811081
    16194.332000       0.811110
    16220.600200       0.811151
    16246.953700       0.811203
    16273.393000       0.811266
    16299.918500       0.811340
    16326.530600       0.811424
    16353.229800       0.811517
    16380.016400       0.811620
    16406.890900       0.811732
    16433.853700       0.811852
    16460.905300       0.811981
    16488.046200       0.812117
    16515.276600       0.812260
    16542.597200       0.812410
    16570.008300       0.812565
    16597.510400       0.812727
    16625.103900       0.812894
    16652.789300       0.813065
    16680.567100       0.813241
    16708.437800       0.813420
    16736.401700       0.813602
    16764.459300       0.813787
    16792.611300       0.813974
    16820.857900       0.814162
    16849.199700       0.814351
    16877.637100       0.814541
    16906.170800       0.814730
    16934.801000       0.814919
    16963.528400       0.815106
    16992.353400       0.815291
    17021.276600       0.815474
    17050.298400       0.815653
    17079.419300       0.815829
    17108.639900       0.816000
    17137.960600       0.816166
    17167.382000       0.816326
    17196.904600       0.816480
    17226.528900       0.816626
    17256.255400       0.816765
    17286.084700       0.816896
    17316.017300       0.817018
    17346.053800       0.817130
    17376.194600       0.817231
    17406.440400       0.817322
    17436.791600       0.817401
    17467.248900       0.817467
    17497.812800       0.817520
    17528.483800       0.817559
    17559.262500       0.817584
    17590.149500       0.817593
    17621.145400       0.817586
    17652.250700       0.817562
    17683.466000       0.817521
    17714.791900       0.817462
    17746.228900       0.817384
    17777.777800       0.817286
    17809.439000       0.817167
    17841.213200       0.817028
    17873.101000       0.816866
    17905.103000       0.816682
    17937.219700       0.816474
    17969.451900       0.816242
    18001.800200       0.815985
    18034.265100       0.815702
    18066.847300       0.815393
    18099.547500       0.815056
    18132.366300       0.814691
    18165.304300       0.814298
    18198.362100       0.813874
    18231.540600       0.813421
    18264.840200       0.812936
    18298.261700       0.812419
    18331.805700       0.811870
    18365.472900       0.811287
    18399.264000       0.810670
    18433.179700       0.810018
    18467.220700       0.809330
    18501.387600       0.808605
    18535.681200       0.807843
    18570.102100       0.807043
    18604.651200       0.806204
    18639.329000       0.805326
    18674.136300       0.804407
    18709.073900       0.803447
    18744.142500       0.802444
    18779.342700       0.801400
    18814.675400       0.800311
    18850.141400       0.799179
    18885.741300       0.798002
    18921.475900       0.796779
    18957.346000       0.795510
    18993.352300       0.794193
    19029.495700       0.792829
    19065.776900       0.791416
    19102.196800       0.789954
    19138.756000       0.788442
    19175.455400       0.786880
    19212.295900       0.785266
    19249.278200       0.783600
    19286.403100       0.781881
    19323.671500       0.780109
    19361.084200       0.778283
    19398.642100       0.776402
    19436.346000       0.774466
    19474.196700       0.772473
    19512.195100       0.770425
    19550.342100       0.768319
    19588.638600       0.766155
    19627.085400       0.763933
    19665.683400       0.761652
    19704.433500       0.759311
    19743.336600       0.756910
    19782.393700       0.754449
    19821.605600       0.751926
    19860.973200       0.749341
    19900.497500       0.746695
    19940.179500       0.743986
    19980.020000       0.741213
    20020.020000       0.738377
    20060.180500       0.735476
    20100.502500       0.732511
    20140.986900       0.729481
    20181.634700       0.726386
    20222.446900       0.723225
    20263.424500       0.719998
    20304.568500       0.716704
    20345.880000       0.713344
    20387.359800       0.709916
    20429.009200       0.706421
    20470.829100       0.702858
    20512.820500       0.699227
    20554.984600       0.695528
    20597.322300       0.691760
    20639.834900       0.687924
    20682.523300       0.684018
    20725.388600       0.680044
    20768.432000       0.676001
    20811.654500       0.671888
    20855.057400       0.667706
    20898.641600       0.663455
    20942.408400       0.659134
    20986.358900       0.654744
    21030.494200       0.650284
    21074.815600       0.645755
    21119.324200       0.641156
    21164.021200       0.636488
    21208.907700       0.631751
    21253.985100       0.626945
    21299.254500       0.622069
    21344.717200       0.617126
    21390.374300       0.612113
    21436.227200       0.607033
    21482.277100       0.601884
    21528.525300       0.596668
    21574.973000       0.591385
    21621.621600       0.586034
    21668.472400       0.580617
    21715.526600       0.575134
    21762.785600       0.569586
    21810.250800       0.563972
    21857.923500       0.558294
    21905.805000       0.552552
    21953.896800       0.546746
    22002.200200       0.540877
    22050.716600       0.534947
    22099.447500       0.528955
    22148.394200       0.522903
    22197.558300       0.516791
    22246.941000       0.510619
    22296.544000       0.504390
    22346.368700       0.498104
    22396.416600       0.491761
    22446.689100       0.485363
    22497.187900       0.478911
    22547.914300       0.472406
    22598.870100       0.465848
    22650.056600       0.459240
    22701.475600       0.452582
    22753.128600       0.445876
    22805.017100       0.439122
    22857.142900       0.432323
    22909.507400       0.425479
    22962.112500       0.418592
    23014.959700       0.411664
    23068.050700       0.404695
    23121.387300       0.397689
    23174.971000       0.390645
    23228.803700       0.383566
    23282.887100       0.376454
    23337.222900       0.369310
    23391.812900       0.362137
    23446.658900       0.354935
    23501.762600       0.347708
    23557.126000       0.340456
    23612.750900       0.333182
    23668.639100       0.325889
    23724.792400       0.318577
    23781.212800       0.311250
    23837.902300       0.303910
    23894.862600       0.296559
    23952.095800       0.289199
    24009.603800       0.281833
    24067.388700       0.274463
    24125.452400       0.267092
    24183.796900       0.259722
    24242.424200       0.252357
    24301.336600       0.244998
    24360.535900       0.237649
    24420.024400       0.230312
    24479.804200       0.222991
    24539.877300       0.215688
    24600.246000       0.208407
    24660.912500       0.201150
    24721.878900       0.193921
    24783.147500       0.186723
    24844.720500       0.179559
    24906.600200       0.172433
    24968.789000       0.165348
    25031.289100       0.158308
    25094.102900       0.151316
    25157.232700       0.144376
    25220.681000       0.137492
    25284.450100       0.130667
    25348.542500       0.123905
    25412.960600       0.117211
    25477.707000       0.110588
