7,    channel 7 SRF extracted from INSAT-3DS_Sounder_SRFs.zip(INSAT-3DS-Sounder-SRF-Ch7.txt) (received Nov 2023)
Number of data points:
78
Wavenumber (cm-1)   Filter response
      793.021400       0.000000
      793.965900       0.010100
      794.912600       0.020300
      795.861500       0.029000
      796.812700       0.043300
      797.766300       0.057100
      798.722000       0.064400
      799.680100       0.082500
      800.640500       0.096600
      801.603200       0.113800
      802.568200       0.148200
      803.535600       0.184700
      804.505200       0.219600
      805.477200       0.271400
      806.451600       0.332000
      807.428300       0.403600
      808.407400       0.490300
      809.388900       0.573900
      810.372800       0.659900
      811.359000       0.761200
      812.347700       0.848100
      813.338800       0.896100
      814.332200       0.940900
      815.328200       0.974700
      816.326500       0.985600
      817.327300       0.994700
      818.330600       0.995800
      819.336300       0.986600
      820.344500       0.973500
      821.355200       0.963200
      822.368400       0.961300
      823.384100       0.956200
      824.402300       0.947200
      825.423000       0.941200
      826.446300       0.946600
      827.472100       0.942700
      828.500400       0.943800
      829.531300       0.944600
      830.564800       0.949700
      831.600800       0.944900
      832.639500       0.960400
      833.680700       0.960900
      834.724500       0.958500
      835.771000       0.976600
      836.820100       0.987700
      837.871800       0.991400
      838.926200       0.993000
      839.983200       0.993700
      841.042900       0.987200
      842.105300       0.972500
      843.170300       0.965100
      844.238100       0.962600
      845.308500       0.949600
      846.381700       0.951300
      847.457600       0.964400
      848.536300       0.973000
      849.617700       0.989900
      850.701800       1.000000
      851.788800       0.995200
      852.878500       0.982700
      853.971000       0.942200
      855.066300       0.867100
      856.164400       0.782700
      857.265300       0.689200
      858.369100       0.591400
      859.475700       0.508900
      860.585200       0.433800
      861.697500       0.364300
      862.812800       0.307400
      863.930900       0.253000
      865.051900       0.194800
      866.175800       0.143500
      867.302700       0.100000
      868.432500       0.064000
      869.565200       0.041300
      870.700900       0.021900
      871.839600       0.012200
      872.981200       0.000000
