16,   16, MVIRI VIS channel from srf_MET3_1990303_1990304_1801-Release_S10EE_10.dat
Number of data points:
743
Wavenumber (cm-1)   Filter response
     8814.455700       0.000000
     8822.232000       0.000000
     8830.022100       0.000710
     8837.825900       0.002978
     8845.643500       0.005267
     8853.475000       0.007573
     8861.320300       0.009897
     8869.179600       0.012238
     8877.052800       0.014593
     8884.940000       0.016962
     8892.841300       0.019345
     8900.756600       0.021740
     8908.686000       0.024146
     8916.629500       0.026562
     8924.587200       0.028989
     8932.559200       0.031424
     8940.545400       0.033868
     8948.545900       0.036319
     8956.560700       0.038777
     8964.589900       0.041243
     8972.633500       0.043714
     8980.691500       0.046191
     8988.764000       0.048673
     8996.851100       0.051160
     9004.952700       0.053652
     9013.068900       0.056148
     9021.199800       0.058648
     9029.345400       0.061151
     9037.505600       0.063658
     9045.680700       0.066169
     9053.870500       0.068682
     9062.075200       0.071199
     9070.294800       0.073719
     9078.529300       0.076241
     9086.778700       0.078766
     9095.043200       0.081294
     9103.322700       0.083825
     9111.617300       0.086359
     9119.927000       0.088895
     9128.251900       0.091435
     9136.592100       0.093977
     9144.947400       0.096522
     9153.318100       0.099071
     9161.704100       0.101623
     9170.105500       0.104179
     9178.522300       0.106738
     9186.954500       0.109301
     9195.402300       0.111868
     9203.865600       0.114438
     9212.344500       0.117014
     9220.839100       0.119594
     9229.349300       0.122179
     9237.875300       0.124769
     9246.417000       0.127364
     9254.974500       0.129965
     9263.547900       0.132572
     9272.137200       0.135185
     9280.742500       0.137805
     9289.363700       0.140430
     9298.000900       0.143063
     9306.654300       0.145704
     9315.323700       0.148351
     9324.009300       0.151007
     9332.711200       0.153671
     9341.429200       0.156343
     9350.163600       0.159024
     9358.914400       0.161713
     9367.681500       0.164413
     9376.465100       0.167122
     9385.265100       0.169840
     9394.081700       0.172570
     9402.914900       0.175309
     9411.764700       0.178060
     9420.631200       0.180822
     9429.514400       0.183594
     9438.414300       0.186379
     9447.331100       0.189176
     9456.264800       0.191985
     9465.215300       0.194807
     9474.182900       0.197642
     9483.167400       0.200490
     9492.169000       0.203351
     9501.187600       0.206226
     9510.223500       0.209115
     9519.276500       0.212018
     9528.346800       0.214936
     9537.434400       0.217868
     9546.539400       0.220815
     9555.661700       0.223778
     9564.801500       0.226756
     9573.958800       0.229749
     9583.133700       0.232759
     9592.326100       0.235784
     9601.536200       0.238826
     9610.764100       0.241883
     9620.009600       0.244958
     9629.273000       0.248050
     9638.554200       0.251158
     9647.853400       0.254283
     9657.170400       0.257426
     9666.505600       0.260586
     9675.858700       0.263764
     9685.230000       0.266959
     9694.619500       0.270172
     9704.027200       0.273403
     9713.453100       0.276652
     9722.897400       0.279919
     9732.360100       0.283204
     9741.841200       0.286508
     9751.340800       0.289829
     9760.859000       0.293170
     9770.395700       0.296528
     9779.951100       0.299905
     9789.525200       0.303300
     9799.118100       0.306714
     9808.729800       0.310146
     9818.360300       0.313597
     9828.009800       0.317066
     9837.678300       0.320554
     9847.365800       0.324060
     9857.072400       0.327584
     9866.798200       0.331127
     9876.543200       0.334688
     9886.307500       0.338267
     9896.091000       0.341864
     9905.894000       0.345480
     9915.716400       0.349113
     9925.558300       0.352764
     9935.419800       0.356433
     9945.300800       0.360120
     9955.201600       0.363824
     9965.122100       0.367546
     9975.062300       0.371284
     9985.022500       0.375040
     9995.002500       0.378813
    10005.002500       0.382602
    10015.022500       0.386408
    10025.062700       0.390231
    10035.122900       0.394069
    10045.203400       0.397924
    10055.304200       0.401794
    10065.425300       0.405680
    10075.566800       0.409581
    10085.728700       0.413497
    10095.911200       0.417428
    10106.114200       0.421374
    10116.337900       0.425334
    10126.582300       0.429307
    10136.847400       0.433295
    10147.133400       0.437297
    10157.440300       0.441311
    10167.768200       0.445338
    10178.117000       0.449378
    10188.487000       0.453431
    10198.878100       0.457495
    10209.290500       0.461571
    10219.724100       0.465658
    10230.179000       0.469757
    10240.655400       0.473866
    10251.153300       0.477985
    10261.672700       0.482115
    10272.213700       0.486254
    10282.776300       0.490402
    10293.360800       0.494560
    10303.967000       0.498725
    10314.595200       0.502899
    10325.245200       0.507081
    10335.917300       0.511270
    10346.611500       0.515466
    10357.327800       0.519669
    10368.066400       0.523878
    10378.827200       0.528092
    10389.610400       0.532313
    10400.416000       0.536538
    10411.244100       0.540767
    10422.094800       0.545001
    10432.968200       0.549239
    10443.864200       0.553480
    10454.783100       0.557723
    10465.724800       0.561969
    10476.689400       0.566218
    10487.677000       0.570467
    10498.687700       0.574718
    10509.721500       0.578970
    10520.778500       0.583221
    10531.858900       0.587473
    10542.962600       0.591724
    10554.089700       0.595974
    10565.240400       0.600222
    10576.414600       0.604468
    10587.612500       0.608711
    10598.834100       0.612952
    10610.079600       0.617190
    10621.348900       0.621423
    10632.642200       0.625652
    10643.959600       0.629877
    10655.301000       0.634096
    10666.666700       0.638309
    10678.056600       0.642516
    10689.470900       0.646717
    10700.909600       0.650911
    10712.372800       0.655096
    10723.860600       0.659274
    10735.373100       0.663444
    10746.910300       0.667604
    10758.472300       0.671755
    10770.059200       0.675897
    10781.671200       0.680027
    10793.308100       0.684147
    10804.970300       0.688256
    10816.657700       0.692353
    10828.370300       0.696438
    10840.108400       0.700511
    10851.871900       0.704570
    10863.661100       0.708616
    10875.475800       0.712647
    10887.316300       0.716665
    10899.182600       0.720667
    10911.074700       0.724655
    10922.992900       0.728626
    10934.937100       0.732581
    10946.907500       0.736520
    10958.904100       0.740441
    10970.927000       0.744345
    10982.976400       0.748231
    10995.052200       0.752099
    11007.154700       0.755948
    11019.283700       0.759778
    11031.439600       0.763588
    11043.622300       0.767379
    11055.832000       0.771148
    11068.068600       0.774897
    11080.332400       0.778625
    11092.623400       0.782331
    11104.941700       0.786016
    11117.287400       0.789677
    11129.660500       0.793316
    11142.061300       0.796932
    11154.489700       0.800524
    11166.945800       0.804092
    11179.429800       0.807636
    11191.941800       0.811156
    11204.481800       0.814650
    11217.049900       0.818119
    11229.646300       0.821562
    11242.270900       0.824979
    11254.924000       0.828370
    11267.605600       0.831734
    11280.315800       0.835071
    11293.054800       0.838381
    11305.822500       0.841662
    11318.619100       0.844916
    11331.444800       0.848141
    11344.299500       0.851338
    11357.183400       0.854506
    11370.096600       0.857644
    11383.039300       0.860753
    11396.011400       0.863832
    11409.013100       0.866881
    11422.044500       0.869900
    11435.105800       0.872887
    11448.196900       0.875844
    11461.318100       0.878770
    11474.469300       0.881664
    11487.650800       0.884527
    11500.862600       0.887358
    11514.104800       0.890156
    11527.377500       0.892922
    11540.680900       0.895656
    11554.015000       0.898357
    11567.380000       0.901024
    11580.775900       0.903659
    11594.202900       0.906260
    11607.661100       0.908827
    11621.150500       0.911361
    11634.671300       0.913860
    11648.223600       0.916325
    11661.807600       0.918756
    11675.423200       0.921153
    11689.070700       0.923515
    11702.750100       0.925842
    11716.461600       0.928134
    11730.205300       0.930390
    11743.981200       0.932612
    11757.789500       0.934798
    11771.630400       0.936949
    11785.503800       0.939064
    11799.410000       0.941144
    11813.349100       0.943188
    11827.321100       0.945195
    11841.326200       0.947167
    11855.364600       0.949103
    11869.436200       0.951002
    11883.541300       0.952866
    11897.680000       0.954693
    11911.852300       0.956483
    11926.058400       0.958237
    11940.298500       0.959955
    11954.572600       0.961636
    11968.880900       0.963281
    11983.223500       0.964889
    11997.600500       0.966461
    12012.012000       0.967996
    12026.458200       0.969494
    12040.939200       0.970956
    12055.455100       0.972381
    12070.006000       0.973769
    12084.592100       0.975121
    12099.213600       0.976436
    12113.870400       0.977714
    12128.562800       0.978956
    12143.290800       0.980162
    12158.054700       0.981331
    12172.854500       0.982464
    12187.690400       0.983560
    12202.562500       0.984620
    12217.471000       0.985643
    12232.415900       0.986631
    12247.397400       0.987582
    12262.415700       0.988497
    12277.470800       0.989376
    12292.563000       0.990219
    12307.692300       0.991027
    12322.858900       0.991799
    12338.062900       0.992535
    12353.304500       0.993236
    12368.583800       0.993901
    12383.900900       0.994531
    12399.256000       0.995126
    12414.649300       0.995686
    12430.080800       0.996211
    12445.550700       0.996701
    12461.059200       0.997156
    12476.606400       0.997577
    12492.192400       0.997964
    12507.817400       0.998317
    12523.481500       0.998635
    12539.185000       0.998920
    12554.927800       0.999171
    12570.710200       0.999389
    12586.532400       0.999573
    12602.394500       0.999724
    12618.296500       0.999842
    12634.238800       0.999927
    12650.221400       0.999980
    12666.244500       1.000000
    12682.308200       0.999988
    12698.412700       0.999944
    12714.558200       0.999868
    12730.744700       0.999761
    12746.972600       0.999622
    12763.241900       0.999452
    12779.552700       0.999250
    12795.905300       0.999019
    12812.299800       0.998756
    12828.736400       0.998464
    12845.215200       0.998141
    12861.736300       0.997788
    12878.300100       0.997406
    12894.906500       0.996995
    12911.555800       0.996554
    12928.248200       0.996084
    12944.983800       0.995586
    12961.762800       0.995059
    12978.585300       0.994504
    12995.451600       0.993922
    13012.361700       0.993311
    13029.316000       0.992674
    13046.314400       0.992009
    13063.357300       0.991317
    13080.444700       0.990598
    13097.576900       0.989854
    13114.754100       0.989083
    13131.976400       0.988286
    13149.243900       0.987464
    13166.556900       0.986616
    13183.915600       0.985744
    13201.320100       0.984846
    13218.770700       0.983925
    13236.267400       0.982979
    13253.810500       0.982009
    13271.400100       0.981015
    13289.036500       0.979998
    13306.719900       0.978958
    13324.450400       0.977895
    13342.228200       0.976809
    13360.053400       0.975702
    13377.926400       0.974572
    13395.847300       0.973421
    13413.816200       0.972248
    13431.833400       0.971054
    13449.899100       0.969839
    13468.013500       0.968603
    13486.176700       0.967347
    13504.388900       0.966071
    13522.650400       0.964776
    13540.961400       0.963461
    13559.322000       0.962127
    13577.732500       0.960773
    13596.193100       0.959402
    13614.703900       0.958011
    13633.265200       0.956603
    13651.877100       0.955177
    13670.540000       0.953734
    13689.253900       0.952273
    13708.019200       0.950795
    13726.836000       0.949300
    13745.704500       0.947789
    13764.624900       0.946262
    13783.597500       0.944719
    13802.622500       0.943160
    13821.700100       0.941587
    13840.830400       0.939997
    13860.013900       0.938393
    13879.250500       0.936775
    13898.540700       0.935142
    13917.884500       0.933495
    13937.282200       0.931835
    13956.734100       0.930161
    13976.240400       0.928473
    13995.801300       0.926773
    14015.417000       0.925060
    14035.087700       0.923334
    14054.813800       0.921596
    14074.595400       0.919846
    14094.432700       0.918084
    14114.326000       0.916311
    14134.275600       0.914526
    14154.281700       0.912731
    14174.344400       0.910924
    14194.464200       0.909107
    14214.641100       0.907280
    14234.875400       0.905442
    14255.167500       0.903595
    14275.517500       0.901737
    14295.925700       0.899871
    14316.392300       0.897995
    14336.917600       0.896110
    14357.501800       0.894216
    14378.145200       0.892313
    14398.848100       0.890403
    14419.610700       0.888483
    14440.433200       0.886556
    14461.316000       0.884621
    14482.259200       0.882678
    14503.263200       0.880728
    14524.328200       0.878771
    14545.454500       0.876807
    14566.642400       0.874835
    14587.892000       0.872857
    14609.203800       0.870872
    14630.577900       0.868882
    14652.014700       0.866884
    14673.514300       0.864881
    14695.077100       0.862872
    14716.703500       0.860857
    14738.393500       0.858837
    14760.147600       0.856811
    14781.966000       0.854780
    14803.849000       0.852744
    14825.796900       0.850702
    14847.809900       0.848656
    14869.888500       0.846606
    14892.032800       0.844550
    14914.243100       0.842490
    14936.519800       0.840426
    14958.863100       0.838358
    14981.273400       0.836285
    15003.750900       0.834209
    15026.296000       0.832128
    15048.909000       0.830044
    15071.590100       0.827956
    15094.339600       0.825865
    15117.158000       0.823770
    15140.045400       0.821672
    15163.002300       0.819570
    15186.028900       0.817466
    15209.125500       0.815358
    15232.292500       0.813247
    15255.530100       0.811133
    15278.838800       0.809016
    15302.218800       0.806896
    15325.670500       0.804774
    15349.194200       0.802649
    15372.790200       0.800521
    15396.458800       0.798390
    15420.200500       0.796257
    15444.015400       0.794122
    15467.904100       0.791984
    15491.866800       0.789843
    15515.903800       0.787700
    15540.015500       0.785555
    15564.202300       0.783407
    15588.464500       0.781257
    15612.802500       0.779105
    15637.216600       0.776950
    15661.707100       0.774794
    15686.274500       0.772634
    15710.919100       0.770473
    15735.641200       0.768310
    15760.441300       0.766144
    15785.319700       0.763976
    15810.276700       0.761805
    15835.312700       0.759633
    15860.428200       0.757458
    15885.623500       0.755281
    15910.899000       0.753101
    15936.255000       0.750920
    15961.691900       0.748736
    15987.210200       0.746549
    16012.810200       0.744360
    16038.492400       0.742169
    16064.257000       0.739976
    16090.104600       0.737780
    16116.035500       0.735581
    16142.050000       0.733380
    16168.148700       0.731176
    16194.332000       0.728969
    16220.600200       0.726760
    16246.953700       0.724548
    16273.393000       0.722334
    16299.918500       0.720116
    16326.530600       0.717896
    16353.229800       0.715672
    16380.016400       0.713446
    16406.890900       0.711216
    16433.853700       0.708983
    16460.905300       0.706747
    16488.046200       0.704508
    16515.276600       0.702265
    16542.597200       0.700019
    16570.008300       0.697770
    16597.510400       0.695517
    16625.103900       0.693260
    16652.789300       0.690999
    16680.567100       0.688735
    16708.437800       0.686466
    16736.401700       0.684194
    16764.459300       0.681917
    16792.611300       0.679637
    16820.857900       0.677352
    16849.199700       0.675063
    16877.637100       0.672769
    16906.170800       0.670471
    16934.801000       0.668168
    16963.528400       0.665861
    16992.353400       0.663549
    17021.276600       0.661232
    17050.298400       0.658910
    17079.419300       0.656583
    17108.639900       0.654251
    17137.960600       0.651913
    17167.382000       0.649570
    17196.904600       0.647222
    17226.528900       0.644868
    17256.255400       0.642509
    17286.084700       0.640144
    17316.017300       0.637773
    17346.053800       0.635396
    17376.194600       0.633013
    17406.440400       0.630624
    17436.791600       0.628229
    17467.248900       0.625828
    17497.812800       0.623420
    17528.483800       0.621006
    17559.262500       0.618586
    17590.149500       0.616158
    17621.145400       0.613724
    17652.250700       0.611284
    17683.466000       0.608836
    17714.791900       0.606381
    17746.228900       0.603920
    17777.777800       0.601451
    17809.439000       0.598975
    17841.213200       0.596492
    17873.101000       0.594001
    17905.103000       0.591503
    17937.219700       0.588997
    17969.451900       0.586484
    18001.800200       0.583963
    18034.265100       0.581434
    18066.847300       0.578898
    18099.547500       0.576354
    18132.366300       0.573802
    18165.304300       0.571242
    18198.362100       0.568674
    18231.540600       0.566098
    18264.840200       0.563513
    18298.261700       0.560921
    18331.805700       0.558320
    18365.472900       0.555711
    18399.264000       0.553094
    18433.179700       0.550468
    18467.220700       0.547834
    18501.387600       0.545192
    18535.681200       0.542541
    18570.102100       0.539882
    18604.651200       0.537214
    18639.329000       0.534538
    18674.136300       0.531853
    18709.073900       0.529159
    18744.142500       0.526458
    18779.342700       0.523747
    18814.675400       0.521028
    18850.141400       0.518300
    18885.741300       0.515564
    18921.475900       0.512820
    18957.346000       0.510066
    18993.352300       0.507305
    19029.495700       0.504535
    19065.776900       0.501756
    19102.196800       0.498969
    19138.756000       0.496173
    19175.455400       0.493369
    19212.295900       0.490557
    19249.278200       0.487737
    19286.403100       0.484908
    19323.671500       0.482071
    19361.084200       0.479226
    19398.642100       0.476373
    19436.346000       0.473512
    19474.196700       0.470643
    19512.195100       0.467766
    19550.342100       0.464882
    19588.638600       0.461989
    19627.085400       0.459090
    19665.683400       0.456182
    19704.433500       0.453267
    19743.336600       0.450345
    19782.393700       0.447416
    19821.605600       0.444479
    19860.973200       0.441536
    19900.497500       0.438586
    19940.179500       0.435629
    19980.020000       0.432666
    20020.020000       0.429696
    20060.180500       0.426719
    20100.502500       0.423737
    20140.986900       0.420749
    20181.634700       0.417754
    20222.446900       0.414754
    20263.424500       0.411749
    20304.568500       0.408738
    20345.880000       0.405722
    20387.359800       0.402701
    20429.009200       0.399675
    20470.829100       0.396644
    20512.820500       0.393609
    20554.984600       0.390569
    20597.322300       0.387526
    20639.834900       0.384479
    20682.523300       0.381428
    20725.388600       0.378373
    20768.432000       0.375316
    20811.654500       0.372255
    20855.057400       0.369192
    20898.641600       0.366126
    20942.408400       0.363058
    20986.358900       0.359988
    21030.494200       0.356916
    21074.815600       0.353842
    21119.324200       0.350767
    21164.021200       0.347691
    21208.907700       0.344615
    21253.985100       0.341537
    21299.254500       0.338460
    21344.717200       0.335382
    21390.374300       0.332305
    21436.227200       0.329228
    21482.277100       0.326152
    21528.525300       0.323078
    21574.973000       0.320004
    21621.621600       0.316933
    21668.472400       0.313863
    21715.526600       0.310796
    21762.785600       0.307731
    21810.250800       0.304669
    21857.923500       0.301611
    21905.805000       0.298556
    21953.896800       0.295505
    22002.200200       0.292458
    22050.716600       0.289415
    22099.447500       0.286377
    22148.394200       0.283345
    22197.558300       0.280317
    22246.941000       0.277296
    22296.544000       0.274280
    22346.368700       0.271271
    22396.416600       0.268269
    22446.689100       0.265273
    22497.187900       0.262286
    22547.914300       0.259305
    22598.870100       0.256333
    22650.056600       0.253369
    22701.475600       0.250414
    22753.128600       0.247468
    22805.017100       0.244531
    22857.142900       0.241604
    22909.507400       0.238687
    22962.112500       0.235780
    23014.959700       0.232884
    23068.050700       0.229998
    23121.387300       0.227124
    23174.971000       0.224262
    23228.803700       0.221412
    23282.887100       0.218574
    23337.222900       0.215748
    23391.812900       0.212935
    23446.658900       0.210136
    23501.762600       0.207350
    23557.126000       0.204578
    23612.750900       0.201820
    23668.639100       0.199076
    23724.792400       0.196347
    23781.212800       0.193633
    23837.902300       0.190934
    23894.862600       0.188251
    23952.095800       0.185583
    24009.603800       0.182932
    24067.388700       0.180297
    24125.452400       0.177678
    24183.796900       0.175077
    24242.424200       0.172492
    24301.336600       0.169925
    24360.535900       0.167375
    24420.024400       0.164843
    24479.804200       0.162329
    24539.877300       0.159833
    24600.246000       0.157355
    24660.912500       0.154896
    24721.878900       0.152456
    24783.147500       0.150035
    24844.720500       0.147632
    24906.600200       0.145249
    24968.789000       0.142885
    25031.289100       0.140541
    25094.102900       0.138216
    25157.232700       0.135911
    25220.681000       0.133626
    25284.450100       0.131361
    25348.542500       0.129115
    25412.960600       0.126889
    25477.707000       0.124684
