18,   18, MVIRI VIS channel from srf_MET3_1991033_1991034_1801-Release_S10EE_10.dat
Number of data points:
743
Wavenumber (cm-1)   Filter response
     8814.455700       0.000000
     8822.232000       0.000000
     8830.022100       0.000712
     8837.825900       0.002985
     8845.643500       0.005278
     8853.475000       0.007589
     8861.320300       0.009918
     8869.179600       0.012263
     8877.052800       0.014623
     8884.940000       0.016997
     8892.841300       0.019385
     8900.756600       0.021784
     8908.686000       0.024195
     8916.629500       0.026617
     8924.587200       0.029048
     8932.559200       0.031488
     8940.545400       0.033937
     8948.545900       0.036393
     8956.560700       0.038856
     8964.589900       0.041327
     8972.633500       0.043803
     8980.691500       0.046285
     8988.764000       0.048772
     8996.851100       0.051264
     9004.952700       0.053761
     9013.068900       0.056261
     9021.199800       0.058766
     9029.345400       0.061275
     9037.505600       0.063786
     9045.680700       0.066301
     9053.870500       0.068820
     9062.075200       0.071341
     9070.294800       0.073866
     9078.529300       0.076393
     9086.778700       0.078923
     9095.043200       0.081456
     9103.322700       0.083991
     9111.617300       0.086530
     9119.927000       0.089071
     9128.251900       0.091615
     9136.592100       0.094162
     9144.947400       0.096712
     9153.318100       0.099266
     9161.704100       0.101822
     9170.105500       0.104382
     9178.522300       0.106946
     9186.954500       0.109514
     9195.402300       0.112085
     9203.865600       0.114661
     9212.344500       0.117241
     9220.839100       0.119826
     9229.349300       0.122415
     9237.875300       0.125010
     9246.417000       0.127610
     9254.974500       0.130215
     9263.547900       0.132827
     9272.137200       0.135444
     9280.742500       0.138068
     9289.363700       0.140698
     9298.000900       0.143336
     9306.654300       0.145981
     9315.323700       0.148633
     9324.009300       0.151293
     9332.711200       0.153961
     9341.429200       0.156638
     9350.163600       0.159323
     9358.914400       0.162017
     9367.681500       0.164721
     9376.465100       0.167435
     9385.265100       0.170158
     9394.081700       0.172892
     9402.914900       0.175635
     9411.764700       0.178391
     9420.631200       0.181157
     9429.514400       0.183934
     9438.414300       0.186724
     9447.331100       0.189525
     9456.264800       0.192338
     9465.215300       0.195165
     9474.182900       0.198004
     9483.167400       0.200856
     9492.169000       0.203722
     9501.187600       0.206601
     9510.223500       0.209495
     9519.276500       0.212402
     9528.346800       0.215324
     9537.434400       0.218261
     9546.539400       0.221213
     9555.661700       0.224180
     9564.801500       0.227162
     9573.958800       0.230160
     9583.133700       0.233174
     9592.326100       0.236204
     9601.536200       0.239250
     9610.764100       0.242312
     9620.009600       0.245391
     9629.273000       0.248487
     9638.554200       0.251600
     9647.853400       0.254730
     9657.170400       0.257877
     9666.505600       0.261042
     9675.858700       0.264224
     9685.230000       0.267424
     9694.619500       0.270641
     9704.027200       0.273876
     9713.453100       0.277130
     9722.897400       0.280402
     9732.360100       0.283691
     9741.841200       0.286999
     9751.340800       0.290325
     9760.859000       0.293669
     9770.395700       0.297032
     9779.951100       0.300413
     9789.525200       0.303813
     9799.118100       0.307232
     9808.729800       0.310668
     9818.360300       0.314123
     9828.009800       0.317597
     9837.678300       0.321089
     9847.365800       0.324599
     9857.072400       0.328128
     9866.798200       0.331675
     9876.543200       0.335240
     9886.307500       0.338824
     9896.091000       0.342426
     9905.894000       0.346046
     9915.716400       0.349684
     9925.558300       0.353339
     9935.419800       0.357012
     9945.300800       0.360703
     9955.201600       0.364412
     9965.122100       0.368138
     9975.062300       0.371880
     9985.022500       0.375640
     9995.002500       0.379418
    10005.002500       0.383211
    10015.022500       0.387021
    10025.062700       0.390848
    10035.122900       0.394690
    10045.203400       0.398549
    10055.304200       0.402424
    10065.425300       0.406313
    10075.566800       0.410219
    10085.728700       0.414139
    10095.911200       0.418074
    10106.114200       0.422023
    10116.337900       0.425987
    10126.582300       0.429965
    10136.847400       0.433957
    10147.133400       0.437962
    10157.440300       0.441980
    10167.768200       0.446012
    10178.117000       0.450055
    10188.487000       0.454111
    10198.878100       0.458180
    10209.290500       0.462259
    10219.724100       0.466350
    10230.179000       0.470452
    10240.655400       0.474565
    10251.153300       0.478688
    10261.672700       0.482821
    10272.213700       0.486964
    10282.776300       0.491115
    10293.360800       0.495276
    10303.967000       0.499445
    10314.595200       0.503622
    10325.245200       0.507807
    10335.917300       0.512000
    10346.611500       0.516199
    10357.327800       0.520405
    10368.066400       0.524617
    10378.827200       0.528834
    10389.610400       0.533058
    10400.416000       0.537286
    10411.244100       0.541518
    10422.094800       0.545755
    10432.968200       0.549995
    10443.864200       0.554239
    10454.783100       0.558485
    10465.724800       0.562734
    10476.689400       0.566984
    10487.677000       0.571237
    10498.687700       0.575490
    10509.721500       0.579744
    10520.778500       0.583998
    10531.858900       0.588251
    10542.962600       0.592504
    10554.089700       0.596756
    10565.240400       0.601006
    10576.414600       0.605254
    10587.612500       0.609500
    10598.834100       0.613743
    10610.079600       0.617982
    10621.348900       0.622217
    10632.642200       0.626447
    10643.959600       0.630673
    10655.301000       0.634894
    10666.666700       0.639109
    10678.056600       0.643317
    10689.470900       0.647519
    10700.909600       0.651714
    10712.372800       0.655901
    10723.860600       0.660080
    10735.373100       0.664250
    10746.910300       0.668411
    10758.472300       0.672563
    10770.059200       0.676705
    10781.671200       0.680836
    10793.308100       0.684957
    10804.970300       0.689066
    10816.657700       0.693164
    10828.370300       0.697249
    10840.108400       0.701321
    10851.871900       0.705381
    10863.661100       0.709427
    10875.475800       0.713458
    10887.316300       0.717475
    10899.182600       0.721477
    10911.074700       0.725464
    10922.992900       0.729435
    10934.937100       0.733390
    10946.907500       0.737328
    10958.904100       0.741248
    10970.927000       0.745152
    10982.976400       0.749037
    10995.052200       0.752904
    11007.154700       0.756752
    11019.283700       0.760580
    11031.439600       0.764389
    11043.622300       0.768178
    11055.832000       0.771946
    11068.068600       0.775694
    11080.332400       0.779420
    11092.623400       0.783124
    11104.941700       0.786806
    11117.287400       0.790466
    11129.660500       0.794103
    11142.061300       0.797717
    11154.489700       0.801307
    11166.945800       0.804872
    11179.429800       0.808414
    11191.941800       0.811931
    11204.481800       0.815422
    11217.049900       0.818889
    11229.646300       0.822329
    11242.270900       0.825743
    11254.924000       0.829131
    11267.605600       0.832492
    11280.315800       0.835825
    11293.054800       0.839131
    11305.822500       0.842409
    11318.619100       0.845660
    11331.444800       0.848881
    11344.299500       0.852074
    11357.183400       0.855238
    11370.096600       0.858372
    11383.039300       0.861477
    11396.011400       0.864552
    11409.013100       0.867597
    11422.044500       0.870611
    11435.105800       0.873594
    11448.196900       0.876546
    11461.318100       0.879467
    11474.469300       0.882357
    11487.650800       0.885215
    11500.862600       0.888040
    11514.104800       0.890834
    11527.377500       0.893595
    11540.680900       0.896323
    11554.015000       0.899018
    11567.380000       0.901680
    11580.775900       0.904309
    11594.202900       0.906904
    11607.661100       0.909466
    11621.150500       0.911994
    11634.671300       0.914487
    11648.223600       0.916946
    11661.807600       0.919371
    11675.423200       0.921761
    11689.070700       0.924117
    11702.750100       0.926437
    11716.461600       0.928723
    11730.205300       0.930973
    11743.981200       0.933188
    11757.789500       0.935367
    11771.630400       0.937511
    11785.503800       0.939619
    11799.410000       0.941692
    11813.349100       0.943728
    11827.321100       0.945729
    11841.326200       0.947693
    11855.364600       0.949621
    11869.436200       0.951513
    11883.541300       0.953369
    11897.680000       0.955188
    11911.852300       0.956971
    11926.058400       0.958717
    11940.298500       0.960427
    11954.572600       0.962100
    11968.880900       0.963736
    11983.223500       0.965336
    11997.600500       0.966899
    12012.012000       0.968426
    12026.458200       0.969915
    12040.939200       0.971369
    12055.455100       0.972785
    12070.006000       0.974165
    12084.592100       0.975507
    12099.213600       0.976814
    12113.870400       0.978083
    12128.562800       0.979316
    12143.290800       0.980513
    12158.054700       0.981672
    12172.854500       0.982796
    12187.690400       0.983882
    12202.562500       0.984933
    12217.471000       0.985947
    12232.415900       0.986925
    12247.397400       0.987866
    12262.415700       0.988772
    12277.470800       0.989641
    12292.563000       0.990474
    12307.692300       0.991272
    12322.858900       0.992034
    12338.062900       0.992760
    12353.304500       0.993450
    12368.583800       0.994106
    12383.900900       0.994725
    12399.256000       0.995310
    12414.649300       0.995859
    12430.080800       0.996374
    12445.550700       0.996854
    12461.059200       0.997299
    12476.606400       0.997709
    12492.192400       0.998085
    12507.817400       0.998427
    12523.481500       0.998735
    12539.185000       0.999009
    12554.927800       0.999249
    12570.710200       0.999455
    12586.532400       0.999629
    12602.394500       0.999769
    12618.296500       0.999876
    12634.238800       0.999950
    12650.221400       0.999991
    12666.244500       1.000000
    12682.308200       0.999977
    12698.412700       0.999921
    12714.558200       0.999834
    12730.744700       0.999715
    12746.972600       0.999565
    12763.241900       0.999383
    12779.552700       0.999171
    12795.905300       0.998927
    12812.299800       0.998653
    12828.736400       0.998349
    12845.215200       0.998014
    12861.736300       0.997650
    12878.300100       0.997256
    12894.906500       0.996833
    12911.555800       0.996380
    12928.248200       0.995899
    12944.983800       0.995389
    12961.762800       0.994850
    12978.585300       0.994283
    12995.451600       0.993689
    13012.361700       0.993066
    13029.316000       0.992416
    13046.314400       0.991739
    13063.357300       0.991036
    13080.444700       0.990305
    13097.576900       0.989548
    13114.754100       0.988765
    13131.976400       0.987956
    13149.243900       0.987122
    13166.556900       0.986262
    13183.915600       0.985377
    13201.320100       0.984467
    13218.770700       0.983533
    13236.267400       0.982575
    13253.810500       0.981593
    13271.400100       0.980587
    13289.036500       0.979557
    13306.719900       0.978505
    13324.450400       0.977430
    13342.228200       0.976332
    13360.053400       0.975212
    13377.926400       0.974070
    13395.847300       0.972906
    13413.816200       0.971720
    13431.833400       0.970514
    13449.899100       0.969286
    13468.013500       0.968038
    13486.176700       0.966770
    13504.388900       0.965482
    13522.650400       0.964174
    13540.961400       0.962846
    13559.322000       0.961499
    13577.732500       0.960134
    13596.193100       0.958749
    13614.703900       0.957347
    13633.265200       0.955926
    13651.877100       0.954487
    13670.540000       0.953031
    13689.253900       0.951558
    13708.019200       0.950067
    13726.836000       0.948560
    13745.704500       0.947037
    13764.624900       0.945497
    13783.597500       0.943942
    13802.622500       0.942371
    13821.700100       0.940784
    13840.830400       0.939183
    13860.013900       0.937566
    13879.250500       0.935935
    13898.540700       0.934290
    13917.884500       0.932631
    13937.282200       0.930957
    13956.734100       0.929271
    13976.240400       0.927571
    13995.801300       0.925858
    14015.417000       0.924133
    14035.087700       0.922394
    14054.813800       0.920644
    14074.595400       0.918882
    14094.432700       0.917107
    14114.326000       0.915322
    14134.275600       0.913525
    14154.281700       0.911717
    14174.344400       0.909898
    14194.464200       0.908068
    14214.641100       0.906228
    14234.875400       0.904379
    14255.167500       0.902519
    14275.517500       0.900649
    14295.925700       0.898770
    14316.392300       0.896882
    14336.917600       0.894985
    14357.501800       0.893078
    14378.145200       0.891164
    14398.848100       0.889241
    14419.610700       0.887309
    14440.433200       0.885370
    14461.316000       0.883422
    14482.259200       0.881468
    14503.263200       0.879505
    14524.328200       0.877536
    14545.454500       0.875559
    14566.642400       0.873576
    14587.892000       0.871586
    14609.203800       0.869589
    14630.577900       0.867586
    14652.014700       0.865577
    14673.514300       0.863561
    14695.077100       0.861540
    14716.703500       0.859513
    14738.393500       0.857481
    14760.147600       0.855443
    14781.966000       0.853400
    14803.849000       0.851352
    14825.796900       0.849299
    14847.809900       0.847241
    14869.888500       0.845178
    14892.032800       0.843111
    14914.243100       0.841039
    14936.519800       0.838963
    14958.863100       0.836883
    14981.273400       0.834799
    15003.750900       0.832711
    15026.296000       0.830619
    15048.909000       0.828523
    15071.590100       0.826423
    15094.339600       0.824320
    15117.158000       0.822214
    15140.045400       0.820104
    15163.002300       0.817991
    15186.028900       0.815875
    15209.125500       0.813755
    15232.292500       0.811633
    15255.530100       0.809507
    15278.838800       0.807379
    15302.218800       0.805248
    15325.670500       0.803114
    15349.194200       0.800977
    15372.790200       0.798838
    15396.458800       0.796696
    15420.200500       0.794552
    15444.015400       0.792405
    15467.904100       0.790256
    15491.866800       0.788104
    15515.903800       0.785950
    15540.015500       0.783793
    15564.202300       0.781634
    15588.464500       0.779473
    15612.802500       0.777310
    15637.216600       0.775144
    15661.707100       0.772976
    15686.274500       0.770806
    15710.919100       0.768634
    15735.641200       0.766459
    15760.441300       0.764283
    15785.319700       0.762104
    15810.276700       0.759923
    15835.312700       0.757739
    15860.428200       0.755554
    15885.623500       0.753366
    15910.899000       0.751176
    15936.255000       0.748983
    15961.691900       0.746788
    15987.210200       0.744591
    16012.810200       0.742392
    16038.492400       0.740190
    16064.257000       0.737986
    16090.104600       0.735780
    16116.035500       0.733571
    16142.050000       0.731359
    16168.148700       0.729145
    16194.332000       0.726928
    16220.600200       0.724709
    16246.953700       0.722486
    16273.393000       0.720261
    16299.918500       0.718034
    16326.530600       0.715803
    16353.229800       0.713570
    16380.016400       0.711333
    16406.890900       0.709093
    16433.853700       0.706851
    16460.905300       0.704605
    16488.046200       0.702356
    16515.276600       0.700103
    16542.597200       0.697848
    16570.008300       0.695588
    16597.510400       0.693326
    16625.103900       0.691059
    16652.789300       0.688789
    16680.567100       0.686515
    16708.437800       0.684237
    16736.401700       0.681956
    16764.459300       0.679670
    16792.611300       0.677380
    16820.857900       0.675086
    16849.199700       0.672788
    16877.637100       0.670485
    16906.170800       0.668178
    16934.801000       0.665866
    16963.528400       0.663550
    16992.353400       0.661229
    17021.276600       0.658903
    17050.298400       0.656573
    17079.419300       0.654237
    17108.639900       0.651896
    17137.960600       0.649550
    17167.382000       0.647199
    17196.904600       0.644842
    17226.528900       0.642480
    17256.255400       0.640113
    17286.084700       0.637740
    17316.017300       0.635361
    17346.053800       0.632976
    17376.194600       0.630585
    17406.440400       0.628189
    17436.791600       0.625786
    17467.248900       0.623377
    17497.812800       0.620962
    17528.483800       0.618540
    17559.262500       0.616112
    17590.149500       0.613678
    17621.145400       0.611237
    17652.250700       0.608789
    17683.466000       0.606334
    17714.791900       0.603873
    17746.228900       0.601404
    17777.777800       0.598929
    17809.439000       0.596446
    17841.213200       0.593957
    17873.101000       0.591459
    17905.103000       0.588955
    17937.219700       0.586443
    17969.451900       0.583924
    18001.800200       0.581397
    18034.265100       0.578863
    18066.847300       0.576321
    18099.547500       0.573771
    18132.366300       0.571214
    18165.304300       0.568648
    18198.362100       0.566075
    18231.540600       0.563494
    18264.840200       0.560904
    18298.261700       0.558307
    18331.805700       0.555702
    18365.472900       0.553088
    18399.264000       0.550466
    18433.179700       0.547836
    18467.220700       0.545198
    18501.387600       0.542552
    18535.681200       0.539897
    18570.102100       0.537234
    18604.651200       0.534562
    18639.329000       0.531883
    18674.136300       0.529194
    18709.073900       0.526498
    18744.142500       0.523793
    18779.342700       0.521079
    18814.675400       0.518357
    18850.141400       0.515627
    18885.741300       0.512889
    18921.475900       0.510142
    18957.346000       0.507386
    18993.352300       0.504623
    19029.495700       0.501851
    19065.776900       0.499070
    19102.196800       0.496282
    19138.756000       0.493485
    19175.455400       0.490680
    19212.295900       0.487866
    19249.278200       0.485045
    19286.403100       0.482216
    19323.671500       0.479378
    19361.084200       0.476533
    19398.642100       0.473680
    19436.346000       0.470819
    19474.196700       0.467950
    19512.195100       0.465073
    19550.342100       0.462189
    19588.638600       0.459297
    19627.085400       0.456398
    19665.683400       0.453492
    19704.433500       0.450578
    19743.336600       0.447658
    19782.393700       0.444730
    19821.605600       0.441796
    19860.973200       0.438854
    19900.497500       0.435906
    19940.179500       0.432952
    19980.020000       0.429991
    20020.020000       0.427024
    20060.180500       0.424050
    20100.502500       0.421071
    20140.986900       0.418086
    20181.634700       0.415095
    20222.446900       0.412099
    20263.424500       0.409097
    20304.568500       0.406090
    20345.880000       0.403079
    20387.359800       0.400062
    20429.009200       0.397041
    20470.829100       0.394015
    20512.820500       0.390985
    20554.984600       0.387951
    20597.322300       0.384913
    20639.834900       0.381871
    20682.523300       0.378826
    20725.388600       0.375778
    20768.432000       0.372727
    20811.654500       0.369673
    20855.057400       0.366616
    20898.641600       0.363557
    20942.408400       0.360496
    20986.358900       0.357433
    21030.494200       0.354369
    21074.815600       0.351303
    21119.324200       0.348236
    21164.021200       0.345168
    21208.907700       0.342100
    21253.985100       0.339031
    21299.254500       0.335962
    21344.717200       0.332893
    21390.374300       0.329825
    21436.227200       0.326758
    21482.277100       0.323691
    21528.525300       0.320626
    21574.973000       0.317563
    21621.621600       0.314501
    21668.472400       0.311442
    21715.526600       0.308385
    21762.785600       0.305331
    21810.250800       0.302280
    21857.923500       0.299233
    21905.805000       0.296189
    21953.896800       0.293149
    22002.200200       0.290114
    22050.716600       0.287083
    22099.447500       0.284057
    22148.394200       0.281036
    22197.558300       0.278021
    22246.941000       0.275012
    22296.544000       0.272009
    22346.368700       0.269013
    22396.416600       0.266023
    22446.689100       0.263041
    22497.187900       0.260066
    22547.914300       0.257100
    22598.870100       0.254141
    22650.056600       0.251191
    22701.475600       0.248249
    22753.128600       0.245317
    22805.017100       0.242395
    22857.142900       0.239482
    22909.507400       0.236579
    22962.112500       0.233687
    23014.959700       0.230805
    23068.050700       0.227935
    23121.387300       0.225076
    23174.971000       0.222229
    23228.803700       0.219394
    23282.887100       0.216571
    23337.222900       0.213761
    23391.812900       0.210964
    23446.658900       0.208180
    23501.762600       0.205410
    23557.126000       0.202653
    23612.750900       0.199911
    23668.639100       0.197184
    23724.792400       0.194471
    23781.212800       0.191773
    23837.902300       0.189090
    23894.862600       0.186424
    23952.095800       0.183773
    24009.603800       0.181138
    24067.388700       0.178519
    24125.452400       0.175918
    24183.796900       0.173333
    24242.424200       0.170765
    24301.336600       0.168215
    24360.535900       0.165682
    24420.024400       0.163167
    24479.804200       0.160670
    24539.877300       0.158191
    24600.246000       0.155731
    24660.912500       0.153289
    24721.878900       0.150866
    24783.147500       0.148461
    24844.720500       0.146076
    24906.600200       0.143711
    24968.789000       0.141364
    25031.289100       0.139037
    25094.102900       0.136730
    25157.232700       0.134442
    25220.681000       0.132174
    25284.450100       0.129926
    25348.542500       0.127698
    25412.960600       0.125490
    25477.707000       0.123301
