          14  , Jan 12th 2012 http://fy3.satellite.cma.gov.cn/ArssEn/Download/FY3A_calibration_info_params.rar
Number of data points:
116
Wavenumber (cm-1)   Filter response
     2136.752000       0.002310
     2137.666000       0.001374
     2138.580000       0.002267
     2139.496000       0.002710
     2140.411000       0.003147
     2141.328000       0.001139
     2142.245000       0.003849
     2143.163000       0.003594
     2144.082000       0.003730
     2145.002000       0.004685
     2145.923000       0.005032
     2146.844000       0.005916
     2147.766000       0.004505
     2148.689000       0.005482
     2149.613000       0.005605
     2150.538000       0.007258
     2151.463000       0.011433
     2152.389000       0.009582
     2153.316000       0.010892
     2154.244000       0.009377
     2155.172000       0.011108
     2156.102000       0.012936
     2157.032000       0.012899
     2157.963000       0.018301
     2158.895000       0.021231
     2159.827000       0.022886
     2160.761000       0.024994
     2161.695000       0.027971
     2162.630000       0.031712
     2163.565000       0.038972
     2164.502000       0.045263
     2165.439000       0.052239
     2166.378000       0.063697
     2167.317000       0.074298
     2168.257000       0.090052
     2169.198000       0.103320
     2170.139000       0.125527
     2171.081000       0.149920
     2172.024000       0.173256
     2172.968000       0.209995
     2173.913000       0.250962
     2174.859000       0.284921
     2175.805000       0.335610
     2176.753000       0.393527
     2177.700000       0.457692
     2178.649000       0.528592
     2179.599000       0.592007
     2180.550000       0.661972
     2181.501000       0.721853
     2182.453000       0.773871
     2183.406000       0.824400
     2184.360000       0.862326
     2185.315000       0.891543
     2186.270000       0.911824
     2187.227000       0.931199
     2188.184000       0.946064
     2189.142000       0.963457
     2190.101000       0.975091
     2191.060000       0.993959
     2192.021000       0.996526
     2192.982000       0.996638
     2193.945000       1.000000
     2194.908000       0.978141
     2195.872000       0.940934
     2196.836000       0.887082
     2197.802000       0.815679
     2198.769000       0.735876
     2199.736000       0.655225
     2200.704000       0.567199
     2201.673000       0.489080
     2202.643000       0.412966
     2203.614000       0.351016
     2204.586000       0.292438
     2205.558000       0.245335
     2206.531000       0.207897
     2207.505000       0.172921
     2208.481000       0.147550
     2209.457000       0.121335
     2210.433000       0.102056
     2211.411000       0.086790
     2212.389000       0.076164
     2213.369000       0.066866
     2214.349000       0.056793
     2215.330000       0.049509
     2216.312000       0.041626
     2217.295000       0.037864
     2218.279000       0.029284
     2219.263000       0.028763
     2220.249000       0.032496
     2221.235000       0.024827
     2222.222000       0.018007
     2223.210000       0.017522
     2224.199000       0.016860
     2225.189000       0.016319
     2226.180000       0.012929
     2227.172000       0.012325
     2228.164000       0.007512
     2229.157000       0.011669
     2230.152000       0.012929
     2231.147000       0.010616
     2232.143000       0.010881
     2233.140000       0.009413
     2234.138000       0.009166
     2235.136000       0.002575
     2236.136000       0.006192
     2237.136000       0.004196
     2238.138000       0.003804
     2239.140000       0.002155
     2240.143000       0.008000
     2241.147000       0.003091
     2242.152000       0.004930
     2243.158000       0.004350
     2244.165000       0.002749
     2245.173000       0.003617
     2246.181000       0.005752
     2247.191000       0.001796
