   5  ,noaa_14_hirs_05.flt
Number of data points:
101
Wavenumber (cm-1)   Filter response
      679.350000       0.000000
      680.150000       0.000000
      680.950000       0.000000
      681.740000       0.000000
      682.540000       0.000000
      683.340000       0.000000
      684.140000       0.000000
      684.940000       0.000000
      685.740000       0.000000
      686.530000       0.000000
      687.330000       0.000000
      688.140000       0.000000
      688.940000       0.000000
      689.740000       0.000000
      690.540000       0.000000
      691.340000       0.000000
      692.130000       0.000000
      692.930000       0.000000
      693.730000       0.001741
      694.530000       0.003853
      695.320000       0.007079
      696.120000       0.009352
      696.920000       0.012416
      697.720000       0.016289
      698.510000       0.022753
      699.310000       0.032116
      700.080000       0.041545
      700.880000       0.060012
      701.670000       0.088709
      702.410000       0.118770
      703.200000       0.164160
      703.960000       0.230000
      704.730000       0.310020
      705.500000       0.402790
      706.240000       0.494420
      706.980000       0.593790
      707.750000       0.684100
      708.480000       0.760190
      709.260000       0.819080
      710.020000       0.866780
      710.800000       0.899670
      711.590000       0.928560
      712.380000       0.949080
      713.170000       0.964690
      713.960000       0.978750
      714.760000       0.986410
      715.550000       0.995300
      716.350000       0.999150
      717.140000       1.000000
      717.950000       0.989950
      718.750000       0.969530
      719.600000       0.919830
      720.400000       0.860130
      721.260000       0.752900
      722.100000       0.635850
      722.960000       0.499940
      723.830000       0.389210
      724.650000       0.285270
      725.470000       0.205820
      726.280000       0.143150
      727.120000       0.099309
      727.920000       0.071758
      728.730000       0.051026
      729.530000       0.035727
      730.330000       0.024674
      731.130000       0.015913
      731.930000       0.012863
      732.730000       0.009009
      733.540000       0.005882
      734.340000       0.001166
      735.140000       0.000000
      735.950000       0.000000
      736.750000       0.000000
      737.550000       0.000000
      738.350000       0.000000
      739.150000       0.000000
      739.910000       0.000000
      740.720000       0.000000
      741.530000       0.000000
      742.340000       0.000000
      743.150000       0.000000
      743.960000       0.000000
      744.770000       0.000000
      745.580000       0.000000
      746.390000       0.000000
      747.200000       0.000000
      748.010000       0.000000
      748.820000       0.000000
      749.630000       0.000000
      750.440000       0.000000
      751.250000       0.000000
      752.070000       0.000000
      752.880000       0.000000
      753.690000       0.000000
      754.500000       0.000000
      755.310000       0.000000
      756.120000       0.000000
      756.930000       0.000000
      757.740000       0.000000
      758.550000       0.000000
      759.360000       0.000000
