8,   8, MVIRI VIS channel from srf_MET6_1997348_1997349_1801-Release_S10EL_10.dat
Number of data points:
750
Wavenumber (cm-1)   Filter response
     8760.403000       0.000000
     8768.084200       0.000000
     8775.778900       0.000000
     8783.487000       0.000001
     8791.208800       0.000004
     8798.944100       0.000009
     8806.693100       0.000017
     8814.455700       0.000028
     8822.232000       0.000043
     8830.022100       0.000063
     8837.825900       0.000088
     8845.643500       0.000120
     8853.475000       0.000159
     8861.320300       0.000205
     8869.179600       0.000260
     8877.052800       0.000324
     8884.940000       0.000398
     8892.841300       0.000483
     8900.756600       0.000579
     8908.686000       0.000687
     8916.629500       0.000808
     8924.587200       0.000943
     8932.559200       0.001092
     8940.545400       0.001257
     8948.545900       0.001438
     8956.560700       0.001635
     8964.589900       0.001851
     8972.633500       0.002084
     8980.691500       0.002337
     8988.764000       0.002610
     8996.851100       0.002904
     9004.952700       0.003219
     9013.068900       0.003556
     9021.199800       0.003917
     9029.345400       0.004302
     9037.505600       0.004711
     9045.680700       0.005146
     9053.870500       0.005607
     9062.075200       0.006095
     9070.294800       0.006611
     9078.529300       0.007155
     9086.778700       0.007728
     9095.043200       0.008331
     9103.322700       0.008965
     9111.617300       0.009631
     9119.927000       0.010328
     9128.251900       0.011058
     9136.592100       0.011822
     9144.947400       0.012620
     9153.318100       0.013452
     9161.704100       0.014320
     9170.105500       0.015225
     9178.522300       0.016166
     9186.954500       0.017144
     9195.402300       0.018160
     9203.865600       0.019215
     9212.344500       0.020310
     9220.839100       0.021444
     9229.349300       0.022618
     9237.875300       0.023833
     9246.417000       0.025090
     9254.974500       0.026388
     9263.547900       0.027729
     9272.137200       0.029113
     9280.742500       0.030540
     9289.363700       0.032011
     9298.000900       0.033526
     9306.654300       0.035086
     9315.323700       0.036691
     9324.009300       0.038342
     9332.711200       0.040039
     9341.429200       0.041781
     9350.163600       0.043571
     9358.914400       0.045407
     9367.681500       0.047291
     9376.465100       0.049222
     9385.265100       0.051201
     9394.081700       0.053228
     9402.914900       0.055303
     9411.764700       0.057427
     9420.631200       0.059600
     9429.514400       0.061822
     9438.414300       0.064093
     9447.331100       0.066413
     9456.264800       0.068782
     9465.215300       0.071202
     9474.182900       0.073670
     9483.167400       0.076189
     9492.169000       0.078757
     9501.187600       0.081375
     9510.223500       0.084043
     9519.276500       0.086761
     9528.346800       0.089529
     9537.434400       0.092347
     9546.539400       0.095214
     9555.661700       0.098131
     9564.801500       0.101098
     9573.958800       0.104115
     9583.133700       0.107181
     9592.326100       0.110297
     9601.536200       0.113462
     9610.764100       0.116675
     9620.009600       0.119938
     9629.273000       0.123250
     9638.554200       0.126610
     9647.853400       0.130019
     9657.170400       0.133475
     9666.505600       0.136979
     9675.858700       0.140531
     9685.230000       0.144130
     9694.619500       0.147776
     9704.027200       0.151469
     9713.453100       0.155208
     9722.897400       0.158993
     9732.360100       0.162823
     9741.841200       0.166699
     9751.340800       0.170620
     9760.859000       0.174585
     9770.395700       0.178594
     9779.951100       0.182647
     9789.525200       0.186743
     9799.118100       0.190881
     9808.729800       0.195062
     9818.360300       0.199284
     9828.009800       0.203548
     9837.678300       0.207852
     9847.365800       0.212197
     9857.072400       0.216581
     9866.798200       0.221004
     9876.543200       0.225466
     9886.307500       0.229966
     9896.091000       0.234503
     9905.894000       0.239077
     9915.716400       0.243687
     9925.558300       0.248333
     9935.419800       0.253014
     9945.300800       0.257729
     9955.201600       0.262478
     9965.122100       0.267260
     9975.062300       0.272075
     9985.022500       0.276921
     9995.002500       0.281799
    10005.002500       0.286706
    10015.022500       0.291644
    10025.062700       0.296610
    10035.122900       0.301605
    10045.203400       0.306627
    10055.304200       0.311677
    10065.425300       0.316752
    10075.566800       0.321853
    10085.728700       0.326979
    10095.911200       0.332129
    10106.114200       0.337301
    10116.337900       0.342497
    10126.582300       0.347713
    10136.847400       0.352951
    10147.133400       0.358210
    10157.440300       0.363487
    10167.768200       0.368783
    10178.117000       0.374097
    10188.487000       0.379428
    10198.878100       0.384776
    10209.290500       0.390139
    10219.724100       0.395516
    10230.179000       0.400908
    10240.655400       0.406313
    10251.153300       0.411730
    10261.672700       0.417159
    10272.213700       0.422598
    10282.776300       0.428047
    10293.360800       0.433506
    10303.967000       0.438973
    10314.595200       0.444447
    10325.245200       0.449928
    10335.917300       0.455415
    10346.611500       0.460907
    10357.327800       0.466404
    10368.066400       0.471904
    10378.827200       0.477406
    10389.610400       0.482911
    10400.416000       0.488417
    10411.244100       0.493924
    10422.094800       0.499429
    10432.968200       0.504934
    10443.864200       0.510437
    10454.783100       0.515936
    10465.724800       0.521433
    10476.689400       0.526924
    10487.677000       0.532411
    10498.687700       0.537892
    10509.721500       0.543366
    10520.778500       0.548833
    10531.858900       0.554291
    10542.962600       0.559741
    10554.089700       0.565180
    10565.240400       0.570609
    10576.414600       0.576027
    10587.612500       0.581433
    10598.834100       0.586827
    10610.079600       0.592207
    10621.348900       0.597572
    10632.642200       0.602923
    10643.959600       0.608258
    10655.301000       0.613577
    10666.666700       0.618879
    10678.056600       0.624163
    10689.470900       0.629428
    10700.909600       0.634675
    10712.372800       0.639902
    10723.860600       0.645108
    10735.373100       0.650293
    10746.910300       0.655457
    10758.472300       0.660598
    10770.059200       0.665715
    10781.671200       0.670809
    10793.308100       0.675879
    10804.970300       0.680924
    10816.657700       0.685943
    10828.370300       0.690936
    10840.108400       0.695902
    10851.871900       0.700841
    10863.661100       0.705752
    10875.475800       0.710634
    10887.316300       0.715486
    10899.182600       0.720309
    10911.074700       0.725103
    10922.992900       0.729865
    10934.937100       0.734595
    10946.907500       0.739294
    10958.904100       0.743960
    10970.927000       0.748594
    10982.976400       0.753194
    10995.052200       0.757760
    11007.154700       0.762292
    11019.283700       0.766789
    11031.439600       0.771250
    11043.622300       0.775676
    11055.832000       0.780065
    11068.068600       0.784418
    11080.332400       0.788734
    11092.623400       0.793011
    11104.941700       0.797251
    11117.287400       0.801453
    11129.660500       0.805616
    11142.061300       0.809739
    11154.489700       0.813824
    11166.945800       0.817868
    11179.429800       0.821872
    11191.941800       0.825835
    11204.481800       0.829757
    11217.049900       0.833638
    11229.646300       0.837478
    11242.270900       0.841275
    11254.924000       0.845031
    11267.605600       0.848743
    11280.315800       0.852413
    11293.054800       0.856040
    11305.822500       0.859624
    11318.619100       0.863164
    11331.444800       0.866660
    11344.299500       0.870113
    11357.183400       0.873521
    11370.096600       0.876884
    11383.039300       0.880203
    11396.011400       0.883477
    11409.013100       0.886706
    11422.044500       0.889889
    11435.105800       0.893028
    11448.196900       0.896120
    11461.318100       0.899167
    11474.469300       0.902168
    11487.650800       0.905123
    11500.862600       0.908032
    11514.104800       0.910895
    11527.377500       0.913712
    11540.680900       0.916482
    11554.015000       0.919206
    11567.380000       0.921883
    11580.775900       0.924514
    11594.202900       0.927097
    11607.661100       0.929635
    11621.150500       0.932125
    11634.671300       0.934569
    11648.223600       0.936966
    11661.807600       0.939317
    11675.423200       0.941620
    11689.070700       0.943877
    11702.750100       0.946087
    11716.461600       0.948251
    11730.205300       0.950367
    11743.981200       0.952438
    11757.789500       0.954461
    11771.630400       0.956438
    11785.503800       0.958369
    11799.410000       0.960253
    11813.349100       0.962092
    11827.321100       0.963884
    11841.326200       0.965630
    11855.364600       0.967330
    11869.436200       0.968984
    11883.541300       0.970593
    11897.680000       0.972156
    11911.852300       0.973674
    11926.058400       0.975147
    11940.298500       0.976574
    11954.572600       0.977957
    11968.880900       0.979295
    11983.223500       0.980589
    11997.600500       0.981838
    12012.012000       0.983043
    12026.458200       0.984205
    12040.939200       0.985322
    12055.455100       0.986396
    12070.006000       0.987428
    12084.592100       0.988416
    12099.213600       0.989361
    12113.870400       0.990264
    12128.562800       0.991125
    12143.290800       0.991944
    12158.054700       0.992721
    12172.854500       0.993457
    12187.690400       0.994152
    12202.562500       0.994806
    12217.471000       0.995419
    12232.415900       0.995992
    12247.397400       0.996526
    12262.415700       0.997020
    12277.470800       0.997475
    12292.563000       0.997891
    12307.692300       0.998268
    12322.858900       0.998607
    12338.062900       0.998908
    12353.304500       0.999172
    12368.583800       0.999399
    12383.900900       0.999589
    12399.256000       0.999742
    12414.649300       0.999860
    12430.080800       0.999942
    12445.550700       0.999988
    12461.059200       1.000000
    12476.606400       0.999977
    12492.192400       0.999921
    12507.817400       0.999830
    12523.481500       0.999706
    12539.185000       0.999550
    12554.927800       0.999361
    12570.710200       0.999140
    12586.532400       0.998888
    12602.394500       0.998604
    12618.296500       0.998290
    12634.238800       0.997945
    12650.221400       0.997571
    12666.244500       0.997167
    12682.308200       0.996734
    12698.412700       0.996273
    12714.558200       0.995784
    12730.744700       0.995267
    12746.972600       0.994723
    12763.241900       0.994152
    12779.552700       0.993555
    12795.905300       0.992933
    12812.299800       0.992285
    12828.736400       0.991613
    12845.215200       0.990916
    12861.736300       0.990195
    12878.300100       0.989451
    12894.906500       0.988684
    12911.555800       0.987895
    12928.248200       0.987084
    12944.983800       0.986252
    12961.762800       0.985398
    12978.585300       0.984524
    12995.451600       0.983631
    13012.361700       0.982717
    13029.316000       0.981785
    13046.314400       0.980834
    13063.357300       0.979866
    13080.444700       0.978880
    13097.576900       0.977877
    13114.754100       0.976857
    13131.976400       0.975822
    13149.243900       0.974771
    13166.556900       0.973705
    13183.915600       0.972624
    13201.320100       0.971530
    13218.770700       0.970422
    13236.267400       0.969301
    13253.810500       0.968167
    13271.400100       0.967022
    13289.036500       0.965865
    13306.719900       0.964697
    13324.450400       0.963519
    13342.228200       0.962330
    13360.053400       0.961132
    13377.926400       0.959925
    13395.847300       0.958709
    13413.816200       0.957485
    13431.833400       0.956254
    13449.899100       0.955015
    13468.013500       0.953770
    13486.176700       0.952519
    13504.388900       0.951262
    13522.650400       0.950000
    13540.961400       0.948733
    13559.322000       0.947462
    13577.732500       0.946187
    13596.193100       0.944908
    13614.703900       0.943627
    13633.265200       0.942344
    13651.877100       0.941058
    13670.540000       0.939771
    13689.253900       0.938483
    13708.019200       0.937195
    13726.836000       0.935906
    13745.704500       0.934618
    13764.624900       0.933330
    13783.597500       0.932043
    13802.622500       0.930758
    13821.700100       0.929476
    13840.830400       0.928195
    13860.013900       0.926917
    13879.250500       0.925643
    13898.540700       0.924373
    13917.884500       0.923106
    13937.282200       0.921844
    13956.734100       0.920587
    13976.240400       0.919335
    13995.801300       0.918089
    14015.417000       0.916849
    14035.087700       0.915615
    14054.813800       0.914388
    14074.595400       0.913169
    14094.432700       0.911956
    14114.326000       0.910752
    14134.275600       0.909556
    14154.281700       0.908369
    14174.344400       0.907190
    14194.464200       0.906021
    14214.641100       0.904861
    14234.875400       0.903711
    14255.167500       0.902572
    14275.517500       0.901443
    14295.925700       0.900324
    14316.392300       0.899217
    14336.917600       0.898122
    14357.501800       0.897038
    14378.145200       0.895966
    14398.848100       0.894906
    14419.610700       0.893859
    14440.433200       0.892824
    14461.316000       0.891803
    14482.259200       0.890795
    14503.263200       0.889800
    14524.328200       0.888819
    14545.454500       0.887852
    14566.642400       0.886900
    14587.892000       0.885961
    14609.203800       0.885037
    14630.577900       0.884128
    14652.014700       0.883234
    14673.514300       0.882355
    14695.077100       0.881492
    14716.703500       0.880644
    14738.393500       0.879811
    14760.147600       0.878994
    14781.966000       0.878194
    14803.849000       0.877409
    14825.796900       0.876640
    14847.809900       0.875888
    14869.888500       0.875152
    14892.032800       0.874432
    14914.243100       0.873729
    14936.519800       0.873043
    14958.863100       0.872373
    14981.273400       0.871720
    15003.750900       0.871084
    15026.296000       0.870465
    15048.909000       0.869863
    15071.590100       0.869278
    15094.339600       0.868709
    15117.158000       0.868158
    15140.045400       0.867624
    15163.002300       0.867106
    15186.028900       0.866606
    15209.125500       0.866122
    15232.292500       0.865656
    15255.530100       0.865206
    15278.838800       0.864773
    15302.218800       0.864357
    15325.670500       0.863957
    15349.194200       0.863574
    15372.790200       0.863207
    15396.458800       0.862857
    15420.200500       0.862523
    15444.015400       0.862206
    15467.904100       0.861904
    15491.866800       0.861618
    15515.903800       0.861348
    15540.015500       0.861094
    15564.202300       0.860855
    15588.464500       0.860631
    15612.802500       0.860423
    15637.216600       0.860229
    15661.707100       0.860050
    15686.274500       0.859886
    15710.919100       0.859735
    15735.641200       0.859599
    15760.441300       0.859477
    15785.319700       0.859368
    15810.276700       0.859272
    15835.312700       0.859189
    15860.428200       0.859119
    15885.623500       0.859062
    15910.899000       0.859016
    15936.255000       0.858983
    15961.691900       0.858961
    15987.210200       0.858950
    16012.810200       0.858950
    16038.492400       0.858960
    16064.257000       0.858981
    16090.104600       0.859011
    16116.035500       0.859051
    16142.050000       0.859100
    16168.148700       0.859158
    16194.332000       0.859223
    16220.600200       0.859297
    16246.953700       0.859378
    16273.393000       0.859466
    16299.918500       0.859560
    16326.530600       0.859661
    16353.229800       0.859767
    16380.016400       0.859879
    16406.890900       0.859995
    16433.853700       0.860115
    16460.905300       0.860239
    16488.046200       0.860366
    16515.276600       0.860497
    16542.597200       0.860629
    16570.008300       0.860763
    16597.510400       0.860898
    16625.103900       0.861033
    16652.789300       0.861169
    16680.567100       0.861304
    16708.437800       0.861438
    16736.401700       0.861571
    16764.459300       0.861701
    16792.611300       0.861829
    16820.857900       0.861953
    16849.199700       0.862073
    16877.637100       0.862188
    16906.170800       0.862298
    16934.801000       0.862402
    16963.528400       0.862500
    16992.353400       0.862591
    17021.276600       0.862673
    17050.298400       0.862748
    17079.419300       0.862813
    17108.639900       0.862868
    17137.960600       0.862913
    17167.382000       0.862946
    17196.904600       0.862968
    17226.528900       0.862978
    17256.255400       0.862974
    17286.084700       0.862956
    17316.017300       0.862923
    17346.053800       0.862875
    17376.194600       0.862811
    17406.440400       0.862730
    17436.791600       0.862631
    17467.248900       0.862515
    17497.812800       0.862379
    17528.483800       0.862223
    17559.262500       0.862047
    17590.149500       0.861849
    17621.145400       0.861630
    17652.250700       0.861387
    17683.466000       0.861121
    17714.791900       0.860831
    17746.228900       0.860515
    17777.777800       0.860174
    17809.439000       0.859805
    17841.213200       0.859410
    17873.101000       0.858986
    17905.103000       0.858532
    17937.219700       0.858050
    17969.451900       0.857536
    18001.800200       0.856991
    18034.265100       0.856414
    18066.847300       0.855803
    18099.547500       0.855159
    18132.366300       0.854480
    18165.304300       0.853766
    18198.362100       0.853015
    18231.540600       0.852228
    18264.840200       0.851403
    18298.261700       0.850539
    18331.805700       0.849635
    18365.472900       0.848692
    18399.264000       0.847707
    18433.179700       0.846681
    18467.220700       0.845612
    18501.387600       0.844499
    18535.681200       0.843343
    18570.102100       0.842141
    18604.651200       0.840894
    18639.329000       0.839600
    18674.136300       0.838259
    18709.073900       0.836870
    18744.142500       0.835432
    18779.342700       0.833945
    18814.675400       0.832407
    18850.141400       0.830818
    18885.741300       0.829178
    18921.475900       0.827484
    18957.346000       0.825738
    18993.352300       0.823937
    19029.495700       0.822082
    19065.776900       0.820172
    19102.196800       0.818205
    19138.756000       0.816181
    19175.455400       0.814100
    19212.295900       0.811961
    19249.278200       0.809763
    19286.403100       0.807506
    19323.671500       0.805188
    19361.084200       0.802810
    19398.642100       0.800370
    19436.346000       0.797868
    19474.196700       0.795304
    19512.195100       0.792676
    19550.342100       0.789985
    19588.638600       0.787229
    19627.085400       0.784408
    19665.683400       0.781522
    19704.433500       0.778570
    19743.336600       0.775552
    19782.393700       0.772467
    19821.605600       0.769314
    19860.973200       0.766093
    19900.497500       0.762804
    19940.179500       0.759447
    19980.020000       0.756020
    20020.020000       0.752523
    20060.180500       0.748957
    20100.502500       0.745321
    20140.986900       0.741614
    20181.634700       0.737836
    20222.446900       0.733987
    20263.424500       0.730066
    20304.568500       0.726074
    20345.880000       0.722010
    20387.359800       0.717874
    20429.009200       0.713665
    20470.829100       0.709384
    20512.820500       0.705031
    20554.984600       0.700604
    20597.322300       0.696105
    20639.834900       0.691533
    20682.523300       0.686889
    20725.388600       0.682171
    20768.432000       0.677381
    20811.654500       0.672518
    20855.057400       0.667583
    20898.641600       0.662575
    20942.408400       0.657494
    20986.358900       0.652341
    21030.494200       0.647117
    21074.815600       0.641820
    21119.324200       0.636452
    21164.021200       0.631013
    21208.907700       0.625504
    21253.985100       0.619923
    21299.254500       0.614273
    21344.717200       0.608553
    21390.374300       0.602765
    21436.227200       0.596907
    21482.277100       0.590982
    21528.525300       0.584989
    21574.973000       0.578930
    21621.621600       0.572805
    21668.472400       0.566614
    21715.526600       0.560359
    21762.785600       0.554040
    21810.250800       0.547658
    21857.923500       0.541215
    21905.805000       0.534710
    21953.896800       0.528146
    22002.200200       0.521522
    22050.716600       0.514841
    22099.447500       0.508103
    22148.394200       0.501310
    22197.558300       0.494462
    22246.941000       0.487561
    22296.544000       0.480609
    22346.368700       0.473606
    22396.416600       0.466554
    22446.689100       0.459455
    22497.187900       0.452311
    22547.914300       0.445122
    22598.870100       0.437891
    22650.056600       0.430619
    22701.475600       0.423308
    22753.128600       0.415960
    22805.017100       0.408576
    22857.142900       0.401160
    22909.507400       0.393712
    22962.112500       0.386235
    23014.959700       0.378732
    23068.050700       0.371203
    23121.387300       0.363652
    23174.971000       0.356081
    23228.803700       0.348492
    23282.887100       0.340888
    23337.222900       0.333272
    23391.812900       0.325645
    23446.658900       0.318011
    23501.762600       0.310373
    23557.126000       0.302733
    23612.750900       0.295094
    23668.639100       0.287460
    23724.792400       0.279832
    23781.212800       0.272216
    23837.902300       0.264613
    23894.862600       0.257027
    23952.095800       0.249462
    24009.603800       0.241921
    24067.388700       0.234407
    24125.452400       0.226924
    24183.796900       0.219477
    24242.424200       0.212068
    24301.336600       0.204702
    24360.535900       0.197382
    24420.024400       0.190113
    24479.804200       0.182899
    24539.877300       0.175745
    24600.246000       0.168654
    24660.912500       0.161630
    24721.878900       0.154680
    24783.147500       0.147807
    24844.720500       0.141016
    24906.600200       0.134311
    24968.789000       0.127699
    25031.289100       0.121184
    25094.102900       0.114770
    25157.232700       0.108464
    25220.681000       0.102271
    25284.450100       0.096196
    25348.542500       0.090244
    25412.960600       0.084423
    25477.707000       0.078736
