04, NOAA-N AVHRR CHANNEL 04
Number of data points:
1361
Wavenumber (cm-1)   Filter response
      860.000000       0.000000
      860.100000       0.000000
      860.200000       0.000000
      860.300000       0.000000
      860.400000       0.000000
      860.500000       0.000000
      860.600000       0.000000
      860.700000       0.000000
      860.800000       0.000000
      860.900000       0.000000
      861.000000       0.000000
      861.100000       0.000000
      861.200000       0.000000
      861.300000       0.000000
      861.400000       0.000000
      861.500000       0.000000
      861.600000       0.000000
      861.700000       0.000000
      861.800000       0.000000
      861.900000       0.000000
      862.000000       0.000000
      862.100000       0.000000
      862.200000       0.000000
      862.300000       0.000000
      862.400000       0.000000
      862.500000       0.000000
      862.600000       0.000000
      862.700000       0.000000
      862.800000       0.000000
      862.900000       0.000000
      863.000000       0.000000
      863.100000       0.000000
      863.200000       0.000000
      863.300000       0.001000
      863.400000       0.001000
      863.500000       0.001000
      863.600000       0.001000
      863.700000       0.001000
      863.800000       0.001000
      863.900000       0.001000
      864.000000       0.002000
      864.100000       0.002000
      864.200000       0.002000
      864.300000       0.002000
      864.400000       0.002000
      864.500000       0.003000
      864.600000       0.003000
      864.700000       0.003000
      864.800000       0.003000
      864.900000       0.004000
      865.000000       0.004000
      865.100000       0.004000
      865.200000       0.004000
      865.300000       0.004000
      865.400000       0.005000
      865.500000       0.005000
      865.600000       0.005000
      865.700000       0.005000
      865.800000       0.005000
      865.900000       0.005000
      866.000000       0.006000
      866.100000       0.006000
      866.200000       0.006000
      866.300000       0.006000
      866.400000       0.006000
      866.500000       0.006000
      866.600000       0.007000
      866.700000       0.007000
      866.800000       0.007000
      866.900000       0.007000
      867.000000       0.008000
      867.100000       0.008000
      867.200000       0.008000
      867.300000       0.009000
      867.400000       0.009000
      867.500000       0.009000
      867.600000       0.010000
      867.700000       0.010000
      867.800000       0.010000
      867.900000       0.011000
      868.000000       0.011000
      868.100000       0.012000
      868.200000       0.012000
      868.300000       0.013000
      868.400000       0.013000
      868.500000       0.014000
      868.600000       0.014000
      868.700000       0.015000
      868.800000       0.015000
      868.900000       0.016000
      869.000000       0.016000
      869.100000       0.017000
      869.200000       0.017000
      869.300000       0.018000
      869.400000       0.019000
      869.500000       0.019000
      869.600000       0.020000
      869.700000       0.021000
      869.800000       0.021000
      869.900000       0.022000
      870.000000       0.022000
      870.100000       0.023000
      870.200000       0.024000
      870.300000       0.024000
      870.400000       0.025000
      870.500000       0.026000
      870.600000       0.027000
      870.700000       0.027000
      870.800000       0.028000
      870.900000       0.029000
      871.000000       0.030000
      871.100000       0.031000
      871.200000       0.032000
      871.300000       0.033000
      871.400000       0.033000
      871.500000       0.034000
      871.600000       0.035000
      871.700000       0.036000
      871.800000       0.037000
      871.900000       0.039000
      872.000000       0.040000
      872.100000       0.041000
      872.200000       0.042000
      872.300000       0.043000
      872.400000       0.044000
      872.500000       0.046000
      872.600000       0.047000
      872.700000       0.048000
      872.800000       0.050000
      872.900000       0.051000
      873.000000       0.052000
      873.100000       0.054000
      873.200000       0.055000
      873.300000       0.057000
      873.400000       0.058000
      873.500000       0.060000
      873.600000       0.062000
      873.700000       0.063000
      873.800000       0.065000
      873.900000       0.067000
      874.000000       0.069000
      874.100000       0.071000
      874.200000       0.073000
      874.300000       0.075000
      874.400000       0.077000
      874.500000       0.079000
      874.600000       0.081000
      874.700000       0.083000
      874.800000       0.085000
      874.900000       0.088000
      875.000000       0.090000
      875.100000       0.092000
      875.200000       0.095000
      875.300000       0.097000
      875.400000       0.100000
      875.500000       0.102000
      875.600000       0.105000
      875.700000       0.107000
      875.800000       0.110000
      875.900000       0.113000
      876.000000       0.115000
      876.100000       0.118000
      876.200000       0.121000
      876.300000       0.124000
      876.400000       0.127000
      876.500000       0.130000
      876.600000       0.133000
      876.700000       0.136000
      876.800000       0.139000
      876.900000       0.142000
      877.000000       0.145000
      877.100000       0.149000
      877.200000       0.152000
      877.300000       0.156000
      877.400000       0.160000
      877.500000       0.164000
      877.600000       0.167000
      877.700000       0.171000
      877.800000       0.175000
      877.900000       0.179000
      878.000000       0.183000
      878.100000       0.188000
      878.200000       0.192000
      878.300000       0.196000
      878.400000       0.200000
      878.500000       0.204000
      878.600000       0.208000
      878.700000       0.212000
      878.800000       0.217000
      878.900000       0.221000
      879.000000       0.225000
      879.100000       0.229000
      879.200000       0.233000
      879.300000       0.237000
      879.400000       0.241000
      879.500000       0.245000
      879.600000       0.249000
      879.700000       0.253000
      879.800000       0.257000
      879.900000       0.262000
      880.000000       0.266000
      880.100000       0.270000
      880.200000       0.275000
      880.300000       0.279000
      880.400000       0.284000
      880.500000       0.289000
      880.600000       0.294000
      880.700000       0.298000
      880.800000       0.303000
      880.900000       0.308000
      881.000000       0.313000
      881.100000       0.318000
      881.200000       0.324000
      881.300000       0.329000
      881.400000       0.334000
      881.500000       0.339000
      881.600000       0.344000
      881.700000       0.349000
      881.800000       0.354000
      881.900000       0.359000
      882.000000       0.364000
      882.100000       0.369000
      882.200000       0.374000
      882.300000       0.379000
      882.400000       0.384000
      882.500000       0.389000
      882.600000       0.393000
      882.700000       0.398000
      882.800000       0.403000
      882.900000       0.408000
      883.000000       0.412000
      883.100000       0.417000
      883.200000       0.422000
      883.300000       0.426000
      883.400000       0.431000
      883.500000       0.435000
      883.600000       0.440000
      883.700000       0.444000
      883.800000       0.449000
      883.900000       0.453000
      884.000000       0.457000
      884.100000       0.462000
      884.200000       0.466000
      884.300000       0.471000
      884.400000       0.475000
      884.500000       0.479000
      884.600000       0.484000
      884.700000       0.488000
      884.800000       0.493000
      884.900000       0.497000
      885.000000       0.502000
      885.100000       0.506000
      885.200000       0.511000
      885.300000       0.516000
      885.400000       0.520000
      885.500000       0.525000
      885.600000       0.530000
      885.700000       0.534000
      885.800000       0.539000
      885.900000       0.543000
      886.000000       0.548000
      886.100000       0.552000
      886.200000       0.557000
      886.300000       0.561000
      886.400000       0.565000
      886.500000       0.569000
      886.600000       0.573000
      886.700000       0.577000
      886.800000       0.581000
      886.900000       0.584000
      887.000000       0.588000
      887.100000       0.592000
      887.200000       0.595000
      887.300000       0.599000
      887.400000       0.603000
      887.500000       0.606000
      887.600000       0.610000
      887.700000       0.613000
      887.800000       0.617000
      887.900000       0.621000
      888.000000       0.625000
      888.100000       0.629000
      888.200000       0.633000
      888.300000       0.637000
      888.400000       0.641000
      888.500000       0.646000
      888.600000       0.650000
      888.700000       0.654000
      888.800000       0.659000
      888.900000       0.663000
      889.000000       0.667000
      889.100000       0.671000
      889.200000       0.676000
      889.300000       0.679000
      889.400000       0.683000
      889.500000       0.687000
      889.600000       0.690000
      889.700000       0.693000
      889.800000       0.696000
      889.900000       0.698000
      890.000000       0.700000
      890.100000       0.702000
      890.200000       0.704000
      890.300000       0.706000
      890.400000       0.708000
      890.500000       0.710000
      890.600000       0.711000
      890.700000       0.713000
      890.800000       0.714000
      890.900000       0.716000
      891.000000       0.718000
      891.100000       0.720000
      891.200000       0.722000
      891.300000       0.724000
      891.400000       0.727000
      891.500000       0.729000
      891.600000       0.732000
      891.700000       0.735000
      891.800000       0.738000
      891.900000       0.741000
      892.000000       0.745000
      892.100000       0.748000
      892.200000       0.751000
      892.300000       0.754000
      892.400000       0.757000
      892.500000       0.760000
      892.600000       0.763000
      892.700000       0.766000
      892.800000       0.768000
      892.900000       0.771000
      893.000000       0.773000
      893.100000       0.775000
      893.200000       0.776000
      893.300000       0.778000
      893.400000       0.780000
      893.500000       0.781000
      893.600000       0.782000
      893.700000       0.784000
      893.800000       0.785000
      893.900000       0.786000
      894.000000       0.787000
      894.100000       0.789000
      894.200000       0.790000
      894.300000       0.792000
      894.400000       0.793000
      894.500000       0.795000
      894.600000       0.797000
      894.700000       0.799000
      894.800000       0.801000
      894.900000       0.804000
      895.000000       0.806000
      895.100000       0.809000
      895.200000       0.811000
      895.300000       0.813000
      895.400000       0.816000
      895.500000       0.818000
      895.600000       0.821000
      895.700000       0.823000
      895.800000       0.825000
      895.900000       0.827000
      896.000000       0.829000
      896.100000       0.830000
      896.200000       0.832000
      896.300000       0.833000
      896.400000       0.834000
      896.500000       0.835000
      896.600000       0.836000
      896.700000       0.836000
      896.800000       0.837000
      896.900000       0.838000
      897.000000       0.838000
      897.100000       0.839000
      897.200000       0.839000
      897.300000       0.840000
      897.400000       0.841000
      897.500000       0.842000
      897.600000       0.843000
      897.700000       0.844000
      897.800000       0.845000
      897.900000       0.847000
      898.000000       0.848000
      898.100000       0.850000
      898.200000       0.852000
      898.300000       0.854000
      898.400000       0.856000
      898.500000       0.858000
      898.600000       0.860000
      898.700000       0.862000
      898.800000       0.863000
      898.900000       0.865000
      899.000000       0.867000
      899.100000       0.868000
      899.200000       0.870000
      899.300000       0.871000
      899.400000       0.872000
      899.500000       0.873000
      899.600000       0.873000
      899.700000       0.874000
      899.800000       0.874000
      899.900000       0.874000
      900.000000       0.874000
      900.100000       0.874000
      900.200000       0.874000
      900.300000       0.874000
      900.400000       0.874000
      900.500000       0.874000
      900.600000       0.873000
      900.700000       0.873000
      900.800000       0.873000
      900.900000       0.873000
      901.000000       0.873000
      901.100000       0.873000
      901.200000       0.873000
      901.300000       0.874000
      901.400000       0.874000
      901.500000       0.874000
      901.600000       0.875000
      901.700000       0.875000
      901.800000       0.876000
      901.900000       0.877000
      902.000000       0.877000
      902.100000       0.878000
      902.200000       0.879000
      902.300000       0.880000
      902.400000       0.881000
      902.500000       0.882000
      902.600000       0.883000
      902.700000       0.884000
      902.800000       0.885000
      902.900000       0.887000
      903.000000       0.888000
      903.100000       0.889000
      903.200000       0.890000
      903.300000       0.892000
      903.400000       0.893000
      903.500000       0.894000
      903.600000       0.895000
      903.700000       0.896000
      903.800000       0.897000
      903.900000       0.898000
      904.000000       0.899000
      904.100000       0.900000
      904.200000       0.901000
      904.300000       0.901000
      904.400000       0.902000
      904.500000       0.902000
      904.600000       0.902000
      904.700000       0.902000
      904.800000       0.902000
      904.900000       0.902000
      905.000000       0.903000
      905.100000       0.903000
      905.200000       0.903000
      905.300000       0.903000
      905.400000       0.903000
      905.500000       0.903000
      905.600000       0.904000
      905.700000       0.904000
      905.800000       0.905000
      905.900000       0.905000
      906.000000       0.906000
      906.100000       0.907000
      906.200000       0.908000
      906.300000       0.909000
      906.400000       0.910000
      906.500000       0.912000
      906.600000       0.913000
      906.700000       0.914000
      906.800000       0.915000
      906.900000       0.916000
      907.000000       0.917000
      907.100000       0.918000
      907.200000       0.919000
      907.300000       0.920000
      907.400000       0.921000
      907.500000       0.921000
      907.600000       0.921000
      907.700000       0.921000
      907.800000       0.921000
      907.900000       0.921000
      908.000000       0.921000
      908.100000       0.921000
      908.200000       0.921000
      908.300000       0.921000
      908.400000       0.921000
      908.500000       0.920000
      908.600000       0.920000
      908.700000       0.920000
      908.800000       0.921000
      908.900000       0.921000
      909.000000       0.921000
      909.100000       0.922000
      909.200000       0.923000
      909.300000       0.924000
      909.400000       0.925000
      909.500000       0.927000
      909.600000       0.928000
      909.700000       0.929000
      909.800000       0.931000
      909.900000       0.933000
      910.000000       0.934000
      910.100000       0.936000
      910.200000       0.937000
      910.300000       0.938000
      910.400000       0.939000
      910.500000       0.940000
      910.600000       0.941000
      910.700000       0.941000
      910.800000       0.941000
      910.900000       0.941000
      911.000000       0.940000
      911.100000       0.939000
      911.200000       0.938000
      911.300000       0.937000
      911.400000       0.935000
      911.500000       0.934000
      911.600000       0.933000
      911.700000       0.931000
      911.800000       0.930000
      911.900000       0.928000
      912.000000       0.927000
      912.100000       0.926000
      912.200000       0.925000
      912.300000       0.925000
      912.400000       0.925000
      912.500000       0.925000
      912.600000       0.925000
      912.700000       0.926000
      912.800000       0.927000
      912.900000       0.928000
      913.000000       0.929000
      913.100000       0.931000
      913.200000       0.933000
      913.300000       0.934000
      913.400000       0.936000
      913.500000       0.937000
      913.600000       0.939000
      913.700000       0.940000
      913.800000       0.941000
      913.900000       0.942000
      914.000000       0.943000
      914.100000       0.943000
      914.200000       0.943000
      914.300000       0.943000
      914.400000       0.943000
      914.500000       0.942000
      914.600000       0.941000
      914.700000       0.940000
      914.800000       0.938000
      914.900000       0.937000
      915.000000       0.935000
      915.100000       0.934000
      915.200000       0.933000
      915.300000       0.931000
      915.400000       0.930000
      915.500000       0.929000
      915.600000       0.928000
      915.700000       0.927000
      915.800000       0.926000
      915.900000       0.926000
      916.000000       0.926000
      916.100000       0.926000
      916.200000       0.926000
      916.300000       0.926000
      916.400000       0.927000
      916.500000       0.928000
      916.600000       0.929000
      916.700000       0.929000
      916.800000       0.930000
      916.900000       0.931000
      917.000000       0.932000
      917.100000       0.933000
      917.200000       0.934000
      917.300000       0.935000
      917.400000       0.936000
      917.500000       0.937000
      917.600000       0.938000
      917.700000       0.939000
      917.800000       0.939000
      917.900000       0.940000
      918.000000       0.940000
      918.100000       0.941000
      918.200000       0.941000
      918.300000       0.941000
      918.400000       0.942000
      918.500000       0.942000
      918.600000       0.942000
      918.700000       0.943000
      918.800000       0.943000
      918.900000       0.943000
      919.000000       0.943000
      919.100000       0.944000
      919.200000       0.944000
      919.300000       0.944000
      919.400000       0.945000
      919.500000       0.945000
      919.600000       0.945000
      919.700000       0.946000
      919.800000       0.946000
      919.900000       0.947000
      920.000000       0.947000
      920.100000       0.947000
      920.200000       0.948000
      920.300000       0.948000
      920.400000       0.949000
      920.500000       0.949000
      920.600000       0.949000
      920.700000       0.949000
      920.800000       0.950000
      920.900000       0.950000
      921.000000       0.950000
      921.100000       0.950000
      921.200000       0.950000
      921.300000       0.951000
      921.400000       0.951000
      921.500000       0.951000
      921.600000       0.951000
      921.700000       0.951000
      921.800000       0.951000
      921.900000       0.951000
      922.000000       0.951000
      922.100000       0.951000
      922.200000       0.950000
      922.300000       0.950000
      922.400000       0.950000
      922.500000       0.950000
      922.600000       0.950000
      922.700000       0.950000
      922.800000       0.950000
      922.900000       0.949000
      923.000000       0.949000
      923.100000       0.949000
      923.200000       0.949000
      923.300000       0.949000
      923.400000       0.949000
      923.500000       0.948000
      923.600000       0.948000
      923.700000       0.948000
      923.800000       0.948000
      923.900000       0.948000
      924.000000       0.948000
      924.100000       0.948000
      924.200000       0.948000
      924.300000       0.948000
      924.400000       0.948000
      924.500000       0.948000
      924.600000       0.949000
      924.700000       0.949000
      924.800000       0.949000
      924.900000       0.949000
      925.000000       0.950000
      925.100000       0.950000
      925.200000       0.950000
      925.300000       0.951000
      925.400000       0.951000
      925.500000       0.952000
      925.600000       0.952000
      925.700000       0.953000
      925.800000       0.953000
      925.900000       0.954000
      926.000000       0.954000
      926.100000       0.955000
      926.200000       0.956000
      926.300000       0.956000
      926.400000       0.957000
      926.500000       0.958000
      926.600000       0.958000
      926.700000       0.959000
      926.800000       0.959000
      926.900000       0.960000
      927.000000       0.961000
      927.100000       0.961000
      927.200000       0.962000
      927.300000       0.963000
      927.400000       0.963000
      927.500000       0.964000
      927.600000       0.964000
      927.700000       0.965000
      927.800000       0.965000
      927.900000       0.965000
      928.000000       0.966000
      928.100000       0.966000
      928.200000       0.966000
      928.300000       0.967000
      928.400000       0.967000
      928.500000       0.967000
      928.600000       0.968000
      928.700000       0.968000
      928.800000       0.968000
      928.900000       0.968000
      929.000000       0.968000
      929.100000       0.968000
      929.200000       0.969000
      929.300000       0.969000
      929.400000       0.969000
      929.500000       0.969000
      929.600000       0.969000
      929.700000       0.970000
      929.800000       0.970000
      929.900000       0.970000
      930.000000       0.970000
      930.100000       0.970000
      930.200000       0.971000
      930.300000       0.971000
      930.400000       0.971000
      930.500000       0.971000
      930.600000       0.972000
      930.700000       0.972000
      930.800000       0.972000
      930.900000       0.972000
      931.000000       0.972000
      931.100000       0.973000
      931.200000       0.973000
      931.300000       0.973000
      931.400000       0.973000
      931.500000       0.973000
      931.600000       0.973000
      931.700000       0.974000
      931.800000       0.974000
      931.900000       0.974000
      932.000000       0.974000
      932.100000       0.974000
      932.200000       0.975000
      932.300000       0.975000
      932.400000       0.975000
      932.500000       0.975000
      932.600000       0.975000
      932.700000       0.976000
      932.800000       0.976000
      932.900000       0.976000
      933.000000       0.977000
      933.100000       0.977000
      933.200000       0.977000
      933.300000       0.978000
      933.400000       0.978000
      933.500000       0.979000
      933.600000       0.979000
      933.700000       0.979000
      933.800000       0.980000
      933.900000       0.980000
      934.000000       0.981000
      934.100000       0.981000
      934.200000       0.981000
      934.300000       0.982000
      934.400000       0.982000
      934.500000       0.982000
      934.600000       0.983000
      934.700000       0.983000
      934.800000       0.983000
      934.900000       0.984000
      935.000000       0.984000
      935.100000       0.984000
      935.200000       0.984000
      935.300000       0.985000
      935.400000       0.985000
      935.500000       0.985000
      935.600000       0.985000
      935.700000       0.985000
      935.800000       0.986000
      935.900000       0.986000
      936.000000       0.986000
      936.100000       0.986000
      936.200000       0.986000
      936.300000       0.986000
      936.400000       0.986000
      936.500000       0.987000
      936.600000       0.987000
      936.700000       0.987000
      936.800000       0.987000
      936.900000       0.987000
      937.000000       0.987000
      937.100000       0.987000
      937.200000       0.988000
      937.300000       0.988000
      937.400000       0.988000
      937.500000       0.988000
      937.600000       0.988000
      937.700000       0.988000
      937.800000       0.988000
      937.900000       0.989000
      938.000000       0.989000
      938.100000       0.989000
      938.200000       0.989000
      938.300000       0.989000
      938.400000       0.989000
      938.500000       0.990000
      938.600000       0.990000
      938.700000       0.990000
      938.800000       0.990000
      938.900000       0.990000
      939.000000       0.991000
      939.100000       0.991000
      939.200000       0.991000
      939.300000       0.991000
      939.400000       0.992000
      939.500000       0.992000
      939.600000       0.992000
      939.700000       0.993000
      939.800000       0.993000
      939.900000       0.993000
      940.000000       0.994000
      940.100000       0.994000
      940.200000       0.994000
      940.300000       0.995000
      940.400000       0.995000
      940.500000       0.996000
      940.600000       0.996000
      940.700000       0.996000
      940.800000       0.997000
      940.900000       0.997000
      941.000000       0.997000
      941.100000       0.998000
      941.200000       0.998000
      941.300000       0.998000
      941.400000       0.999000
      941.500000       0.999000
      941.600000       0.999000
      941.700000       0.999000
      941.800000       1.000000
      941.900000       1.000000
      942.000000       1.000000
      942.100000       1.000000
      942.200000       1.000000
      942.300000       1.000000
      942.400000       1.000000
      942.500000       1.000000
      942.600000       1.000000
      942.700000       0.999000
      942.800000       0.999000
      942.900000       0.999000
      943.000000       0.998000
      943.100000       0.998000
      943.200000       0.997000
      943.300000       0.997000
      943.400000       0.996000
      943.500000       0.995000
      943.600000       0.995000
      943.700000       0.994000
      943.800000       0.993000
      943.900000       0.992000
      944.000000       0.991000
      944.100000       0.990000
      944.200000       0.989000
      944.300000       0.988000
      944.400000       0.987000
      944.500000       0.986000
      944.600000       0.985000
      944.700000       0.984000
      944.800000       0.984000
      944.900000       0.983000
      945.000000       0.983000
      945.100000       0.982000
      945.200000       0.982000
      945.300000       0.982000
      945.400000       0.982000
      945.500000       0.982000
      945.600000       0.983000
      945.700000       0.983000
      945.800000       0.983000
      945.900000       0.984000
      946.000000       0.985000
      946.100000       0.985000
      946.200000       0.986000
      946.300000       0.987000
      946.400000       0.987000
      946.500000       0.988000
      946.600000       0.988000
      946.700000       0.989000
      946.800000       0.990000
      946.900000       0.990000
      947.000000       0.990000
      947.100000       0.990000
      947.200000       0.990000
      947.300000       0.990000
      947.400000       0.990000
      947.500000       0.990000
      947.600000       0.990000
      947.700000       0.990000
      947.800000       0.989000
      947.900000       0.989000
      948.000000       0.988000
      948.100000       0.987000
      948.200000       0.987000
      948.300000       0.986000
      948.400000       0.985000
      948.500000       0.985000
      948.600000       0.984000
      948.700000       0.983000
      948.800000       0.982000
      948.900000       0.981000
      949.000000       0.980000
      949.100000       0.979000
      949.200000       0.979000
      949.300000       0.978000
      949.400000       0.977000
      949.500000       0.976000
      949.600000       0.975000
      949.700000       0.974000
      949.800000       0.974000
      949.900000       0.973000
      950.000000       0.973000
      950.100000       0.972000
      950.200000       0.972000
      950.300000       0.971000
      950.400000       0.971000
      950.500000       0.971000
      950.600000       0.971000
      950.700000       0.971000
      950.800000       0.972000
      950.900000       0.972000
      951.000000       0.973000
      951.100000       0.973000
      951.200000       0.974000
      951.300000       0.975000
      951.400000       0.976000
      951.500000       0.976000
      951.600000       0.977000
      951.700000       0.978000
      951.800000       0.979000
      951.900000       0.980000
      952.000000       0.980000
      952.100000       0.981000
      952.200000       0.982000
      952.300000       0.982000
      952.400000       0.982000
      952.500000       0.983000
      952.600000       0.983000
      952.700000       0.983000
      952.800000       0.983000
      952.900000       0.983000
      953.000000       0.982000
      953.100000       0.982000
      953.200000       0.982000
      953.300000       0.981000
      953.400000       0.981000
      953.500000       0.981000
      953.600000       0.980000
      953.700000       0.980000
      953.800000       0.979000
      953.900000       0.979000
      954.000000       0.978000
      954.100000       0.978000
      954.200000       0.977000
      954.300000       0.977000
      954.400000       0.976000
      954.500000       0.976000
      954.600000       0.976000
      954.700000       0.976000
      954.800000       0.975000
      954.900000       0.975000
      955.000000       0.975000
      955.100000       0.975000
      955.200000       0.974000
      955.300000       0.974000
      955.400000       0.974000
      955.500000       0.974000
      955.600000       0.973000
      955.700000       0.973000
      955.800000       0.973000
      955.900000       0.972000
      956.000000       0.972000
      956.100000       0.971000
      956.200000       0.971000
      956.300000       0.970000
      956.400000       0.969000
      956.500000       0.969000
      956.600000       0.968000
      956.700000       0.967000
      956.800000       0.966000
      956.900000       0.965000
      957.000000       0.964000
      957.100000       0.963000
      957.200000       0.961000
      957.300000       0.960000
      957.400000       0.958000
      957.500000       0.957000
      957.600000       0.955000
      957.700000       0.953000
      957.800000       0.951000
      957.900000       0.949000
      958.000000       0.947000
      958.100000       0.944000
      958.200000       0.941000
      958.300000       0.939000
      958.400000       0.936000
      958.500000       0.933000
      958.600000       0.930000
      958.700000       0.927000
      958.800000       0.924000
      958.900000       0.921000
      959.000000       0.918000
      959.100000       0.914000
      959.200000       0.911000
      959.300000       0.908000
      959.400000       0.905000
      959.500000       0.901000
      959.600000       0.898000
      959.700000       0.895000
      959.800000       0.892000
      959.900000       0.889000
      960.000000       0.886000
      960.100000       0.883000
      960.200000       0.880000
      960.300000       0.877000
      960.400000       0.874000
      960.500000       0.872000
      960.600000       0.869000
      960.700000       0.866000
      960.800000       0.863000
      960.900000       0.859000
      961.000000       0.856000
      961.100000       0.853000
      961.200000       0.850000
      961.300000       0.846000
      961.400000       0.843000
      961.500000       0.839000
      961.600000       0.835000
      961.700000       0.831000
      961.800000       0.827000
      961.900000       0.823000
      962.000000       0.819000
      962.100000       0.814000
      962.200000       0.810000
      962.300000       0.805000
      962.400000       0.800000
      962.500000       0.795000
      962.600000       0.790000
      962.700000       0.785000
      962.800000       0.780000
      962.900000       0.775000
      963.000000       0.770000
      963.100000       0.765000
      963.200000       0.760000
      963.300000       0.755000
      963.400000       0.750000
      963.500000       0.744000
      963.600000       0.739000
      963.700000       0.734000
      963.800000       0.729000
      963.900000       0.724000
      964.000000       0.718000
      964.100000       0.713000
      964.200000       0.708000
      964.300000       0.703000
      964.400000       0.697000
      964.500000       0.692000
      964.600000       0.687000
      964.700000       0.682000
      964.800000       0.676000
      964.900000       0.671000
      965.000000       0.666000
      965.100000       0.660000
      965.200000       0.655000
      965.300000       0.650000
      965.400000       0.644000
      965.500000       0.639000
      965.600000       0.633000
      965.700000       0.628000
      965.800000       0.623000
      965.900000       0.617000
      966.000000       0.612000
      966.100000       0.606000
      966.200000       0.601000
      966.300000       0.595000
      966.400000       0.590000
      966.500000       0.584000
      966.600000       0.579000
      966.700000       0.574000
      966.800000       0.568000
      966.900000       0.563000
      967.000000       0.557000
      967.100000       0.552000
      967.200000       0.547000
      967.300000       0.541000
      967.400000       0.536000
      967.500000       0.531000
      967.600000       0.525000
      967.700000       0.520000
      967.800000       0.515000
      967.900000       0.510000
      968.000000       0.504000
      968.100000       0.499000
      968.200000       0.494000
      968.300000       0.489000
      968.400000       0.484000
      968.500000       0.478000
      968.600000       0.473000
      968.700000       0.468000
      968.800000       0.463000
      968.900000       0.458000
      969.000000       0.453000
      969.100000       0.448000
      969.200000       0.443000
      969.300000       0.438000
      969.400000       0.433000
      969.500000       0.428000
      969.600000       0.423000
      969.700000       0.419000
      969.800000       0.414000
      969.900000       0.409000
      970.000000       0.404000
      970.100000       0.399000
      970.200000       0.395000
      970.300000       0.390000
      970.400000       0.385000
      970.500000       0.380000
      970.600000       0.376000
      970.700000       0.371000
      970.800000       0.366000
      970.900000       0.362000
      971.000000       0.357000
      971.100000       0.353000
      971.200000       0.348000
      971.300000       0.344000
      971.400000       0.339000
      971.500000       0.335000
      971.600000       0.330000
      971.700000       0.326000
      971.800000       0.321000
      971.900000       0.317000
      972.000000       0.313000
      972.100000       0.309000
      972.200000       0.304000
      972.300000       0.300000
      972.400000       0.296000
      972.500000       0.292000
      972.600000       0.288000
      972.700000       0.284000
      972.800000       0.281000
      972.900000       0.277000
      973.000000       0.273000
      973.100000       0.270000
      973.200000       0.266000
      973.300000       0.262000
      973.400000       0.259000
      973.500000       0.256000
      973.600000       0.252000
      973.700000       0.249000
      973.800000       0.246000
      973.900000       0.243000
      974.000000       0.239000
      974.100000       0.236000
      974.200000       0.233000
      974.300000       0.230000
      974.400000       0.227000
      974.500000       0.224000
      974.600000       0.221000
      974.700000       0.218000
      974.800000       0.215000
      974.900000       0.212000
      975.000000       0.210000
      975.100000       0.207000
      975.200000       0.204000
      975.300000       0.201000
      975.400000       0.198000
      975.500000       0.195000
      975.600000       0.193000
      975.700000       0.190000
      975.800000       0.187000
      975.900000       0.185000
      976.000000       0.182000
      976.100000       0.179000
      976.200000       0.176000
      976.300000       0.174000
      976.400000       0.171000
      976.500000       0.169000
      976.600000       0.166000
      976.700000       0.163000
      976.800000       0.161000
      976.900000       0.158000
      977.000000       0.156000
      977.100000       0.153000
      977.200000       0.151000
      977.300000       0.148000
      977.400000       0.146000
      977.500000       0.144000
      977.600000       0.141000
      977.700000       0.139000
      977.800000       0.136000
      977.900000       0.134000
      978.000000       0.132000
      978.100000       0.129000
      978.200000       0.127000
      978.300000       0.125000
      978.400000       0.123000
      978.500000       0.121000
      978.600000       0.118000
      978.700000       0.116000
      978.800000       0.114000
      978.900000       0.112000
      979.000000       0.110000
      979.100000       0.108000
      979.200000       0.106000
      979.300000       0.104000
      979.400000       0.102000
      979.500000       0.100000
      979.600000       0.098000
      979.700000       0.096000
      979.800000       0.094000
      979.900000       0.092000
      980.000000       0.091000
      980.100000       0.089000
      980.200000       0.087000
      980.300000       0.085000
      980.400000       0.084000
      980.500000       0.082000
      980.600000       0.080000
      980.700000       0.079000
      980.800000       0.077000
      980.900000       0.076000
      981.000000       0.074000
      981.100000       0.072000
      981.200000       0.071000
      981.300000       0.070000
      981.400000       0.068000
      981.500000       0.067000
      981.600000       0.065000
      981.700000       0.064000
      981.800000       0.063000
      981.900000       0.061000
      982.000000       0.060000
      982.100000       0.059000
      982.200000       0.057000
      982.300000       0.056000
      982.400000       0.055000
      982.500000       0.054000
      982.600000       0.052000
      982.700000       0.051000
      982.800000       0.050000
      982.900000       0.049000
      983.000000       0.048000
      983.100000       0.047000
      983.200000       0.046000
      983.300000       0.044000
      983.400000       0.043000
      983.500000       0.042000
      983.600000       0.041000
      983.700000       0.040000
      983.800000       0.039000
      983.900000       0.038000
      984.000000       0.037000
      984.100000       0.037000
      984.200000       0.036000
      984.300000       0.035000
      984.400000       0.034000
      984.500000       0.033000
      984.600000       0.032000
      984.700000       0.031000
      984.800000       0.031000
      984.900000       0.030000
      985.000000       0.029000
      985.100000       0.028000
      985.200000       0.028000
      985.300000       0.027000
      985.400000       0.026000
      985.500000       0.026000
      985.600000       0.025000
      985.700000       0.024000
      985.800000       0.024000
      985.900000       0.023000
      986.000000       0.023000
      986.100000       0.021000
      986.200000       0.021000
      986.300000       0.020000
      986.400000       0.020000
      986.500000       0.019000
      986.600000       0.019000
      986.700000       0.018000
      986.800000       0.018000
      986.900000       0.017000
      987.000000       0.017000
      987.100000       0.016000
      987.200000       0.016000
      987.300000       0.015000
      987.400000       0.015000
      987.500000       0.015000
      987.600000       0.014000
      987.700000       0.014000
      987.800000       0.013000
      987.900000       0.013000
      988.000000       0.013000
      988.100000       0.012000
      988.200000       0.012000
      988.300000       0.012000
      988.400000       0.011000
      988.500000       0.011000
      988.600000       0.011000
      988.700000       0.010000
      988.800000       0.010000
      988.900000       0.010000
      989.000000       0.009000
      989.100000       0.009000
      989.200000       0.009000
      989.300000       0.009000
      989.400000       0.008000
      989.500000       0.008000
      989.600000       0.008000
      989.700000       0.008000
      989.800000       0.007000
      989.900000       0.007000
      990.000000       0.007000
      990.100000       0.007000
      990.200000       0.006000
      990.300000       0.006000
      990.400000       0.006000
      990.500000       0.006000
      990.600000       0.006000
      990.700000       0.005000
      990.800000       0.005000
      990.900000       0.005000
      991.000000       0.005000
      991.100000       0.005000
      991.200000       0.004000
      991.300000       0.004000
      991.400000       0.004000
      991.500000       0.004000
      991.600000       0.004000
      991.700000       0.004000
      991.800000       0.004000
      991.900000       0.003000
      992.000000       0.003000
      992.100000       0.003000
      992.200000       0.003000
      992.300000       0.003000
      992.400000       0.003000
      992.500000       0.003000
      992.600000       0.003000
      992.700000       0.002000
      992.800000       0.002000
      992.900000       0.002000
      993.000000       0.002000
      993.100000       0.002000
      993.200000       0.002000
      993.300000       0.002000
      993.400000       0.002000
      993.500000       0.002000
      993.600000       0.002000
      993.700000       0.002000
      993.800000       0.002000
      993.900000       0.002000
      994.000000       0.001000
      994.100000       0.001000
      994.200000       0.001000
      994.300000       0.001000
      994.400000       0.001000
      994.500000       0.001000
      994.600000       0.001000
      994.700000       0.001000
      994.800000       0.001000
      994.900000       0.001000
      995.000000       0.001000
      995.100000       0.001000
      995.200000       0.001000
      995.300000       0.001000
      995.400000       0.001000
      995.500000       0.001000
      995.600000       0.001000
      995.700000       0.000000
      995.800000       0.000000
      995.900000       0.000000
      996.000000       0.000000
