6,   6, MVIRI VIS channel from srf_MET4_1990078_1990079_1801-Release_S10EL_10.dat
Number of data points:
752
Wavenumber (cm-1)   Filter response
     8745.080900       0.000000
     8752.735200       0.000000
     8760.403000       0.000001
     8768.084200       0.000058
     8775.778900       0.000197
     8783.487000       0.000415
     8791.208800       0.000710
     8798.944100       0.001079
     8806.693100       0.001522
     8814.455700       0.002034
     8822.232000       0.002614
     8830.022100       0.003261
     8837.825900       0.003971
     8845.643500       0.004744
     8853.475000       0.005577
     8861.320300       0.006469
     8869.179600       0.007417
     8877.052800       0.008421
     8884.940000       0.009478
     8892.841300       0.010586
     8900.756600       0.011745
     8908.686000       0.012953
     8916.629500       0.014207
     8924.587200       0.015508
     8932.559200       0.016854
     8940.545400       0.018242
     8948.545900       0.019673
     8956.560700       0.021144
     8964.589900       0.022655
     8972.633500       0.024205
     8980.691500       0.025792
     8988.764000       0.027415
     8996.851100       0.029073
     9004.952700       0.030766
     9013.068900       0.032493
     9021.199800       0.034252
     9029.345400       0.036042
     9037.505600       0.037863
     9045.680700       0.039715
     9053.870500       0.041595
     9062.075200       0.043504
     9070.294800       0.045441
     9078.529300       0.047405
     9086.778700       0.049396
     9095.043200       0.051412
     9103.322700       0.053453
     9111.617300       0.055520
     9119.927000       0.057610
     9128.251900       0.059724
     9136.592100       0.061862
     9144.947400       0.064022
     9153.318100       0.066204
     9161.704100       0.068408
     9170.105500       0.070634
     9178.522300       0.072880
     9186.954500       0.075147
     9195.402300       0.077435
     9203.865600       0.079743
     9212.344500       0.082070
     9220.839100       0.084418
     9229.349300       0.086783
     9237.875300       0.089169
     9246.417000       0.091573
     9254.974500       0.093995
     9263.547900       0.096436
     9272.137200       0.098894
     9280.742500       0.101371
     9289.363700       0.103866
     9298.000900       0.106378
     9306.654300       0.108908
     9315.323700       0.111454
     9324.009300       0.114019
     9332.711200       0.116600
     9341.429200       0.119198
     9350.163600       0.121814
     9358.914400       0.124446
     9367.681500       0.127095
     9376.465100       0.129761
     9385.265100       0.132443
     9394.081700       0.135143
     9402.914900       0.137858
     9411.764700       0.140591
     9420.631200       0.143340
     9429.514400       0.146105
     9438.414300       0.148887
     9447.331100       0.151686
     9456.264800       0.154501
     9465.215300       0.157332
     9474.182900       0.160180
     9483.167400       0.163045
     9492.169000       0.165926
     9501.187600       0.168824
     9510.223500       0.171738
     9519.276500       0.174669
     9528.346800       0.177616
     9537.434400       0.180581
     9546.539400       0.183561
     9555.661700       0.186559
     9564.801500       0.189573
     9573.958800       0.192604
     9583.133700       0.195651
     9592.326100       0.198716
     9601.536200       0.201797
     9610.764100       0.204895
     9620.009600       0.208010
     9629.273000       0.211141
     9638.554200       0.214290
     9647.853400       0.217455
     9657.170400       0.220638
     9666.505600       0.223837
     9675.858700       0.227054
     9685.230000       0.230287
     9694.619500       0.233537
     9704.027200       0.236805
     9713.453100       0.240089
     9722.897400       0.243391
     9732.360100       0.246709
     9741.841200       0.250044
     9751.340800       0.253397
     9760.859000       0.256766
     9770.395700       0.260153
     9779.951100       0.263556
     9789.525200       0.266976
     9799.118100       0.270414
     9808.729800       0.273868
     9818.360300       0.277339
     9828.009800       0.280826
     9837.678300       0.284331
     9847.365800       0.287853
     9857.072400       0.291390
     9866.798200       0.294945
     9876.543200       0.298516
     9886.307500       0.302104
     9896.091000       0.305709
     9905.894000       0.309329
     9915.716400       0.312966
     9925.558300       0.316619
     9935.419800       0.320288
     9945.300800       0.323973
     9955.201600       0.327674
     9965.122100       0.331391
     9975.062300       0.335124
     9985.022500       0.338872
     9995.002500       0.342636
    10005.002500       0.346415
    10015.022500       0.350209
    10025.062700       0.354018
    10035.122900       0.357842
    10045.203400       0.361681
    10055.304200       0.365535
    10065.425300       0.369403
    10075.566800       0.373286
    10085.728700       0.377182
    10095.911200       0.381093
    10106.114200       0.385017
    10116.337900       0.388955
    10126.582300       0.392906
    10136.847400       0.396871
    10147.133400       0.400848
    10157.440300       0.404838
    10167.768200       0.408841
    10178.117000       0.412856
    10188.487000       0.416883
    10198.878100       0.420923
    10209.290500       0.424974
    10219.724100       0.429036
    10230.179000       0.433109
    10240.655400       0.437194
    10251.153300       0.441289
    10261.672700       0.445394
    10272.213700       0.449510
    10282.776300       0.453635
    10293.360800       0.457770
    10303.967000       0.461915
    10314.595200       0.466068
    10325.245200       0.470230
    10335.917300       0.474401
    10346.611500       0.478579
    10357.327800       0.482766
    10368.066400       0.486960
    10378.827200       0.491161
    10389.610400       0.495369
    10400.416000       0.499584
    10411.244100       0.503805
    10422.094800       0.508031
    10432.968200       0.512264
    10443.864200       0.516502
    10454.783100       0.520744
    10465.724800       0.524991
    10476.689400       0.529242
    10487.677000       0.533498
    10498.687700       0.537756
    10509.721500       0.542018
    10520.778500       0.546282
    10531.858900       0.550549
    10542.962600       0.554818
    10554.089700       0.559088
    10565.240400       0.563360
    10576.414600       0.567632
    10587.612500       0.571906
    10598.834100       0.576179
    10610.079600       0.580452
    10621.348900       0.584724
    10632.642200       0.588995
    10643.959600       0.593265
    10655.301000       0.597532
    10666.666700       0.601798
    10678.056600       0.606061
    10689.470900       0.610320
    10700.909600       0.614577
    10712.372800       0.618829
    10723.860600       0.623077
    10735.373100       0.627320
    10746.910300       0.631558
    10758.472300       0.635791
    10770.059200       0.640017
    10781.671200       0.644237
    10793.308100       0.648450
    10804.970300       0.652657
    10816.657700       0.656855
    10828.370300       0.661045
    10840.108400       0.665227
    10851.871900       0.669400
    10863.661100       0.673563
    10875.475800       0.677717
    10887.316300       0.681860
    10899.182600       0.685993
    10911.074700       0.690115
    10922.992900       0.694225
    10934.937100       0.698323
    10946.907500       0.702408
    10958.904100       0.706481
    10970.927000       0.710541
    10982.976400       0.714587
    10995.052200       0.718619
    11007.154700       0.722637
    11019.283700       0.726639
    11031.439600       0.730627
    11043.622300       0.734598
    11055.832000       0.738554
    11068.068600       0.742492
    11080.332400       0.746414
    11092.623400       0.750318
    11104.941700       0.754205
    11117.287400       0.758073
    11129.660500       0.761922
    11142.061300       0.765752
    11154.489700       0.769563
    11166.945800       0.773354
    11179.429800       0.777124
    11191.941800       0.780874
    11204.481800       0.784603
    11217.049900       0.788310
    11229.646300       0.791995
    11242.270900       0.795658
    11254.924000       0.799298
    11267.605600       0.802915
    11280.315800       0.806508
    11293.054800       0.810078
    11305.822500       0.813623
    11318.619100       0.817144
    11331.444800       0.820640
    11344.299500       0.824110
    11357.183400       0.827555
    11370.096600       0.830973
    11383.039300       0.834365
    11396.011400       0.837730
    11409.013100       0.841068
    11422.044500       0.844379
    11435.105800       0.847662
    11448.196900       0.850916
    11461.318100       0.854142
    11474.469300       0.857339
    11487.650800       0.860506
    11500.862600       0.863645
    11514.104800       0.866753
    11527.377500       0.869831
    11540.680900       0.872879
    11554.015000       0.875896
    11567.380000       0.878881
    11580.775900       0.881836
    11594.202900       0.884758
    11607.661100       0.887649
    11621.150500       0.890507
    11634.671300       0.893333
    11648.223600       0.896126
    11661.807600       0.898885
    11675.423200       0.901612
    11689.070700       0.904305
    11702.750100       0.906963
    11716.461600       0.909588
    11730.205300       0.912179
    11743.981200       0.914734
    11757.789500       0.917255
    11771.630400       0.919741
    11785.503800       0.922191
    11799.410000       0.924606
    11813.349100       0.926986
    11827.321100       0.929329
    11841.326200       0.931636
    11855.364600       0.933907
    11869.436200       0.936141
    11883.541300       0.938339
    11897.680000       0.940500
    11911.852300       0.942623
    11926.058400       0.944710
    11940.298500       0.946759
    11954.572600       0.948770
    11968.880900       0.950744
    11983.223500       0.952680
    11997.600500       0.954578
    12012.012000       0.956438
    12026.458200       0.958260
    12040.939200       0.960043
    12055.455100       0.961788
    12070.006000       0.963495
    12084.592100       0.965163
    12099.213600       0.966792
    12113.870400       0.968382
    12128.562800       0.969933
    12143.290800       0.971446
    12158.054700       0.972919
    12172.854500       0.974354
    12187.690400       0.975749
    12202.562500       0.977105
    12217.471000       0.978422
    12232.415900       0.979699
    12247.397400       0.980938
    12262.415700       0.982137
    12277.470800       0.983296
    12292.563000       0.984417
    12307.692300       0.985498
    12322.858900       0.986539
    12338.062900       0.987542
    12353.304500       0.988505
    12368.583800       0.989429
    12383.900900       0.990313
    12399.256000       0.991159
    12414.649300       0.991965
    12430.080800       0.992732
    12445.550700       0.993460
    12461.059200       0.994149
    12476.606400       0.994799
    12492.192400       0.995411
    12507.817400       0.995984
    12523.481500       0.996518
    12539.185000       0.997013
    12554.927800       0.997470
    12570.710200       0.997889
    12586.532400       0.998269
    12602.394500       0.998611
    12618.296500       0.998916
    12634.238800       0.999182
    12650.221400       0.999411
    12666.244500       0.999602
    12682.308200       0.999756
    12698.412700       0.999872
    12714.558200       0.999952
    12730.744700       0.999994
    12746.972600       1.000000
    12763.241900       0.999969
    12779.552700       0.999902
    12795.905300       0.999799
    12812.299800       0.999659
    12828.736400       0.999484
    12845.215200       0.999274
    12861.736300       0.999028
    12878.300100       0.998747
    12894.906500       0.998431
    12911.555800       0.998080
    12928.248200       0.997695
    12944.983800       0.997276
    12961.762800       0.996823
    12978.585300       0.996337
    12995.451600       0.995817
    13012.361700       0.995263
    13029.316000       0.994677
    13046.314400       0.994059
    13063.357300       0.993408
    13080.444700       0.992725
    13097.576900       0.992010
    13114.754100       0.991265
    13131.976400       0.990488
    13149.243900       0.989680
    13166.556900       0.988841
    13183.915600       0.987973
    13201.320100       0.987075
    13218.770700       0.986147
    13236.267400       0.985190
    13253.810500       0.984204
    13271.400100       0.983190
    13289.036500       0.982147
    13306.719900       0.981077
    13324.450400       0.979980
    13342.228200       0.978855
    13360.053400       0.977703
    13377.926400       0.976526
    13395.847300       0.975322
    13413.816200       0.974092
    13431.833400       0.972838
    13449.899100       0.971558
    13468.013500       0.970254
    13486.176700       0.968926
    13504.388900       0.967574
    13522.650400       0.966199
    13540.961400       0.964801
    13559.322000       0.963381
    13577.732500       0.961938
    13596.193100       0.960474
    13614.703900       0.958988
    13633.265200       0.957482
    13651.877100       0.955955
    13670.540000       0.954408
    13689.253900       0.952841
    13708.019200       0.951256
    13726.836000       0.949651
    13745.704500       0.948029
    13764.624900       0.946388
    13783.597500       0.944730
    13802.622500       0.943054
    13821.700100       0.941362
    13840.830400       0.939654
    13860.013900       0.937931
    13879.250500       0.936191
    13898.540700       0.934438
    13917.884500       0.932669
    13937.282200       0.930887
    13956.734100       0.929091
    13976.240400       0.927282
    13995.801300       0.925461
    14015.417000       0.923627
    14035.087700       0.921781
    14054.813800       0.919925
    14074.595400       0.918057
    14094.432700       0.916179
    14114.326000       0.914291
    14134.275600       0.912394
    14154.281700       0.910488
    14174.344400       0.908573
    14194.464200       0.906650
    14214.641100       0.904719
    14234.875400       0.902781
    14255.167500       0.900836
    14275.517500       0.898885
    14295.925700       0.896928
    14316.392300       0.894966
    14336.917600       0.892998
    14357.501800       0.891026
    14378.145200       0.889050
    14398.848100       0.887071
    14419.610700       0.885088
    14440.433200       0.883102
    14461.316000       0.881114
    14482.259200       0.879125
    14503.263200       0.877133
    14524.328200       0.875141
    14545.454500       0.873148
    14566.642400       0.871155
    14587.892000       0.869163
    14609.203800       0.867171
    14630.577900       0.865180
    14652.014700       0.863190
    14673.514300       0.861203
    14695.077100       0.859218
    14716.703500       0.857236
    14738.393500       0.855257
    14760.147600       0.853282
    14781.966000       0.851311
    14803.849000       0.849344
    14825.796900       0.847382
    14847.809900       0.845425
    14869.888500       0.843474
    14892.032800       0.841528
    14914.243100       0.839590
    14936.519800       0.837658
    14958.863100       0.835733
    14981.273400       0.833815
    15003.750900       0.831906
    15026.296000       0.830004
    15048.909000       0.828112
    15071.590100       0.826228
    15094.339600       0.824353
    15117.158000       0.822488
    15140.045400       0.820634
    15163.002300       0.818789
    15186.028900       0.816955
    15209.125500       0.815132
    15232.292500       0.813321
    15255.530100       0.811521
    15278.838800       0.809732
    15302.218800       0.807957
    15325.670500       0.806193
    15349.194200       0.804442
    15372.790200       0.802705
    15396.458800       0.800981
    15420.200500       0.799270
    15444.015400       0.797574
    15467.904100       0.795891
    15491.866800       0.794223
    15515.903800       0.792570
    15540.015500       0.790931
    15564.202300       0.789308
    15588.464500       0.787700
    15612.802500       0.786108
    15637.216600       0.784531
    15661.707100       0.782970
    15686.274500       0.781426
    15710.919100       0.779898
    15735.641200       0.778387
    15760.441300       0.776892
    15785.319700       0.775415
    15810.276700       0.773954
    15835.312700       0.772511
    15860.428200       0.771085
    15885.623500       0.769677
    15910.899000       0.768287
    15936.255000       0.766914
    15961.691900       0.765559
    15987.210200       0.764222
    16012.810200       0.762904
    16038.492400       0.761604
    16064.257000       0.760322
    16090.104600       0.759058
    16116.035500       0.757813
    16142.050000       0.756586
    16168.148700       0.755378
    16194.332000       0.754189
    16220.600200       0.753018
    16246.953700       0.751866
    16273.393000       0.750733
    16299.918500       0.749618
    16326.530600       0.748522
    16353.229800       0.747445
    16380.016400       0.746386
    16406.890900       0.745346
    16433.853700       0.744325
    16460.905300       0.743322
    16488.046200       0.742338
    16515.276600       0.741372
    16542.597200       0.740425
    16570.008300       0.739496
    16597.510400       0.738585
    16625.103900       0.737693
    16652.789300       0.736818
    16680.567100       0.735961
    16708.437800       0.735122
    16736.401700       0.734301
    16764.459300       0.733497
    16792.611300       0.732710
    16820.857900       0.731940
    16849.199700       0.731188
    16877.637100       0.730452
    16906.170800       0.729733
    16934.801000       0.729030
    16963.528400       0.728343
    16992.353400       0.727673
    17021.276600       0.727018
    17050.298400       0.726378
    17079.419300       0.725754
    17108.639900       0.725145
    17137.960600       0.724550
    17167.382000       0.723970
    17196.904600       0.723404
    17226.528900       0.722851
    17256.255400       0.722312
    17286.084700       0.721787
    17316.017300       0.721274
    17346.053800       0.720774
    17376.194600       0.720286
    17406.440400       0.719809
    17436.791600       0.719344
    17467.248900       0.718891
    17497.812800       0.718447
    17528.483800       0.718015
    17559.262500       0.717592
    17590.149500       0.717178
    17621.145400       0.716774
    17652.250700       0.716378
    17683.466000       0.715990
    17714.791900       0.715610
    17746.228900       0.715238
    17777.777800       0.714872
    17809.439000       0.714512
    17841.213200       0.714159
    17873.101000       0.713810
    17905.103000       0.713467
    17937.219700       0.713127
    17969.451900       0.712792
    18001.800200       0.712460
    18034.265100       0.712131
    18066.847300       0.711804
    18099.547500       0.711478
    18132.366300       0.711154
    18165.304300       0.710830
    18198.362100       0.710506
    18231.540600       0.710181
    18264.840200       0.709856
    18298.261700       0.709528
    18331.805700       0.709198
    18365.472900       0.708865
    18399.264000       0.708528
    18433.179700       0.708187
    18467.220700       0.707841
    18501.387600       0.707489
    18535.681200       0.707132
    18570.102100       0.706767
    18604.651200       0.706395
    18639.329000       0.706014
    18674.136300       0.705625
    18709.073900       0.705226
    18744.142500       0.704817
    18779.342700       0.704397
    18814.675400       0.703965
    18850.141400       0.703521
    18885.741300       0.703064
    18921.475900       0.702593
    18957.346000       0.702108
    18993.352300       0.701608
    19029.495700       0.701091
    19065.776900       0.700558
    19102.196800       0.700008
    19138.756000       0.699440
    19175.455400       0.698852
    19212.295900       0.698245
    19249.278200       0.697618
    19286.403100       0.696970
    19323.671500       0.696299
    19361.084200       0.695606
    19398.642100       0.694890
    19436.346000       0.694150
    19474.196700       0.693385
    19512.195100       0.692594
    19550.342100       0.691777
    19588.638600       0.690932
    19627.085400       0.690060
    19665.683400       0.689159
    19704.433500       0.688228
    19743.336600       0.687267
    19782.393700       0.686276
    19821.605600       0.685252
    19860.973200       0.684196
    19900.497500       0.683106
    19940.179500       0.681983
    19980.020000       0.680825
    20020.020000       0.679631
    20060.180500       0.678401
    20100.502500       0.677133
    20140.986900       0.675828
    20181.634700       0.674484
    20222.446900       0.673101
    20263.424500       0.671678
    20304.568500       0.670214
    20345.880000       0.668709
    20387.359800       0.667161
    20429.009200       0.665570
    20470.829100       0.663936
    20512.820500       0.662257
    20554.984600       0.660533
    20597.322300       0.658764
    20639.834900       0.656947
    20682.523300       0.655084
    20725.388600       0.653173
    20768.432000       0.651213
    20811.654500       0.649204
    20855.057400       0.647145
    20898.641600       0.645036
    20942.408400       0.642876
    20986.358900       0.640664
    21030.494200       0.638400
    21074.815600       0.636083
    21119.324200       0.633713
    21164.021200       0.631288
    21208.907700       0.628809
    21253.985100       0.626275
    21299.254500       0.623685
    21344.717200       0.621039
    21390.374300       0.618336
    21436.227200       0.615577
    21482.277100       0.612759
    21528.525300       0.609883
    21574.973000       0.606949
    21621.621600       0.603956
    21668.472400       0.600904
    21715.526600       0.597792
    21762.785600       0.594620
    21810.250800       0.591387
    21857.923500       0.588094
    21905.805000       0.584739
    21953.896800       0.581323
    22002.200200       0.577846
    22050.716600       0.574306
    22099.447500       0.570705
    22148.394200       0.567041
    22197.558300       0.563315
    22246.941000       0.559526
    22296.544000       0.555674
    22346.368700       0.551760
    22396.416600       0.547783
    22446.689100       0.543742
    22497.187900       0.539639
    22547.914300       0.535473
    22598.870100       0.531243
    22650.056600       0.526951
    22701.475600       0.522596
    22753.128600       0.518179
    22805.017100       0.513699
    22857.142900       0.509156
    22909.507400       0.504552
    22962.112500       0.499885
    23014.959700       0.495158
    23068.050700       0.490368
    23121.387300       0.485518
    23174.971000       0.480608
    23228.803700       0.475637
    23282.887100       0.470607
    23337.222900       0.465518
    23391.812900       0.460370
    23446.658900       0.455165
    23501.762600       0.449902
    23557.126000       0.444582
    23612.750900       0.439206
    23668.639100       0.433776
    23724.792400       0.428290
    23781.212800       0.422751
    23837.902300       0.417160
    23894.862600       0.411517
    23952.095800       0.405822
    24009.603800       0.400079
    24067.388700       0.394286
    24125.452400       0.388446
    24183.796900       0.382560
    24242.424200       0.376628
    24301.336600       0.370652
    24360.535900       0.364634
    24420.024400       0.358575
    24479.804200       0.352475
    24539.877300       0.346338
    24600.246000       0.340164
    24660.912500       0.333954
    24721.878900       0.327712
    24783.147500       0.321437
    24844.720500       0.315132
    24906.600200       0.308800
    24968.789000       0.302441
    25031.289100       0.296058
    25094.102900       0.289652
    25157.232700       0.283226
    25220.681000       0.276783
    25284.450100       0.270323
    25348.542500       0.263850
    25412.960600       0.257366
    25477.707000       0.250874
