  13  ,metop_02_hirs_13.flt
Number of data points:
500
Wavenumber (cm-1)   Filter response
     2165.300000       0.000000
     2165.400000       0.004006
     2165.500000       0.004136
     2165.600000       0.004269
     2165.700000       0.004405
     2165.800000       0.004543
     2165.900000       0.004685
     2166.000000       0.004830
     2166.100000       0.004978
     2166.200000       0.005130
     2166.300000       0.005285
     2166.400000       0.005445
     2166.500000       0.005609
     2166.600000       0.005778
     2166.700000       0.005953
     2166.800000       0.006133
     2166.900000       0.006320
     2167.000000       0.006515
     2167.100000       0.006717
     2167.200000       0.006927
     2167.300000       0.007147
     2167.400000       0.007377
     2167.500000       0.007617
     2167.600000       0.007868
     2167.700000       0.008132
     2167.800000       0.008409
     2167.900000       0.008700
     2168.000000       0.009005
     2168.100000       0.009325
     2168.200000       0.009662
     2168.300000       0.010016
     2168.400000       0.010387
     2168.500000       0.010777
     2168.600000       0.011186
     2168.700000       0.011615
     2168.800000       0.012064
     2168.900000       0.012535
     2169.000000       0.013027
     2169.100000       0.013542
     2169.200000       0.014079
     2169.300000       0.014640
     2169.400000       0.015224
     2169.500000       0.015833
     2169.600000       0.016465
     2169.700000       0.017123
     2169.800000       0.017805
     2169.900000       0.018513
     2170.000000       0.019246
     2170.100000       0.020005
     2170.200000       0.020790
     2170.300000       0.021602
     2170.400000       0.022441
     2170.500000       0.023308
     2170.600000       0.024203
     2170.700000       0.025128
     2170.800000       0.026082
     2170.900000       0.027067
     2171.000000       0.028084
     2171.100000       0.029133
     2171.200000       0.030217
     2171.300000       0.031336
     2171.400000       0.032494
     2171.500000       0.033690
     2171.600000       0.034928
     2171.700000       0.036210
     2171.800000       0.037538
     2171.900000       0.038915
     2172.000000       0.040343
     2172.100000       0.041827
     2172.200000       0.043370
     2172.300000       0.044974
     2172.400000       0.046645
     2172.500000       0.048384
     2172.600000       0.050198
     2172.700000       0.052090
     2172.800000       0.054066
     2172.900000       0.056129
     2173.000000       0.058284
     2173.100000       0.060537
     2173.200000       0.062894
     2173.300000       0.065358
     2173.400000       0.067937
     2173.500000       0.070634
     2173.600000       0.073457
     2173.700000       0.075729
     2173.800000       0.078789
     2173.900000       0.081991
     2174.000000       0.085341
     2174.100000       0.088845
     2174.200000       0.092509
     2174.300000       0.096336
     2174.400000       0.100330
     2174.500000       0.104500
     2174.600000       0.108850
     2174.700000       0.113380
     2174.800000       0.118100
     2174.900000       0.123010
     2175.000000       0.128110
     2175.100000       0.133410
     2175.200000       0.138910
     2175.300000       0.144610
     2175.400000       0.150520
     2175.500000       0.156630
     2175.600000       0.162950
     2175.700000       0.169480
     2175.800000       0.176210
     2175.900000       0.183150
     2176.000000       0.190300
     2176.100000       0.197640
     2176.200000       0.205190
     2176.300000       0.212940
     2176.400000       0.220880
     2176.500000       0.229020
     2176.600000       0.237340
     2176.700000       0.245850
     2176.800000       0.254540
     2176.900000       0.263400
     2177.000000       0.272430
     2177.100000       0.281610
     2177.200000       0.290960
     2177.300000       0.300440
     2177.400000       0.310070
     2177.500000       0.319830
     2177.600000       0.329700
     2177.700000       0.339690
     2177.800000       0.349790
     2177.900000       0.359980
     2178.000000       0.370250
     2178.100000       0.380600
     2178.200000       0.391020
     2178.300000       0.401490
     2178.400000       0.412000
     2178.500000       0.422550
     2178.600000       0.433120
     2178.700000       0.443710
     2178.800000       0.454300
     2178.900000       0.464890
     2179.000000       0.475450
     2179.100000       0.485990
     2179.200000       0.496490
     2179.300000       0.506950
     2179.400000       0.517350
     2179.500000       0.527680
     2179.600000       0.537930
     2179.700000       0.548100
     2179.800000       0.558180
     2179.900000       0.568150
     2180.000000       0.578010
     2180.100000       0.587750
     2180.200000       0.597360
     2180.300000       0.606830
     2180.400000       0.616170
     2180.500000       0.625360
     2180.600000       0.634400
     2180.700000       0.643280
     2180.800000       0.651990
     2180.900000       0.660540
     2181.000000       0.668920
     2181.100000       0.677120
     2181.200000       0.685150
     2181.300000       0.692990
     2181.400000       0.700650
     2181.500000       0.708120
     2181.600000       0.715410
     2181.700000       0.722500
     2181.800000       0.729410
     2181.900000       0.736140
     2182.000000       0.742670
     2182.100000       0.749050
     2182.200000       0.755240
     2182.300000       0.761250
     2182.400000       0.767080
     2182.500000       0.772730
     2182.600000       0.778200
     2182.700000       0.783500
     2182.800000       0.788640
     2182.900000       0.793610
     2183.000000       0.798410
     2183.100000       0.803070
     2183.200000       0.807570
     2183.300000       0.811920
     2183.400000       0.816140
     2183.500000       0.820220
     2183.600000       0.824170
     2183.700000       0.828000
     2183.800000       0.831720
     2183.900000       0.835320
     2184.000000       0.838830
     2184.100000       0.842200
     2184.200000       0.845480
     2184.300000       0.848670
     2184.400000       0.851790
     2184.500000       0.854840
     2184.600000       0.857820
     2184.700000       0.860740
     2184.800000       0.863610
     2184.900000       0.866440
     2185.000000       0.869220
     2185.100000       0.871970
     2185.200000       0.874680
     2185.300000       0.877370
     2185.400000       0.880040
     2185.500000       0.882700
     2185.600000       0.885340
     2185.700000       0.887980
     2185.800000       0.890610
     2185.900000       0.893240
     2186.000000       0.895870
     2186.100000       0.898500
     2186.200000       0.901140
     2186.300000       0.903780
     2186.400000       0.906430
     2186.500000       0.909090
     2186.600000       0.911770
     2186.700000       0.914450
     2186.800000       0.917140
     2186.900000       0.919850
     2187.000000       0.922560
     2187.100000       0.925280
     2187.200000       0.928010
     2187.300000       0.930740
     2187.400000       0.933470
     2187.500000       0.936200
     2187.600000       0.938930
     2187.700000       0.941650
     2187.800000       0.944350
     2187.900000       0.947040
     2188.000000       0.949700
     2188.100000       0.952410
     2188.200000       0.955080
     2188.300000       0.957730
     2188.400000       0.960330
     2188.500000       0.962900
     2188.600000       0.965410
     2188.700000       0.967880
     2188.800000       0.970290
     2188.900000       0.972630
     2189.000000       0.974920
     2189.100000       0.977130
     2189.200000       0.979270
     2189.300000       0.981330
     2189.400000       0.983300
     2189.500000       0.985190
     2189.600000       0.986980
     2189.700000       0.988670
     2189.800000       0.990270
     2189.900000       0.991760
     2190.000000       0.993140
     2190.100000       0.994370
     2190.200000       0.995490
     2190.300000       0.996500
     2190.400000       0.997380
     2190.500000       0.998140
     2190.600000       0.998770
     2190.700000       0.999270
     2190.800000       0.999650
     2190.900000       0.999890
     2191.000000       1.000000
     2191.100000       0.999970
     2191.200000       0.999810
     2191.300000       0.999510
     2191.400000       0.999070
     2191.500000       0.998490
     2191.600000       0.997780
     2191.700000       0.996920
     2191.800000       0.995930
     2191.900000       0.994790
     2192.000000       0.993520
     2192.100000       0.992070
     2192.200000       0.990490
     2192.300000       0.988770
     2192.400000       0.986910
     2192.500000       0.984900
     2192.600000       0.982770
     2192.700000       0.980490
     2192.800000       0.978070
     2192.900000       0.975520
     2193.000000       0.972830
     2193.100000       0.970000
     2193.200000       0.967030
     2193.300000       0.963930
     2193.400000       0.960700
     2193.500000       0.957330
     2193.600000       0.953830
     2193.700000       0.950190
     2193.800000       0.946420
     2193.900000       0.942510
     2194.000000       0.938480
     2194.100000       0.934320
     2194.200000       0.930030
     2194.300000       0.925600
     2194.400000       0.921050
     2194.500000       0.916370
     2194.600000       0.911550
     2194.700000       0.906600
     2194.800000       0.901530
     2194.900000       0.896320
     2195.000000       0.890980
     2195.100000       0.885510
     2195.200000       0.879920
     2195.300000       0.874190
     2195.400000       0.868330
     2195.500000       0.862350
     2195.600000       0.856240
     2195.700000       0.850000
     2195.800000       0.843630
     2195.900000       0.837130
     2196.000000       0.830510
     2196.100000       0.823750
     2196.200000       0.816870
     2196.300000       0.809860
     2196.400000       0.802730
     2196.500000       0.795480
     2196.600000       0.788110
     2196.700000       0.780610
     2196.800000       0.773000
     2196.900000       0.765270
     2197.000000       0.757430
     2197.100000       0.749470
     2197.200000       0.741410
     2197.300000       0.733230
     2197.400000       0.724950
     2197.500000       0.716560
     2197.600000       0.708060
     2197.700000       0.699470
     2197.800000       0.690770
     2197.900000       0.681980
     2198.000000       0.673100
     2198.100000       0.664160
     2198.200000       0.655140
     2198.300000       0.646030
     2198.400000       0.636850
     2198.500000       0.627580
     2198.600000       0.618250
     2198.700000       0.608850
     2198.800000       0.599390
     2198.900000       0.589870
     2199.000000       0.580300
     2199.100000       0.570680
     2199.200000       0.561020
     2199.300000       0.551320
     2199.400000       0.541590
     2199.500000       0.531840
     2199.600000       0.522060
     2199.700000       0.512270
     2199.800000       0.502470
     2199.900000       0.492670
     2200.000000       0.482870
     2200.100000       0.473050
     2200.200000       0.463250
     2200.300000       0.453480
     2200.400000       0.443730
     2200.500000       0.434020
     2200.600000       0.424350
     2200.700000       0.414730
     2200.800000       0.405170
     2200.900000       0.395660
     2201.000000       0.386220
     2201.100000       0.376860
     2201.200000       0.367570
     2201.300000       0.358370
     2201.400000       0.349250
     2201.500000       0.340240
     2201.600000       0.331320
     2201.700000       0.322510
     2201.800000       0.313810
     2201.900000       0.305230
     2202.000000       0.296770
     2202.100000       0.288440
     2202.200000       0.280230
     2202.300000       0.272160
     2202.400000       0.264220
     2202.500000       0.256430
     2202.600000       0.248770
     2202.700000       0.241260
     2202.800000       0.233900
     2202.900000       0.226690
     2203.000000       0.219640
     2203.100000       0.212730
     2203.200000       0.205980
     2203.300000       0.199380
     2203.400000       0.192940
     2203.500000       0.186660
     2203.600000       0.180530
     2203.700000       0.174560
     2203.800000       0.168740
     2203.900000       0.163080
     2204.000000       0.157570
     2204.100000       0.152220
     2204.200000       0.147010
     2204.300000       0.141960
     2204.400000       0.137050
     2204.500000       0.132290
     2204.600000       0.127670
     2204.700000       0.123190
     2204.800000       0.118850
     2204.900000       0.114640
     2205.000000       0.110570
     2205.100000       0.106630
     2205.200000       0.102810
     2205.300000       0.099120
     2205.400000       0.095548
     2205.500000       0.092094
     2205.600000       0.088755
     2205.700000       0.085528
     2205.800000       0.082410
     2205.900000       0.079397
     2206.000000       0.076488
     2206.100000       0.074164
     2206.200000       0.071439
     2206.300000       0.068809
     2206.400000       0.066269
     2206.500000       0.063818
     2206.600000       0.061454
     2206.700000       0.059172
     2206.800000       0.056972
     2206.900000       0.054850
     2207.000000       0.052804
     2207.100000       0.050833
     2207.200000       0.048933
     2207.300000       0.047102
     2207.400000       0.045339
     2207.500000       0.043642
     2207.600000       0.042007
     2207.700000       0.040435
     2207.800000       0.038921
     2207.900000       0.037466
     2208.000000       0.036067
     2208.100000       0.034722
     2208.200000       0.033429
     2208.300000       0.032187
     2208.400000       0.030996
     2208.500000       0.029852
     2208.600000       0.028755
     2208.700000       0.027704
     2208.800000       0.026696
     2208.900000       0.025730
     2209.000000       0.024805
     2209.100000       0.023919
     2209.200000       0.023072
     2209.300000       0.022261
     2209.400000       0.021484
     2209.500000       0.020742
     2209.600000       0.020031
     2209.700000       0.019351
     2209.800000       0.018701
     2209.900000       0.018079
     2210.000000       0.017483
     2210.100000       0.016913
     2210.200000       0.016367
     2210.300000       0.015844
     2210.400000       0.015342
     2210.500000       0.014860
     2210.600000       0.014398
     2210.700000       0.013954
     2210.800000       0.013526
     2210.900000       0.013114
     2211.000000       0.012718
     2211.100000       0.012335
     2211.200000       0.011966
     2211.300000       0.011609
     2211.400000       0.011263
     2211.500000       0.010928
     2211.600000       0.010603
     2211.700000       0.010288
     2211.800000       0.009981
     2211.900000       0.009682
     2212.000000       0.009392
     2212.100000       0.009109
     2212.200000       0.008833
     2212.300000       0.008563
     2212.400000       0.008301
     2212.500000       0.008045
     2212.600000       0.007795
     2212.700000       0.007551
     2212.800000       0.007313
     2212.900000       0.007080
     2213.000000       0.006854
     2213.100000       0.006634
     2213.200000       0.006419
     2213.300000       0.006211
     2213.400000       0.006008
     2213.500000       0.005811
     2213.600000       0.005621
     2213.700000       0.005436
     2213.800000       0.005258
     2213.900000       0.005087
     2214.000000       0.004921
     2214.100000       0.004763
     2214.200000       0.004610
     2214.300000       0.004465
     2214.400000       0.004325
     2214.500000       0.004193
     2214.600000       0.004066
     2214.700000       0.003947
     2214.800000       0.003833
     2214.900000       0.003725
     2215.000000       0.003623
     2215.100000       0.003527
     2215.200000       0.000000
