54,   54, MVIRI VIS channel from srf_MET2_1988303_1988304_1801-Release_S10EL_10.dat
Number of data points:
730
Wavenumber (cm-1)   Filter response
     8916.629500       0.000000
     8924.587200       0.000000
     8932.559200       0.000002
     8940.545400       0.000012
     8948.545900       0.000032
     8956.560700       0.000069
     8964.589900       0.000127
     8972.633500       0.000209
     8980.691500       0.000321
     8988.764000       0.000464
     8996.851100       0.000644
     9004.952700       0.000864
     9013.068900       0.001127
     9021.199800       0.001437
     9029.345400       0.001796
     9037.505600       0.002207
     9045.680700       0.002673
     9053.870500       0.003198
     9062.075200       0.003782
     9070.294800       0.004429
     9078.529300       0.005142
     9086.778700       0.005921
     9095.043200       0.006769
     9103.322700       0.007688
     9111.617300       0.008680
     9119.927000       0.009746
     9128.251900       0.010888
     9136.592100       0.012107
     9144.947400       0.013405
     9153.318100       0.014782
     9161.704100       0.016241
     9170.105500       0.017781
     9178.522300       0.019404
     9186.954500       0.021110
     9195.402300       0.022901
     9203.865600       0.024776
     9212.344500       0.026738
     9220.839100       0.028785
     9229.349300       0.030919
     9237.875300       0.033139
     9246.417000       0.035446
     9254.974500       0.037840
     9263.547900       0.040322
     9272.137200       0.042890
     9280.742500       0.045546
     9289.363700       0.048288
     9298.000900       0.051118
     9306.654300       0.054034
     9315.323700       0.057036
     9324.009300       0.060125
     9332.711200       0.063299
     9341.429200       0.066557
     9350.163600       0.069901
     9358.914400       0.073328
     9367.681500       0.076839
     9376.465100       0.080432
     9385.265100       0.084107
     9394.081700       0.087864
     9402.914900       0.091701
     9411.764700       0.095617
     9420.631200       0.099613
     9429.514400       0.103686
     9438.414300       0.107836
     9447.331100       0.112061
     9456.264800       0.116362
     9465.215300       0.120736
     9474.182900       0.125183
     9483.167400       0.129702
     9492.169000       0.134291
     9501.187600       0.138950
     9510.223500       0.143677
     9519.276500       0.148471
     9528.346800       0.153330
     9537.434400       0.158255
     9546.539400       0.163242
     9555.661700       0.168291
     9564.801500       0.173401
     9573.958800       0.178570
     9583.133700       0.183798
     9592.326100       0.189081
     9601.536200       0.194420
     9610.764100       0.199813
     9620.009600       0.205259
     9629.273000       0.210756
     9638.554200       0.216303
     9647.853400       0.221898
     9657.170400       0.227539
     9666.505600       0.233227
     9675.858700       0.238959
     9685.230000       0.244733
     9694.619500       0.250548
     9704.027200       0.256403
     9713.453100       0.262297
     9722.897400       0.268228
     9732.360100       0.274193
     9741.841200       0.280194
     9751.340800       0.286226
     9760.859000       0.292290
     9770.395700       0.298383
     9779.951100       0.304505
     9789.525200       0.310654
     9799.118100       0.316828
     9808.729800       0.323025
     9818.360300       0.329246
     9828.009800       0.335487
     9837.678300       0.341749
     9847.365800       0.348029
     9857.072400       0.354325
     9866.798200       0.360638
     9876.543200       0.366964
     9886.307500       0.373303
     9896.091000       0.379654
     9905.894000       0.386015
     9915.716400       0.392385
     9925.558300       0.398761
     9935.419800       0.405145
     9945.300800       0.411533
     9955.201600       0.417924
     9965.122100       0.424318
     9975.062300       0.430712
     9985.022500       0.437107
     9995.002500       0.443500
    10005.002500       0.449890
    10015.022500       0.456276
    10025.062700       0.462656
    10035.122900       0.469030
    10045.203400       0.475397
    10055.304200       0.481755
    10065.425300       0.488103
    10075.566800       0.494440
    10085.728700       0.500765
    10095.911200       0.507077
    10106.114200       0.513374
    10116.337900       0.519655
    10126.582300       0.525920
    10136.847400       0.532167
    10147.133400       0.538397
    10157.440300       0.544606
    10167.768200       0.550794
    10178.117000       0.556961
    10188.487000       0.563106
    10198.878100       0.569227
    10209.290500       0.575323
    10219.724100       0.581394
    10230.179000       0.587439
    10240.655400       0.593457
    10251.153300       0.599447
    10261.672700       0.605407
    10272.213700       0.611338
    10282.776300       0.617239
    10293.360800       0.623108
    10303.967000       0.628945
    10314.595200       0.634750
    10325.245200       0.640520
    10335.917300       0.646257
    10346.611500       0.651958
    10357.327800       0.657623
    10368.066400       0.663252
    10378.827200       0.668843
    10389.610400       0.674398
    10400.416000       0.679913
    10411.244100       0.685390
    10422.094800       0.690826
    10432.968200       0.696223
    10443.864200       0.701579
    10454.783100       0.706894
    10465.724800       0.712166
    10476.689400       0.717397
    10487.677000       0.722584
    10498.687700       0.727728
    10509.721500       0.732828
    10520.778500       0.737884
    10531.858900       0.742895
    10542.962600       0.747861
    10554.089700       0.752782
    10565.240400       0.757656
    10576.414600       0.762484
    10587.612500       0.767266
    10598.834100       0.772000
    10610.079600       0.776687
    10621.348900       0.781326
    10632.642200       0.785917
    10643.959600       0.790460
    10655.301000       0.794955
    10666.666700       0.799400
    10678.056600       0.803796
    10689.470900       0.808144
    10700.909600       0.812441
    10712.372800       0.816689
    10723.860600       0.820887
    10735.373100       0.825035
    10746.910300       0.829132
    10758.472300       0.833179
    10770.059200       0.837176
    10781.671200       0.841122
    10793.308100       0.845017
    10804.970300       0.848861
    10816.657700       0.852654
    10828.370300       0.856396
    10840.108400       0.860086
    10851.871900       0.863726
    10863.661100       0.867315
    10875.475800       0.870852
    10887.316300       0.874337
    10899.182600       0.877772
    10911.074700       0.881155
    10922.992900       0.884487
    10934.937100       0.887767
    10946.907500       0.890997
    10958.904100       0.894175
    10970.927000       0.897302
    10982.976400       0.900378
    10995.052200       0.903402
    11007.154700       0.906376
    11019.283700       0.909299
    11031.439600       0.912171
    11043.622300       0.914993
    11055.832000       0.917764
    11068.068600       0.920484
    11080.332400       0.923155
    11092.623400       0.925775
    11104.941700       0.928345
    11117.287400       0.930865
    11129.660500       0.933336
    11142.061300       0.935757
    11154.489700       0.938129
    11166.945800       0.940451
    11179.429800       0.942725
    11191.941800       0.944950
    11204.481800       0.947126
    11217.049900       0.949254
    11229.646300       0.951334
    11242.270900       0.953366
    11254.924000       0.955350
    11267.605600       0.957287
    11280.315800       0.959177
    11293.054800       0.961019
    11305.822500       0.962815
    11318.619100       0.964564
    11331.444800       0.966268
    11344.299500       0.967925
    11357.183400       0.969536
    11370.096600       0.971103
    11383.039300       0.972624
    11396.011400       0.974100
    11409.013100       0.975531
    11422.044500       0.976919
    11435.105800       0.978262
    11448.196900       0.979562
    11461.318100       0.980818
    11474.469300       0.982031
    11487.650800       0.983202
    11500.862600       0.984329
    11514.104800       0.985415
    11527.377500       0.986459
    11540.680900       0.987461
    11554.015000       0.988422
    11567.380000       0.989343
    11580.775900       0.990222
    11594.202900       0.991061
    11607.661100       0.991861
    11621.150500       0.992620
    11634.671300       0.993341
    11648.223600       0.994022
    11661.807600       0.994665
    11675.423200       0.995269
    11689.070700       0.995835
    11702.750100       0.996364
    11716.461600       0.996855
    11730.205300       0.997310
    11743.981200       0.997728
    11757.789500       0.998109
    11771.630400       0.998454
    11785.503800       0.998764
    11799.410000       0.999038
    11813.349100       0.999278
    11827.321100       0.999482
    11841.326200       0.999652
    11855.364600       0.999789
    11869.436200       0.999891
    11883.541300       0.999960
    11897.680000       0.999997
    11911.852300       1.000000
    11926.058400       0.999971
    11940.298500       0.999910
    11954.572600       0.999817
    11968.880900       0.999693
    11983.223500       0.999538
    11997.600500       0.999352
    12012.012000       0.999136
    12026.458200       0.998889
    12040.939200       0.998613
    12055.455100       0.998307
    12070.006000       0.997972
    12084.592100       0.997608
    12099.213600       0.997215
    12113.870400       0.996795
    12128.562800       0.996346
    12143.290800       0.995870
    12158.054700       0.995366
    12172.854500       0.994835
    12187.690400       0.994278
    12202.562500       0.993694
    12217.471000       0.993083
    12232.415900       0.992447
    12247.397400       0.991786
    12262.415700       0.991099
    12277.470800       0.990387
    12292.563000       0.989650
    12307.692300       0.988889
    12322.858900       0.988104
    12338.062900       0.987294
    12353.304500       0.986461
    12368.583800       0.985605
    12383.900900       0.984725
    12399.256000       0.983823
    12414.649300       0.982898
    12430.080800       0.981951
    12445.550700       0.980981
    12461.059200       0.979990
    12476.606400       0.978977
    12492.192400       0.977943
    12507.817400       0.976887
    12523.481500       0.975811
    12539.185000       0.974714
    12554.927800       0.973597
    12570.710200       0.972459
    12586.532400       0.971302
    12602.394500       0.970124
    12618.296500       0.968928
    12634.238800       0.967711
    12650.221400       0.966476
    12666.244500       0.965222
    12682.308200       0.963949
    12698.412700       0.962658
    12714.558200       0.961349
    12730.744700       0.960021
    12746.972600       0.958676
    12763.241900       0.957312
    12779.552700       0.955932
    12795.905300       0.954534
    12812.299800       0.953119
    12828.736400       0.951687
    12845.215200       0.950238
    12861.736300       0.948772
    12878.300100       0.947291
    12894.906500       0.945792
    12911.555800       0.944278
    12928.248200       0.942748
    12944.983800       0.941202
    12961.762800       0.939641
    12978.585300       0.938064
    12995.451600       0.936472
    13012.361700       0.934865
    13029.316000       0.933242
    13046.314400       0.931605
    13063.357300       0.929953
    13080.444700       0.928287
    13097.576900       0.926606
    13114.754100       0.924911
    13131.976400       0.923201
    13149.243900       0.921478
    13166.556900       0.919741
    13183.915600       0.917990
    13201.320100       0.916225
    13218.770700       0.914447
    13236.267400       0.912655
    13253.810500       0.910850
    13271.400100       0.909032
    13289.036500       0.907201
    13306.719900       0.905356
    13324.450400       0.903499
    13342.228200       0.901629
    13360.053400       0.899747
    13377.926400       0.897852
    13395.847300       0.895944
    13413.816200       0.894025
    13431.833400       0.892092
    13449.899100       0.890148
    13468.013500       0.888192
    13486.176700       0.886223
    13504.388900       0.884243
    13522.650400       0.882251
    13540.961400       0.880247
    13559.322000       0.878232
    13577.732500       0.876205
    13596.193100       0.874167
    13614.703900       0.872117
    13633.265200       0.870056
    13651.877100       0.867984
    13670.540000       0.865900
    13689.253900       0.863806
    13708.019200       0.861700
    13726.836000       0.859584
    13745.704500       0.857457
    13764.624900       0.855319
    13783.597500       0.853170
    13802.622500       0.851011
    13821.700100       0.848841
    13840.830400       0.846660
    13860.013900       0.844469
    13879.250500       0.842268
    13898.540700       0.840057
    13917.884500       0.837835
    13937.282200       0.835603
    13956.734100       0.833361
    13976.240400       0.831109
    13995.801300       0.828848
    14015.417000       0.826576
    14035.087700       0.824294
    14054.813800       0.822003
    14074.595400       0.819702
    14094.432700       0.817391
    14114.326000       0.815071
    14134.275600       0.812741
    14154.281700       0.810401
    14174.344400       0.808053
    14194.464200       0.805695
    14214.641100       0.803328
    14234.875400       0.800951
    14255.167500       0.798566
    14275.517500       0.796171
    14295.925700       0.793768
    14316.392300       0.791355
    14336.917600       0.788934
    14357.501800       0.786504
    14378.145200       0.784065
    14398.848100       0.781618
    14419.610700       0.779162
    14440.433200       0.776697
    14461.316000       0.774224
    14482.259200       0.771743
    14503.263200       0.769253
    14524.328200       0.766755
    14545.454500       0.764249
    14566.642400       0.761735
    14587.892000       0.759213
    14609.203800       0.756683
    14630.577900       0.754145
    14652.014700       0.751599
    14673.514300       0.749045
    14695.077100       0.746484
    14716.703500       0.743916
    14738.393500       0.741340
    14760.147600       0.738756
    14781.966000       0.736165
    14803.849000       0.733567
    14825.796900       0.730962
    14847.809900       0.728350
    14869.888500       0.725731
    14892.032800       0.723105
    14914.243100       0.720472
    14936.519800       0.717833
    14958.863100       0.715187
    14981.273400       0.712534
    15003.750900       0.709875
    15026.296000       0.707210
    15048.909000       0.704538
    15071.590100       0.701861
    15094.339600       0.699177
    15117.158000       0.696487
    15140.045400       0.693792
    15163.002300       0.691091
    15186.028900       0.688384
    15209.125500       0.685672
    15232.292500       0.682955
    15255.530100       0.680232
    15278.838800       0.677504
    15302.218800       0.674771
    15325.670500       0.672032
    15349.194200       0.669290
    15372.790200       0.666542
    15396.458800       0.663790
    15420.200500       0.661033
    15444.015400       0.658272
    15467.904100       0.655507
    15491.866800       0.652737
    15515.903800       0.649964
    15540.015500       0.647186
    15564.202300       0.644405
    15588.464500       0.641620
    15612.802500       0.638832
    15637.216600       0.636041
    15661.707100       0.633246
    15686.274500       0.630448
    15710.919100       0.627647
    15735.641200       0.624843
    15760.441300       0.622036
    15785.319700       0.619227
    15810.276700       0.616416
    15835.312700       0.613602
    15860.428200       0.610786
    15885.623500       0.607968
    15910.899000       0.605148
    15936.255000       0.602326
    15961.691900       0.599503
    15987.210200       0.596678
    16012.810200       0.593852
    16038.492400       0.591025
    16064.257000       0.588196
    16090.104600       0.585367
    16116.035500       0.582537
    16142.050000       0.579707
    16168.148700       0.576876
    16194.332000       0.574045
    16220.600200       0.571213
    16246.953700       0.568382
    16273.393000       0.565550
    16299.918500       0.562719
    16326.530600       0.559889
    16353.229800       0.557059
    16380.016400       0.554229
    16406.890900       0.551401
    16433.853700       0.548574
    16460.905300       0.545748
    16488.046200       0.542923
    16515.276600       0.540100
    16542.597200       0.537278
    16570.008300       0.534458
    16597.510400       0.531640
    16625.103900       0.528824
    16652.789300       0.526011
    16680.567100       0.523199
    16708.437800       0.520391
    16736.401700       0.517585
    16764.459300       0.514781
    16792.611300       0.511981
    16820.857900       0.509184
    16849.199700       0.506390
    16877.637100       0.503599
    16906.170800       0.500813
    16934.801000       0.498029
    16963.528400       0.495250
    16992.353400       0.492475
    17021.276600       0.489703
    17050.298400       0.486936
    17079.419300       0.484173
    17108.639900       0.481415
    17137.960600       0.478662
    17167.382000       0.475913
    17196.904600       0.473169
    17226.528900       0.470430
    17256.255400       0.467696
    17286.084700       0.464968
    17316.017300       0.462245
    17346.053800       0.459528
    17376.194600       0.456816
    17406.440400       0.454110
    17436.791600       0.451410
    17467.248900       0.448716
    17497.812800       0.446028
    17528.483800       0.443346
    17559.262500       0.440671
    17590.149500       0.438002
    17621.145400       0.435339
    17652.250700       0.432684
    17683.466000       0.430035
    17714.791900       0.427393
    17746.228900       0.424758
    17777.777800       0.422130
    17809.439000       0.419509
    17841.213200       0.416895
    17873.101000       0.414288
    17905.103000       0.411689
    17937.219700       0.409098
    17969.451900       0.406514
    18001.800200       0.403937
    18034.265100       0.401368
    18066.847300       0.398807
    18099.547500       0.396254
    18132.366300       0.393708
    18165.304300       0.391170
    18198.362100       0.388641
    18231.540600       0.386119
    18264.840200       0.383606
    18298.261700       0.381100
    18331.805700       0.378602
    18365.472900       0.376113
    18399.264000       0.373632
    18433.179700       0.371159
    18467.220700       0.368695
    18501.387600       0.366238
    18535.681200       0.363790
    18570.102100       0.361350
    18604.651200       0.358919
    18639.329000       0.356495
    18674.136300       0.354080
    18709.073900       0.351674
    18744.142500       0.349275
    18779.342700       0.346885
    18814.675400       0.344503
    18850.141400       0.342129
    18885.741300       0.339764
    18921.475900       0.337407
    18957.346000       0.335057
    18993.352300       0.332716
    19029.495700       0.330383
    19065.776900       0.328058
    19102.196800       0.325741
    19138.756000       0.323432
    19175.455400       0.321130
    19212.295900       0.318837
    19249.278200       0.316551
    19286.403100       0.314273
    19323.671500       0.312002
    19361.084200       0.309739
    19398.642100       0.307483
    19436.346000       0.305235
    19474.196700       0.302994
    19512.195100       0.300760
    19550.342100       0.298533
    19588.638600       0.296313
    19627.085400       0.294100
    19665.683400       0.291893
    19704.433500       0.289693
    19743.336600       0.287500
    19782.393700       0.285312
    19821.605600       0.283131
    19860.973200       0.280957
    19900.497500       0.278788
    19940.179500       0.276625
    19980.020000       0.274467
    20020.020000       0.272315
    20060.180500       0.270169
    20100.502500       0.268028
    20140.986900       0.265891
    20181.634700       0.263760
    20222.446900       0.261633
    20263.424500       0.259511
    20304.568500       0.257394
    20345.880000       0.255280
    20387.359800       0.253171
    20429.009200       0.251065
    20470.829100       0.248963
    20512.820500       0.246865
    20554.984600       0.244770
    20597.322300       0.242678
    20639.834900       0.240589
    20682.523300       0.238503
    20725.388600       0.236419
    20768.432000       0.234338
    20811.654500       0.232258
    20855.057400       0.230181
    20898.641600       0.228105
    20942.408400       0.226031
    20986.358900       0.223959
    21030.494200       0.221887
    21074.815600       0.219816
    21119.324200       0.217746
    21164.021200       0.215676
    21208.907700       0.213607
    21253.985100       0.211538
    21299.254500       0.209468
    21344.717200       0.207399
    21390.374300       0.205328
    21436.227200       0.203257
    21482.277100       0.201185
    21528.525300       0.199111
    21574.973000       0.197036
    21621.621600       0.194960
    21668.472400       0.192882
    21715.526600       0.190801
    21762.785600       0.188719
    21810.250800       0.186634
    21857.923500       0.184546
    21905.805000       0.182455
    21953.896800       0.180362
    22002.200200       0.178265
    22050.716600       0.176165
    22099.447500       0.174061
    22148.394200       0.171953
    22197.558300       0.169841
    22246.941000       0.167726
    22296.544000       0.165606
    22346.368700       0.163481
    22396.416600       0.161352
    22446.689100       0.159218
    22497.187900       0.157079
    22547.914300       0.154935
    22598.870100       0.152786
    22650.056600       0.150631
    22701.475600       0.148471
    22753.128600       0.146306
    22805.017100       0.144135
    22857.142900       0.141958
    22909.507400       0.139775
    22962.112500       0.137586
    23014.959700       0.135391
    23068.050700       0.133190
    23121.387300       0.130983
    23174.971000       0.128770
    23228.803700       0.126550
    23282.887100       0.124325
    23337.222900       0.122093
    23391.812900       0.119854
    23446.658900       0.117610
    23501.762600       0.115359
    23557.126000       0.113102
    23612.750900       0.110839
    23668.639100       0.108570
    23724.792400       0.106294
    23781.212800       0.104013
    23837.902300       0.101726
    23894.862600       0.099433
    23952.095800       0.097135
    24009.603800       0.094831
    24067.388700       0.092522
    24125.452400       0.090208
    24183.796900       0.087889
    24242.424200       0.085565
    24301.336600       0.083237
    24360.535900       0.080905
    24420.024400       0.078568
    24479.804200       0.076228
    24539.877300       0.073885
    24600.246000       0.071539
    24660.912500       0.069190
    24721.878900       0.066839
    24783.147500       0.064486
    24844.720500       0.062131
    24906.600200       0.059776
    24968.789000       0.057420
    25031.289100       0.055064
    25094.102900       0.052708
    25157.232700       0.050353
    25220.681000       0.048000
    25284.450100       0.045649
    25348.542500       0.043300
    25412.960600       0.040955
    25477.707000       0.038615
