03 , goes_13_imager_04.flt
Number of data points:
1556
Wavenumber (cm-1)   Filter response
      845.000000       0.000012
      845.100000       0.000012
      845.200000       0.000013
      845.300000       0.000013
      845.400000       0.000013
      845.500000       0.000014
      845.600000       0.000014
      845.700000       0.000014
      845.800000       0.000013
      845.900000       0.000013
      846.000000       0.000012
      846.100000       0.000012
      846.200000       0.000012
      846.300000       0.000012
      846.400000       0.000012
      846.500000       0.000012
      846.600000       0.000013
      846.700000       0.000014
      846.800000       0.000015
      846.900000       0.000016
      847.000000       0.000018
      847.100000       0.000019
      847.200000       0.000020
      847.300000       0.000021
      847.400000       0.000021
      847.500000       0.000021
      847.600000       0.000021
      847.700000       0.000021
      847.800000       0.000021
      847.900000       0.000022
      848.000000       0.000023
      848.100000       0.000024
      848.200000       0.000025
      848.300000       0.000025
      848.400000       0.000026
      848.500000       0.000026
      848.600000       0.000026
      848.700000       0.000027
      848.800000       0.000029
      848.900000       0.000032
      849.000000       0.000034
      849.100000       0.000037
      849.200000       0.000039
      849.300000       0.000040
      849.400000       0.000040
      849.500000       0.000040
      849.600000       0.000040
      849.700000       0.000040
      849.800000       0.000039
      849.900000       0.000037
      850.000000       0.000033
      850.100000       0.000029
      850.200000       0.000025
      850.300000       0.000022
      850.400000       0.000020
      850.500000       0.000018
      850.600000       0.000019
      850.700000       0.000020
      850.800000       0.000019
      850.900000       0.000017
      851.000000       0.000017
      851.100000       0.000017
      851.200000       0.000018
      851.300000       0.000018
      851.400000       0.000019
      851.500000       0.000021
      851.600000       0.000024
      851.700000       0.000025
      851.800000       0.000026
      851.900000       0.000025
      852.000000       0.000024
      852.100000       0.000023
      852.200000       0.000024
      852.300000       0.000028
      852.400000       0.000034
      852.500000       0.000041
      852.600000       0.000047
      852.700000       0.000053
      852.800000       0.000059
      852.900000       0.000063
      853.000000       0.000066
      853.100000       0.000069
      853.200000       0.000072
      853.300000       0.000076
      853.400000       0.000079
      853.500000       0.000082
      853.600000       0.000083
      853.700000       0.000084
      853.800000       0.000087
      853.900000       0.000094
      854.000000       0.000102
      854.100000       0.000107
      854.200000       0.000109
      854.300000       0.000114
      854.400000       0.000121
      854.500000       0.000127
      854.600000       0.000129
      854.700000       0.000129
      854.800000       0.000128
      854.900000       0.000125
      855.000000       0.000121
      855.100000       0.000118
      855.200000       0.000120
      855.300000       0.000130
      855.400000       0.000144
      855.500000       0.000160
      855.600000       0.000172
      855.700000       0.000179
      855.800000       0.000183
      855.900000       0.000188
      856.000000       0.000194
      856.100000       0.000202
      856.200000       0.000212
      856.300000       0.000222
      856.400000       0.000233
      856.500000       0.000243
      856.600000       0.000252
      856.700000       0.000262
      856.800000       0.000272
      856.900000       0.000284
      857.000000       0.000298
      857.100000       0.000311
      857.200000       0.000320
      857.300000       0.000326
      857.400000       0.000331
      857.500000       0.000337
      857.600000       0.000344
      857.700000       0.000349
      857.800000       0.000349
      857.900000       0.000343
      858.000000       0.000333
      858.100000       0.000321
      858.200000       0.000312
      858.300000       0.000308
      858.400000       0.000310
      858.500000       0.000317
      858.600000       0.000331
      858.700000       0.000353
      858.800000       0.000386
      858.900000       0.000428
      859.000000       0.000476
      859.100000       0.000526
      859.200000       0.000571
      859.300000       0.000607
      859.400000       0.000634
      859.500000       0.000654
      859.600000       0.000674
      859.700000       0.000696
      859.800000       0.000711
      859.900000       0.000712
      860.000000       0.000703
      860.100000       0.000693
      860.200000       0.000682
      860.300000       0.000671
      860.400000       0.000667
      860.500000       0.000687
      860.600000       0.000731
      860.700000       0.000786
      860.800000       0.000836
      860.900000       0.000878
      861.000000       0.000904
      861.100000       0.000917
      861.200000       0.000917
      861.300000       0.000912
      861.400000       0.000915
      861.500000       0.000928
      861.600000       0.000942
      861.700000       0.000952
      861.800000       0.000959
      861.900000       0.000967
      862.000000       0.000987
      862.100000       0.001031
      862.200000       0.001084
      862.300000       0.001126
      862.400000       0.001151
      862.500000       0.001164
      862.600000       0.001165
      862.700000       0.001147
      862.800000       0.001111
      862.900000       0.001080
      863.000000       0.001072
      863.100000       0.001080
      863.200000       0.001093
      863.300000       0.001105
      863.400000       0.001114
      863.500000       0.001118
      863.600000       0.001116
      863.700000       0.001111
      863.800000       0.001108
      863.900000       0.001110
      864.000000       0.001111
      864.100000       0.001103
      864.200000       0.001088
      864.300000       0.001066
      864.400000       0.001032
      864.500000       0.000979
      864.600000       0.000913
      864.700000       0.000857
      864.800000       0.000823
      864.900000       0.000811
      865.000000       0.000821
      865.100000       0.000849
      865.200000       0.000894
      865.300000       0.000946
      865.400000       0.000997
      865.500000       0.001031
      865.600000       0.001026
      865.700000       0.000986
      865.800000       0.000945
      865.900000       0.000926
      866.000000       0.000920
      866.100000       0.000921
      866.200000       0.000934
      866.300000       0.000965
      866.400000       0.000998
      866.500000       0.001005
      866.600000       0.000985
      866.700000       0.000954
      866.800000       0.000925
      866.900000       0.000906
      867.000000       0.000905
      867.100000       0.000934
      867.200000       0.001003
      867.300000       0.001100
      867.400000       0.001210
      867.500000       0.001307
      867.600000       0.001360
      867.700000       0.001367
      867.800000       0.001352
      867.900000       0.001327
      868.000000       0.001295
      868.100000       0.001256
      868.200000       0.001218
      868.300000       0.001191
      868.400000       0.001187
      868.500000       0.001219
      868.600000       0.001278
      868.700000       0.001338
      868.800000       0.001391
      868.900000       0.001442
      869.000000       0.001501
      869.100000       0.001573
      869.200000       0.001661
      869.300000       0.001746
      869.400000       0.001802
      869.500000       0.001822
      869.600000       0.001805
      869.700000       0.001761
      869.800000       0.001711
      869.900000       0.001671
      870.000000       0.001654
      870.100000       0.001660
      870.200000       0.001666
      870.300000       0.001650
      870.400000       0.001634
      870.500000       0.001644
      870.600000       0.001671
      870.700000       0.001687
      870.800000       0.001689
      870.900000       0.001697
      871.000000       0.001724
      871.100000       0.001779
      871.200000       0.001867
      871.300000       0.001979
      871.400000       0.002106
      871.500000       0.002215
      871.600000       0.002265
      871.700000       0.002257
      871.800000       0.002214
      871.900000       0.002156
      872.000000       0.002094
      872.100000       0.002043
      872.200000       0.002026
      872.300000       0.002059
      872.400000       0.002121
      872.500000       0.002186
      872.600000       0.002247
      872.700000       0.002307
      872.800000       0.002374
      872.900000       0.002463
      873.000000       0.002579
      873.100000       0.002709
      873.200000       0.002844
      873.300000       0.002970
      873.400000       0.003075
      873.500000       0.003152
      873.600000       0.003194
      873.700000       0.003217
      873.800000       0.003246
      873.900000       0.003300
      874.000000       0.003393
      874.100000       0.003528
      874.200000       0.003687
      874.300000       0.003855
      874.400000       0.004023
      874.500000       0.004185
      874.600000       0.004344
      874.700000       0.004505
      874.800000       0.004669
      874.900000       0.004833
      875.000000       0.004988
      875.100000       0.005120
      875.200000       0.005223
      875.300000       0.005310
      875.400000       0.005396
      875.500000       0.005497
      875.600000       0.005631
      875.700000       0.005803
      875.800000       0.006020
      875.900000       0.006265
      876.000000       0.006511
      876.100000       0.006736
      876.200000       0.006936
      876.300000       0.007103
      876.400000       0.007243
      876.500000       0.007361
      876.600000       0.007471
      876.700000       0.007591
      876.800000       0.007736
      876.900000       0.007920
      877.000000       0.008146
      877.100000       0.008402
      877.200000       0.008681
      877.300000       0.008972
      877.400000       0.009265
      877.500000       0.009553
      877.600000       0.009830
      877.700000       0.010103
      877.800000       0.010383
      877.900000       0.010678
      878.000000       0.010996
      878.100000       0.011340
      878.200000       0.011712
      878.300000       0.012098
      878.400000       0.012453
      878.500000       0.012741
      878.600000       0.012992
      878.700000       0.013249
      878.800000       0.013525
      878.900000       0.013824
      879.000000       0.014161
      879.100000       0.014558
      879.200000       0.015014
      879.300000       0.015485
      879.400000       0.015945
      879.500000       0.016401
      879.600000       0.016866
      879.700000       0.017334
      879.800000       0.017793
      879.900000       0.018250
      880.000000       0.018717
      880.100000       0.019202
      880.200000       0.019710
      880.300000       0.020236
      880.400000       0.020767
      880.500000       0.021303
      880.600000       0.021895
      880.700000       0.022602
      880.800000       0.023387
      880.900000       0.024194
      881.000000       0.025005
      881.100000       0.025835
      881.200000       0.026663
      881.300000       0.027423
      881.400000       0.028090
      881.500000       0.028759
      881.600000       0.029511
      881.700000       0.030321
      881.800000       0.031148
      881.900000       0.031985
      882.000000       0.032835
      882.100000       0.033709
      882.200000       0.034621
      882.300000       0.035578
      882.400000       0.036576
      882.500000       0.037607
      882.600000       0.038659
      882.700000       0.039724
      882.800000       0.040809
      882.900000       0.041929
      883.000000       0.043097
      883.100000       0.044331
      883.200000       0.045627
      883.300000       0.046954
      883.400000       0.048291
      883.500000       0.049627
      883.600000       0.050963
      883.700000       0.052330
      883.800000       0.053762
      883.900000       0.055244
      884.000000       0.056741
      884.100000       0.058257
      884.200000       0.059821
      884.300000       0.061444
      884.400000       0.063126
      884.500000       0.064863
      884.600000       0.066644
      884.700000       0.068471
      884.800000       0.070365
      884.900000       0.072365
      885.000000       0.074451
      885.100000       0.076592
      885.200000       0.078761
      885.300000       0.080933
      885.400000       0.083100
      885.500000       0.085266
      885.600000       0.087447
      885.700000       0.089687
      885.800000       0.092025
      885.900000       0.094439
      886.000000       0.096891
      886.100000       0.099377
      886.200000       0.101908
      886.300000       0.104489
      886.400000       0.107129
      886.500000       0.109835
      886.600000       0.112622
      886.700000       0.115501
      886.800000       0.118423
      886.900000       0.121348
      887.000000       0.124284
      887.100000       0.127267
      887.200000       0.130315
      887.300000       0.133433
      887.400000       0.136638
      887.500000       0.139941
      887.600000       0.143345
      887.700000       0.146790
      887.800000       0.150227
      887.900000       0.153692
      888.000000       0.157238
      888.100000       0.160869
      888.200000       0.164576
      888.300000       0.168343
      888.400000       0.172161
      888.500000       0.176014
      888.600000       0.179883
      888.700000       0.183768
      888.800000       0.187705
      888.900000       0.191746
      889.000000       0.195881
      889.100000       0.200097
      889.200000       0.204375
      889.300000       0.208690
      889.400000       0.213036
      889.500000       0.217410
      889.600000       0.221820
      889.700000       0.226274
      889.800000       0.230778
      889.900000       0.235351
      890.000000       0.240002
      890.100000       0.244723
      890.200000       0.249506
      890.300000       0.254337
      890.400000       0.259227
      890.500000       0.264176
      890.600000       0.269190
      890.700000       0.274277
      890.800000       0.279407
      890.900000       0.284571
      891.000000       0.289771
      891.100000       0.295027
      891.200000       0.300332
      891.300000       0.305660
      891.400000       0.311010
      891.500000       0.316377
      891.600000       0.321777
      891.700000       0.327248
      891.800000       0.332798
      891.900000       0.338376
      892.000000       0.343922
      892.100000       0.349474
      892.200000       0.355094
      892.300000       0.360772
      892.400000       0.366478
      892.500000       0.372208
      892.600000       0.378012
      892.700000       0.383905
      892.800000       0.389809
      892.900000       0.395677
      893.000000       0.401530
      893.100000       0.407411
      893.200000       0.413329
      893.300000       0.419271
      893.400000       0.425241
      893.500000       0.431229
      893.600000       0.437222
      893.700000       0.443192
      893.800000       0.449117
      893.900000       0.455039
      894.000000       0.460987
      894.100000       0.466956
      894.200000       0.472934
      894.300000       0.478911
      894.400000       0.484896
      894.500000       0.490876
      894.600000       0.496835
      894.700000       0.502782
      894.800000       0.508750
      894.900000       0.514774
      895.000000       0.520808
      895.100000       0.526816
      895.200000       0.532817
      895.300000       0.538833
      895.400000       0.544847
      895.500000       0.550791
      895.600000       0.556661
      895.700000       0.562510
      895.800000       0.568357
      895.900000       0.574198
      896.000000       0.580019
      896.100000       0.585844
      896.200000       0.591702
      896.300000       0.597551
      896.400000       0.603338
      896.500000       0.609066
      896.600000       0.614796
      896.700000       0.620552
      896.800000       0.626289
      896.900000       0.631988
      897.000000       0.637645
      897.100000       0.643263
      897.200000       0.648833
      897.300000       0.654327
      897.400000       0.659771
      897.500000       0.665197
      897.600000       0.670618
      897.700000       0.676033
      897.800000       0.681424
      897.900000       0.686783
      898.000000       0.692092
      898.100000       0.697362
      898.200000       0.702600
      898.300000       0.707796
      898.400000       0.712943
      898.500000       0.718025
      898.600000       0.723028
      898.700000       0.727949
      898.800000       0.732774
      898.900000       0.737520
      899.000000       0.742239
      899.100000       0.746971
      899.200000       0.751690
      899.300000       0.756344
      899.400000       0.760941
      899.500000       0.765487
      899.600000       0.769979
      899.700000       0.774392
      899.800000       0.778729
      899.900000       0.783060
      900.000000       0.787407
      900.100000       0.791704
      900.200000       0.795878
      900.300000       0.799944
      900.400000       0.803934
      900.500000       0.807862
      900.600000       0.811737
      900.700000       0.815577
      900.800000       0.819404
      900.900000       0.823228
      901.000000       0.827017
      901.100000       0.830742
      901.200000       0.834399
      901.300000       0.837969
      901.400000       0.841454
      901.500000       0.844845
      901.600000       0.848165
      901.700000       0.851451
      901.800000       0.854705
      901.900000       0.857907
      902.000000       0.861040
      902.100000       0.864121
      902.200000       0.867158
      902.300000       0.870127
      902.400000       0.873003
      902.500000       0.875800
      902.600000       0.878550
      902.700000       0.881255
      902.800000       0.883887
      902.900000       0.886437
      903.000000       0.888913
      903.100000       0.891318
      903.200000       0.893646
      903.300000       0.895884
      903.400000       0.898058
      903.500000       0.900192
      903.600000       0.902303
      903.700000       0.904403
      903.800000       0.906484
      903.900000       0.908528
      904.000000       0.910519
      904.100000       0.912468
      904.200000       0.914378
      904.300000       0.916245
      904.400000       0.918061
      904.500000       0.919810
      904.600000       0.921474
      904.700000       0.923054
      904.800000       0.924558
      904.900000       0.926014
      905.000000       0.927477
      905.100000       0.928976
      905.200000       0.930483
      905.300000       0.931964
      905.400000       0.933406
      905.500000       0.934789
      905.600000       0.936111
      905.700000       0.937363
      905.800000       0.938546
      905.900000       0.939666
      906.000000       0.940745
      906.100000       0.941833
      906.200000       0.942962
      906.300000       0.944112
      906.400000       0.945259
      906.500000       0.946388
      906.600000       0.947486
      906.700000       0.948548
      906.800000       0.949565
      906.900000       0.950549
      907.000000       0.951526
      907.100000       0.952500
      907.200000       0.953436
      907.300000       0.954300
      907.400000       0.955111
      907.500000       0.955885
      907.600000       0.956635
      907.700000       0.957373
      907.800000       0.958109
      907.900000       0.958852
      908.000000       0.959586
      908.100000       0.960257
      908.200000       0.960838
      908.300000       0.961370
      908.400000       0.961893
      908.500000       0.962422
      908.600000       0.962966
      908.700000       0.963518
      908.800000       0.964061
      908.900000       0.964584
      909.000000       0.965077
      909.100000       0.965539
      909.200000       0.965987
      909.300000       0.966432
      909.400000       0.966875
      909.500000       0.967311
      909.600000       0.967732
      909.700000       0.968130
      909.800000       0.968517
      909.900000       0.968914
      910.000000       0.969328
      910.100000       0.969743
      910.200000       0.970155
      910.300000       0.970566
      910.400000       0.970981
      910.500000       0.971388
      910.600000       0.971777
      910.700000       0.972148
      910.800000       0.972501
      910.900000       0.972830
      911.000000       0.973117
      911.100000       0.973355
      911.200000       0.973557
      911.300000       0.973734
      911.400000       0.973907
      911.500000       0.974091
      911.600000       0.974288
      911.700000       0.974497
      911.800000       0.974707
      911.900000       0.974908
      912.000000       0.975103
      912.100000       0.975308
      912.200000       0.975519
      912.300000       0.975691
      912.400000       0.975797
      912.500000       0.975873
      912.600000       0.975957
      912.700000       0.976036
      912.800000       0.976085
      912.900000       0.976100
      913.000000       0.976090
      913.100000       0.976040
      913.200000       0.975913
      913.300000       0.975702
      913.400000       0.975480
      913.500000       0.975303
      913.600000       0.975172
      913.700000       0.975083
      913.800000       0.975027
      913.900000       0.974997
      914.000000       0.974979
      914.100000       0.974951
      914.200000       0.974907
      914.300000       0.974867
      914.400000       0.974840
      914.500000       0.974824
      914.600000       0.974817
      914.700000       0.974798
      914.800000       0.974745
      914.900000       0.974652
      915.000000       0.974517
      915.100000       0.974355
      915.200000       0.974202
      915.300000       0.974071
      915.400000       0.973951
      915.500000       0.973830
      915.600000       0.973699
      915.700000       0.973556
      915.800000       0.973440
      915.900000       0.973402
      916.000000       0.973437
      916.100000       0.973514
      916.200000       0.973600
      916.300000       0.973655
      916.400000       0.973657
      916.500000       0.973613
      916.600000       0.973536
      916.700000       0.973454
      916.800000       0.973393
      916.900000       0.973352
      917.000000       0.973322
      917.100000       0.973303
      917.200000       0.973301
      917.300000       0.973302
      917.400000       0.973259
      917.500000       0.973144
      917.600000       0.972981
      917.700000       0.972793
      917.800000       0.972591
      917.900000       0.972382
      918.000000       0.972187
      918.100000       0.972034
      918.200000       0.971922
      918.300000       0.971834
      918.400000       0.971757
      918.500000       0.971698
      918.600000       0.971659
      918.700000       0.971622
      918.800000       0.971569
      918.900000       0.971506
      919.000000       0.971445
      919.100000       0.971397
      919.200000       0.971370
      919.300000       0.971374
      919.400000       0.971417
      919.500000       0.971503
      919.600000       0.971623
      919.700000       0.971762
      919.800000       0.971881
      919.900000       0.971942
      920.000000       0.971958
      920.100000       0.971961
      920.200000       0.971962
      920.300000       0.971961
      920.400000       0.971954
      920.500000       0.971932
      920.600000       0.971893
      920.700000       0.971851
      920.800000       0.971821
      920.900000       0.971821
      921.000000       0.971873
      921.100000       0.971947
      921.200000       0.971991
      921.300000       0.971992
      921.400000       0.971972
      921.500000       0.971936
      921.600000       0.971872
      921.700000       0.971776
      921.800000       0.971685
      921.900000       0.971635
      922.000000       0.971614
      922.100000       0.971596
      922.200000       0.971583
      922.300000       0.971598
      922.400000       0.971633
      922.500000       0.971644
      922.600000       0.971607
      922.700000       0.971549
      922.800000       0.971493
      922.900000       0.971446
      923.000000       0.971414
      923.100000       0.971384
      923.200000       0.971337
      923.300000       0.971268
      923.400000       0.971179
      923.500000       0.971084
      923.600000       0.971015
      923.700000       0.970993
      923.800000       0.971003
      923.900000       0.971036
      924.000000       0.971092
      924.100000       0.971179
      924.200000       0.971275
      924.300000       0.971341
      924.400000       0.971387
      924.500000       0.971460
      924.600000       0.971571
      924.700000       0.971660
      924.800000       0.971684
      924.900000       0.971673
      925.000000       0.971662
      925.100000       0.971653
      925.200000       0.971644
      925.300000       0.971653
      925.400000       0.971715
      925.500000       0.971826
      925.600000       0.971940
      925.700000       0.972028
      925.800000       0.972095
      925.900000       0.972154
      926.000000       0.972223
      926.100000       0.972322
      926.200000       0.972453
      926.300000       0.972611
      926.400000       0.972793
      926.500000       0.973001
      926.600000       0.973231
      926.700000       0.973469
      926.800000       0.973711
      926.900000       0.973978
      927.000000       0.974281
      927.100000       0.974571
      927.200000       0.974782
      927.300000       0.974921
      927.400000       0.975024
      927.500000       0.975107
      927.600000       0.975169
      927.700000       0.975214
      927.800000       0.975271
      927.900000       0.975365
      928.000000       0.975495
      928.100000       0.975664
      928.200000       0.975875
      928.300000       0.976135
      928.400000       0.976420
      928.500000       0.976692
      928.600000       0.976941
      928.700000       0.977194
      928.800000       0.977464
      928.900000       0.977740
      929.000000       0.978011
      929.100000       0.978289
      929.200000       0.978584
      929.300000       0.978877
      929.400000       0.979138
      929.500000       0.979366
      929.600000       0.979586
      929.700000       0.979806
      929.800000       0.980006
      929.900000       0.980174
      930.000000       0.980326
      930.100000       0.980476
      930.200000       0.980624
      930.300000       0.980761
      930.400000       0.980880
      930.500000       0.980971
      930.600000       0.981036
      930.700000       0.981093
      930.800000       0.981151
      930.900000       0.981202
      931.000000       0.981243
      931.100000       0.981292
      931.200000       0.981369
      931.300000       0.981473
      931.400000       0.981599
      931.500000       0.981750
      931.600000       0.981930
      931.700000       0.982138
      931.800000       0.982362
      931.900000       0.982589
      932.000000       0.982791
      932.100000       0.982947
      932.200000       0.983064
      932.300000       0.983152
      932.400000       0.983231
      932.500000       0.983322
      932.600000       0.983449
      932.700000       0.983638
      932.800000       0.983900
      932.900000       0.984210
      933.000000       0.984546
      933.100000       0.984866
      933.200000       0.985134
      933.300000       0.985369
      933.400000       0.985600
      933.500000       0.985835
      933.600000       0.986071
      933.700000       0.986317
      933.800000       0.986595
      933.900000       0.986911
      934.000000       0.987228
      934.100000       0.987512
      934.200000       0.987751
      934.300000       0.987938
      934.400000       0.988109
      934.500000       0.988311
      934.600000       0.988544
      934.700000       0.988780
      934.800000       0.989008
      934.900000       0.989234
      935.000000       0.989452
      935.100000       0.989628
      935.200000       0.989736
      935.300000       0.989830
      935.400000       0.989976
      935.500000       0.990174
      935.600000       0.990401
      935.700000       0.990654
      935.800000       0.990944
      935.900000       0.991272
      936.000000       0.991611
      936.100000       0.991951
      936.200000       0.992310
      936.300000       0.992703
      936.400000       0.993097
      936.500000       0.993450
      936.600000       0.993756
      936.700000       0.994028
      936.800000       0.994265
      936.900000       0.994459
      937.000000       0.994619
      937.100000       0.994797
      937.200000       0.995029
      937.300000       0.995264
      937.400000       0.995450
      937.500000       0.995603
      937.600000       0.995763
      937.700000       0.995919
      937.800000       0.996028
      937.900000       0.996081
      938.000000       0.996111
      938.100000       0.996135
      938.200000       0.996126
      938.300000       0.996069
      938.400000       0.996021
      938.500000       0.996052
      938.600000       0.996142
      938.700000       0.996236
      938.800000       0.996320
      938.900000       0.996417
      939.000000       0.996523
      939.100000       0.996601
      939.200000       0.996623
      939.300000       0.996609
      939.400000       0.996581
      939.500000       0.996555
      939.600000       0.996548
      939.700000       0.996588
      939.800000       0.996711
      939.900000       0.996907
      940.000000       0.997109
      940.100000       0.997286
      940.200000       0.997459
      940.300000       0.997643
      940.400000       0.997823
      940.500000       0.997985
      940.600000       0.998132
      940.700000       0.998276
      940.800000       0.998393
      940.900000       0.998435
      941.000000       0.998405
      941.100000       0.998376
      941.200000       0.998395
      941.300000       0.998445
      941.400000       0.998505
      941.500000       0.998573
      941.600000       0.998651
      941.700000       0.998739
      941.800000       0.998837
      941.900000       0.998944
      942.000000       0.999055
      942.100000       0.999174
      942.200000       0.999310
      942.300000       0.999473
      942.400000       0.999644
      942.500000       0.999805
      942.600000       0.999931
      942.700000       0.999996
      942.800000       1.000000
      942.900000       0.999961
      943.000000       0.999884
      943.100000       0.999764
      943.200000       0.999615
      943.300000       0.999492
      943.400000       0.999437
      943.500000       0.999416
      943.600000       0.999391
      943.700000       0.999366
      943.800000       0.999356
      943.900000       0.999343
      944.000000       0.999276
      944.100000       0.999151
      944.200000       0.999022
      944.300000       0.998922
      944.400000       0.998838
      944.500000       0.998755
      944.600000       0.998661
      944.700000       0.998550
      944.800000       0.998438
      944.900000       0.998351
      945.000000       0.998276
      945.100000       0.998167
      945.200000       0.998007
      945.300000       0.997826
      945.400000       0.997651
      945.500000       0.997485
      945.600000       0.997334
      945.700000       0.997199
      945.800000       0.997082
      945.900000       0.996969
      946.000000       0.996830
      946.100000       0.996656
      946.200000       0.996467
      946.300000       0.996286
      946.400000       0.996152
      946.500000       0.996084
      946.600000       0.996003
      946.700000       0.995822
      946.800000       0.995575
      946.900000       0.995333
      947.000000       0.995112
      947.100000       0.994892
      947.200000       0.994686
      947.300000       0.994561
      947.400000       0.994539
      947.500000       0.994525
      947.600000       0.994432
      947.700000       0.994300
      947.800000       0.994189
      947.900000       0.994083
      948.000000       0.993941
      948.100000       0.993762
      948.200000       0.993597
      948.300000       0.993455
      948.400000       0.993283
      948.500000       0.993051
      948.600000       0.992817
      948.700000       0.992636
      948.800000       0.992500
      948.900000       0.992375
      949.000000       0.992256
      949.100000       0.992147
      949.200000       0.992047
      949.300000       0.991946
      949.400000       0.991847
      949.500000       0.991773
      949.600000       0.991737
      949.700000       0.991711
      949.800000       0.991662
      949.900000       0.991601
      950.000000       0.991556
      950.100000       0.991526
      950.200000       0.991486
      950.300000       0.991422
      950.400000       0.991332
      950.500000       0.991213
      950.600000       0.991076
      950.700000       0.990923
      950.800000       0.990740
      950.900000       0.990510
      951.000000       0.990242
      951.100000       0.989965
      951.200000       0.989699
      951.300000       0.989464
      951.400000       0.989266
      951.500000       0.989102
      951.600000       0.988966
      951.700000       0.988838
      951.800000       0.988704
      951.900000       0.988564
      952.000000       0.988426
      952.100000       0.988311
      952.200000       0.988247
      952.300000       0.988224
      952.400000       0.988184
      952.500000       0.988100
      952.600000       0.988002
      952.700000       0.987914
      952.800000       0.987828
      952.900000       0.987724
      953.000000       0.987598
      953.100000       0.987451
      953.200000       0.987282
      953.300000       0.987090
      953.400000       0.986890
      953.500000       0.986723
      953.600000       0.986615
      953.700000       0.986557
      953.800000       0.986536
      953.900000       0.986536
      954.000000       0.986539
      954.100000       0.986534
      954.200000       0.986503
      954.300000       0.986459
      954.400000       0.986441
      954.500000       0.986461
      954.600000       0.986488
      954.700000       0.986497
      954.800000       0.986494
      954.900000       0.986489
      955.000000       0.986476
      955.100000       0.986443
      955.200000       0.986397
      955.300000       0.986356
      955.400000       0.986314
      955.500000       0.986230
      955.600000       0.986087
      955.700000       0.985935
      955.800000       0.985815
      955.900000       0.985716
      956.000000       0.985624
      956.100000       0.985536
      956.200000       0.985455
      956.300000       0.985375
      956.400000       0.985281
      956.500000       0.985164
      956.600000       0.985026
      956.700000       0.984866
      956.800000       0.984689
      956.900000       0.984495
      957.000000       0.984272
      957.100000       0.984003
      957.200000       0.983706
      957.300000       0.983410
      957.400000       0.983117
      957.500000       0.982803
      957.600000       0.982456
      957.700000       0.982094
      957.800000       0.981738
      957.900000       0.981425
      958.000000       0.981185
      958.100000       0.980968
      958.200000       0.980699
      958.300000       0.980351
      958.400000       0.979922
      958.500000       0.979402
      958.600000       0.978776
      958.700000       0.978053
      958.800000       0.977334
      958.900000       0.976697
      959.000000       0.976128
      959.100000       0.975599
      959.200000       0.975108
      959.300000       0.974667
      959.400000       0.974259
      959.500000       0.973839
      959.600000       0.973381
      959.700000       0.972882
      959.800000       0.972338
      959.900000       0.971755
      960.000000       0.971131
      960.100000       0.970457
      960.200000       0.969717
      960.300000       0.968943
      960.400000       0.968189
      960.500000       0.967472
      960.600000       0.966769
      960.700000       0.966066
      960.800000       0.965363
      960.900000       0.964658
      961.000000       0.963946
      961.100000       0.963221
      961.200000       0.962478
      961.300000       0.961716
      961.400000       0.960934
      961.500000       0.960139
      961.600000       0.959335
      961.700000       0.958531
      961.800000       0.957737
      961.900000       0.956963
      962.000000       0.956219
      962.100000       0.955499
      962.200000       0.954795
      962.300000       0.954068
      962.400000       0.953265
      962.500000       0.952376
      962.600000       0.951418
      962.700000       0.950405
      962.800000       0.949355
      962.900000       0.948281
      963.000000       0.947210
      963.100000       0.946157
      963.200000       0.945103
      963.300000       0.944022
      963.400000       0.942925
      963.500000       0.941853
      963.600000       0.940810
      963.700000       0.939765
      963.800000       0.938691
      963.900000       0.937558
      964.000000       0.936342
      964.100000       0.935057
      964.200000       0.933721
      964.300000       0.932360
      964.400000       0.931001
      964.500000       0.929659
      964.600000       0.928338
      964.700000       0.927015
      964.800000       0.925626
      964.900000       0.924134
      965.000000       0.922585
      965.100000       0.921020
      965.200000       0.919466
      965.300000       0.917949
      965.400000       0.916474
      965.500000       0.915042
      965.600000       0.913634
      965.700000       0.912211
      965.800000       0.910747
      965.900000       0.909231
      966.000000       0.907658
      966.100000       0.906062
      966.200000       0.904474
      966.300000       0.902889
      966.400000       0.901284
      966.500000       0.899659
      966.600000       0.898015
      966.700000       0.896347
      966.800000       0.894645
      966.900000       0.892903
      967.000000       0.891144
      967.100000       0.889384
      967.200000       0.887648
      967.300000       0.885958
      967.400000       0.884293
      967.500000       0.882623
      967.600000       0.880934
      967.700000       0.879223
      967.800000       0.877497
      967.900000       0.875765
      968.000000       0.874046
      968.100000       0.872364
      968.200000       0.870739
      968.300000       0.869153
      968.400000       0.867580
      968.500000       0.866006
      968.600000       0.864420
      968.700000       0.862830
      968.800000       0.861259
      968.900000       0.859717
      969.000000       0.858186
      969.100000       0.856644
      969.200000       0.855063
      969.300000       0.853425
      969.400000       0.851757
      969.500000       0.850109
      969.600000       0.848499
      969.700000       0.846936
      969.800000       0.845418
      969.900000       0.843924
      970.000000       0.842429
      970.100000       0.840883
      970.200000       0.839252
      970.300000       0.837578
      970.400000       0.835903
      970.500000       0.834228
      970.600000       0.832541
      970.700000       0.830862
      970.800000       0.829245
      970.900000       0.827701
      971.000000       0.826191
      971.100000       0.824693
      971.200000       0.823222
      971.300000       0.821793
      971.400000       0.820384
      971.500000       0.818968
      971.600000       0.817534
      971.700000       0.816077
      971.800000       0.814591
      971.900000       0.813072
      972.000000       0.811521
      972.100000       0.809959
      972.200000       0.808396
      972.300000       0.806822
      972.400000       0.805225
      972.500000       0.803628
      972.600000       0.802061
      972.700000       0.800502
      972.800000       0.798909
      972.900000       0.797274
      973.000000       0.795636
      973.100000       0.793999
      973.200000       0.792308
      973.300000       0.790524
      973.400000       0.788678
      973.500000       0.786814
      973.600000       0.784930
      973.700000       0.783013
      973.800000       0.781074
      973.900000       0.779141
      974.000000       0.777219
      974.100000       0.775269
      974.200000       0.773266
      974.300000       0.771209
      974.400000       0.769094
      974.500000       0.766927
      974.600000       0.764702
      974.700000       0.762409
      974.800000       0.760032
      974.900000       0.757577
      975.000000       0.755074
      975.100000       0.752543
      975.200000       0.749991
      975.300000       0.747425
      975.400000       0.744840
      975.500000       0.742227
      975.600000       0.739564
      975.700000       0.736821
      975.800000       0.733972
      975.900000       0.730978
      976.000000       0.727843
      976.100000       0.724604
      976.200000       0.721284
      976.300000       0.717904
      976.400000       0.714465
      976.500000       0.710986
      976.600000       0.707471
      976.700000       0.703895
      976.800000       0.700228
      976.900000       0.696453
      977.000000       0.692575
      977.100000       0.688596
      977.200000       0.684524
      977.300000       0.680367
      977.400000       0.676118
      977.500000       0.671777
      977.600000       0.667376
      977.700000       0.662945
      977.800000       0.658498
      977.900000       0.654021
      978.000000       0.649522
      978.100000       0.645008
      978.200000       0.640467
      978.300000       0.635865
      978.400000       0.631151
      978.500000       0.626321
      978.600000       0.621351
      978.700000       0.616270
      978.800000       0.611119
      978.900000       0.605931
      979.000000       0.600758
      979.100000       0.595607
      979.200000       0.590452
      979.300000       0.585276
      979.400000       0.580048
      979.500000       0.574750
      979.600000       0.569377
      979.700000       0.563916
      979.800000       0.558390
      979.900000       0.552805
      980.000000       0.547181
      980.100000       0.541526
      980.200000       0.535847
      980.300000       0.530169
      980.400000       0.524491
      980.500000       0.518804
      980.600000       0.513086
      980.700000       0.507338
      980.800000       0.501569
      980.900000       0.495757
      981.000000       0.489880
      981.100000       0.483949
      981.200000       0.478017
      981.300000       0.472116
      981.400000       0.466213
      981.500000       0.460295
      981.600000       0.454360
      981.700000       0.448405
      981.800000       0.442418
      981.900000       0.436369
      982.000000       0.430267
      982.100000       0.424131
      982.200000       0.417988
      982.300000       0.411888
      982.400000       0.405837
      982.500000       0.399781
      982.600000       0.393672
      982.700000       0.387547
      982.800000       0.381466
      982.900000       0.375395
      983.000000       0.369289
      983.100000       0.363148
      983.200000       0.357025
      983.300000       0.350933
      983.400000       0.344802
      983.500000       0.338609
      983.600000       0.332418
      983.700000       0.326285
      983.800000       0.320172
      983.900000       0.314006
      984.000000       0.307822
      984.100000       0.301694
      984.200000       0.295638
      984.300000       0.289632
      984.400000       0.283663
      984.500000       0.277768
      984.600000       0.271964
      984.700000       0.266205
      984.800000       0.260455
      984.900000       0.254709
      985.000000       0.248991
      985.100000       0.243296
      985.200000       0.237604
      985.300000       0.231925
      985.400000       0.226272
      985.500000       0.220673
      985.600000       0.215136
      985.700000       0.209674
      985.800000       0.204308
      985.900000       0.199048
      986.000000       0.193875
      986.100000       0.188746
      986.200000       0.183655
      986.300000       0.178631
      986.400000       0.173685
      986.500000       0.168828
      986.600000       0.164066
      986.700000       0.159396
      986.800000       0.154832
      986.900000       0.150346
      987.000000       0.145923
      987.100000       0.141585
      987.200000       0.137385
      987.300000       0.133329
      987.400000       0.129364
      987.500000       0.125472
      987.600000       0.121660
      987.700000       0.117936
      987.800000       0.114272
      987.900000       0.110641
      988.000000       0.107076
      988.100000       0.103630
      988.200000       0.100288
      988.300000       0.097007
      988.400000       0.093784
      988.500000       0.090680
      988.600000       0.087729
      988.700000       0.084893
      988.800000       0.082154
      988.900000       0.079502
      989.000000       0.076947
      989.100000       0.074457
      989.200000       0.071995
      989.300000       0.069571
      989.400000       0.067223
      989.500000       0.064971
      989.600000       0.062785
      989.700000       0.060656
      989.800000       0.058626
      989.900000       0.056734
      990.000000       0.054925
      990.100000       0.053129
      990.200000       0.051347
      990.300000       0.049620
      990.400000       0.047953
      990.500000       0.046323
      990.600000       0.044727
      990.700000       0.043194
      990.800000       0.041748
      990.900000       0.040351
      991.000000       0.038973
      991.100000       0.037628
      991.200000       0.036352
      991.300000       0.035132
      991.400000       0.033923
      991.500000       0.032712
      991.600000       0.031520
      991.700000       0.030367
      991.800000       0.029265
      991.900000       0.028229
      992.000000       0.027263
      992.100000       0.026372
      992.200000       0.025538
      992.300000       0.024735
      992.400000       0.023949
      992.500000       0.023177
      992.600000       0.022423
      992.700000       0.021699
      992.800000       0.021014
      992.900000       0.020350
      993.000000       0.019692
      993.100000       0.019059
      993.200000       0.018478
      993.300000       0.017938
      993.400000       0.017401
      993.500000       0.016850
      993.600000       0.016281
      993.700000       0.015703
      993.800000       0.015156
      993.900000       0.014663
      994.000000       0.014196
      994.100000       0.013721
      994.200000       0.013255
      994.300000       0.012835
      994.400000       0.012452
      994.500000       0.012072
      994.600000       0.011685
      994.700000       0.011308
      994.800000       0.010952
      994.900000       0.010611
      995.000000       0.010280
      995.100000       0.009958
      995.200000       0.009645
      995.300000       0.009343
      995.400000       0.009056
      995.500000       0.008776
      995.600000       0.008481
      995.700000       0.008177
      995.800000       0.007920
      995.900000       0.007738
      996.000000       0.007567
      996.100000       0.007344
      996.200000       0.007098
      996.300000       0.006883
      996.400000       0.006696
      996.500000       0.006509
      996.600000       0.006323
      996.700000       0.006173
      996.800000       0.006067
      996.900000       0.005960
      997.000000       0.005819
      997.100000       0.005662
      997.200000       0.005515
      997.300000       0.005387
      997.400000       0.005282
      997.500000       0.005192
      997.600000       0.005099
      997.700000       0.004994
      997.800000       0.004881
      997.900000       0.004762
      998.000000       0.004639
      998.100000       0.004513
      998.200000       0.004390
      998.300000       0.004277
      998.400000       0.004165
      998.500000       0.004039
      998.600000       0.003902
      998.700000       0.003776
      998.800000       0.003663
      998.900000       0.003540
      999.000000       0.003393
      999.100000       0.003252
      999.200000       0.003145
      999.300000       0.003074
      999.400000       0.003037
      999.500000       0.003025
      999.600000       0.003028
      999.700000       0.003034
      999.800000       0.003029
      999.900000       0.003002
     1000.000000       0.002944
     1000.100000       0.002850
     1000.200000       0.002747
     1000.300000       0.002660
     1000.400000       0.002591
     1000.500000       0.002533
