15, GOES 12.3um ABI FM2 SRF CWG processed March 10, 2016
Number of data points:
1370
Wavenumber (cm-1)   Filter response
      756.700000       0.001029
      756.800000       0.001191
      756.900000       0.001354
      757.000000       0.001517
      757.100000       0.001677
      757.200000       0.001954
      757.300000       0.002281
      757.400000       0.002607
      757.500000       0.002934
      757.600000       0.003260
      757.700000       0.003587
      757.800000       0.003913
      757.900000       0.004240
      758.000000       0.004567
      758.100000       0.004864
      758.200000       0.005098
      758.300000       0.005334
      758.400000       0.005570
      758.500000       0.005806
      758.600000       0.006042
      758.700000       0.006277
      758.800000       0.006512
      758.900000       0.006749
      759.000000       0.006946
      759.100000       0.006821
      759.200000       0.006651
      759.300000       0.006484
      759.400000       0.006316
      759.500000       0.006147
      759.600000       0.005979
      759.700000       0.005811
      759.800000       0.005643
      759.900000       0.005474
      760.000000       0.005310
      760.100000       0.005148
      760.200000       0.004987
      760.300000       0.004825
      760.400000       0.004663
      760.500000       0.004501
      760.600000       0.004339
      760.700000       0.004177
      760.800000       0.004014
      760.900000       0.003942
      761.000000       0.004067
      761.100000       0.004195
      761.200000       0.004323
      761.300000       0.004451
      761.400000       0.004579
      761.500000       0.004707
      761.600000       0.004835
      761.700000       0.004964
      761.800000       0.005078
      761.900000       0.005100
      762.000000       0.005102
      762.100000       0.005104
      762.200000       0.005106
      762.300000       0.005109
      762.400000       0.005111
      762.500000       0.005114
      762.600000       0.005116
      762.700000       0.005118
      762.800000       0.005130
      762.900000       0.005148
      763.000000       0.005167
      763.100000       0.005185
      763.200000       0.005203
      763.300000       0.005222
      763.400000       0.005240
      763.500000       0.005258
      763.600000       0.005276
      763.700000       0.005313
      763.800000       0.005400
      763.900000       0.005490
      764.000000       0.005579
      764.100000       0.005668
      764.200000       0.005757
      764.300000       0.005847
      764.400000       0.005937
      764.500000       0.006027
      764.600000       0.006127
      764.700000       0.006381
      764.800000       0.006662
      764.900000       0.006945
      765.000000       0.007227
      765.100000       0.007510
      765.200000       0.007792
      765.300000       0.008075
      765.400000       0.008357
      765.500000       0.008645
      765.600000       0.008791
      765.700000       0.008831
      765.800000       0.008872
      765.900000       0.008914
      766.000000       0.008955
      766.100000       0.008997
      766.200000       0.009039
      766.300000       0.009080
      766.400000       0.009122
      766.500000       0.009218
      766.600000       0.009480
      766.700000       0.009749
      766.800000       0.010018
      766.900000       0.010286
      767.000000       0.010555
      767.100000       0.010824
      767.200000       0.011094
      767.300000       0.011364
      767.400000       0.011648
      767.500000       0.012097
      767.600000       0.012597
      767.700000       0.013097
      767.800000       0.013596
      767.900000       0.014095
      768.000000       0.014596
      768.100000       0.015098
      768.200000       0.015603
      768.300000       0.016104
      768.400000       0.016775
      768.500000       0.017601
      768.600000       0.018430
      768.700000       0.019258
      768.800000       0.020086
      768.900000       0.020913
      769.000000       0.021738
      769.100000       0.022561
      769.200000       0.023331
      769.300000       0.024067
      769.400000       0.024702
      769.500000       0.025321
      769.600000       0.025935
      769.700000       0.026552
      769.800000       0.027168
      769.900000       0.027783
      770.000000       0.028396
      770.100000       0.029009
      770.200000       0.029621
      770.300000       0.030244
      770.400000       0.030994
      770.500000       0.031803
      770.600000       0.032610
      770.700000       0.033420
      770.800000       0.034231
      770.900000       0.035039
      771.000000       0.035848
      771.100000       0.036664
      771.200000       0.037484
      771.300000       0.038309
      771.400000       0.039267
      771.500000       0.040349
      771.600000       0.041423
      771.700000       0.042501
      771.800000       0.043581
      771.900000       0.044662
      772.000000       0.045737
      772.100000       0.046771
      772.200000       0.047799
      772.300000       0.048823
      772.400000       0.049883
      772.500000       0.051166
      772.600000       0.052454
      772.700000       0.053742
      772.800000       0.055029
      772.900000       0.056315
      773.000000       0.057602
      773.100000       0.058887
      773.200000       0.060166
      773.300000       0.061449
      773.400000       0.062729
      773.500000       0.064101
      773.600000       0.065617
      773.700000       0.067141
      773.800000       0.068658
      773.900000       0.070180
      774.000000       0.071700
      774.100000       0.073221
      774.200000       0.074740
      774.300000       0.076259
      774.400000       0.077773
      774.500000       0.079286
      774.600000       0.081102
      774.700000       0.083132
      774.800000       0.085156
      774.900000       0.087181
      775.000000       0.089212
      775.100000       0.091245
      775.200000       0.093268
      775.300000       0.095305
      775.400000       0.097343
      775.500000       0.099383
      775.600000       0.101442
      775.700000       0.104029
      775.800000       0.106776
      775.900000       0.109522
      776.000000       0.112259
      776.100000       0.115016
      776.200000       0.117778
      776.300000       0.120545
      776.400000       0.123315
      776.500000       0.126082
      776.600000       0.128851
      776.700000       0.131691
      776.800000       0.134974
      776.900000       0.138306
      777.000000       0.141648
      777.100000       0.144990
      777.200000       0.148327
      777.300000       0.151656
      777.400000       0.154979
      777.500000       0.158334
      777.600000       0.161663
      777.700000       0.164982
      777.800000       0.168545
      777.900000       0.172645
      778.000000       0.176751
      778.100000       0.180832
      778.200000       0.184934
      778.300000       0.189032
      778.400000       0.193126
      778.500000       0.197216
      778.600000       0.201300
      778.700000       0.205377
      778.800000       0.209451
      778.900000       0.213915
      779.000000       0.218728
      779.100000       0.223500
      779.200000       0.228288
      779.300000       0.233067
      779.400000       0.237848
      779.500000       0.242597
      779.600000       0.247372
      779.700000       0.252143
      779.800000       0.256887
      779.900000       0.261696
      780.000000       0.267068
      780.100000       0.272666
      780.200000       0.278237
      780.300000       0.283738
      780.400000       0.289146
      780.500000       0.294557
      780.600000       0.299928
      780.700000       0.305337
      780.800000       0.310710
      780.900000       0.316115
      781.000000       0.321545
      781.100000       0.327442
      781.200000       0.333577
      781.300000       0.339707
      781.400000       0.345803
      781.500000       0.351953
      781.600000       0.358108
      781.700000       0.364274
      781.800000       0.370443
      781.900000       0.376615
      782.000000       0.382743
      782.100000       0.388908
      782.200000       0.395461
      782.300000       0.402203
      782.400000       0.408955
      782.500000       0.415707
      782.600000       0.422464
      782.700000       0.429184
      782.800000       0.435956
      782.900000       0.442739
      783.000000       0.449527
      783.100000       0.456319
      783.200000       0.463125
      783.300000       0.470006
      783.400000       0.476855
      783.500000       0.483593
      783.600000       0.490311
      783.700000       0.497003
      783.800000       0.503719
      783.900000       0.510443
      784.000000       0.517158
      784.100000       0.523830
      784.200000       0.530488
      784.300000       0.537137
      784.400000       0.543749
      784.500000       0.550226
      784.600000       0.556721
      784.700000       0.563206
      784.800000       0.569678
      784.900000       0.576141
      785.000000       0.582599
      785.100000       0.589041
      785.200000       0.595484
      785.300000       0.601925
      785.400000       0.608339
      785.500000       0.614701
      785.600000       0.621038
      785.700000       0.627255
      785.800000       0.633390
      785.900000       0.639627
      786.000000       0.645863
      786.100000       0.652096
      786.200000       0.658291
      786.300000       0.664494
      786.400000       0.670715
      786.500000       0.676942
      786.600000       0.683172
      786.700000       0.689335
      786.800000       0.695219
      786.900000       0.701088
      787.000000       0.706929
      787.100000       0.712767
      787.200000       0.718508
      787.300000       0.724026
      787.400000       0.729613
      787.500000       0.735181
      787.600000       0.740723
      787.700000       0.746240
      787.800000       0.751740
      787.900000       0.757009
      788.000000       0.761883
      788.100000       0.766638
      788.200000       0.771405
      788.300000       0.776231
      788.400000       0.781072
      788.500000       0.785932
      788.600000       0.790787
      788.700000       0.795629
      788.800000       0.800449
      788.900000       0.805392
      789.000000       0.810372
      789.100000       0.815205
      789.200000       0.819330
      789.300000       0.823599
      789.400000       0.827726
      789.500000       0.832074
      789.600000       0.836434
      789.700000       0.840810
      789.800000       0.845196
      789.900000       0.849590
      790.000000       0.854016
      790.100000       0.858254
      790.200000       0.862710
      790.300000       0.866636
      790.400000       0.869981
      790.500000       0.873196
      790.600000       0.876366
      790.700000       0.879522
      790.800000       0.882472
      790.900000       0.885602
      791.000000       0.888701
      791.100000       0.891776
      791.200000       0.894816
      791.300000       0.897826
      791.400000       0.900819
      791.500000       0.903457
      791.600000       0.905449
      791.700000       0.907405
      791.800000       0.909358
      791.900000       0.911181
      792.000000       0.913099
      792.100000       0.914993
      792.200000       0.916870
      792.300000       0.918734
      792.400000       0.920588
      792.500000       0.922353
      792.600000       0.924157
      792.700000       0.925718
      792.800000       0.926929
      792.900000       0.927988
      793.000000       0.929153
      793.100000       0.930187
      793.200000       0.931330
      793.300000       0.932465
      793.400000       0.933606
      793.500000       0.934765
      793.600000       0.935947
      793.700000       0.937079
      793.800000       0.938303
      793.900000       0.939437
      794.000000       0.940327
      794.100000       0.941229
      794.200000       0.942140
      794.300000       0.943054
      794.400000       0.943892
      794.500000       0.944713
      794.600000       0.945661
      794.700000       0.946604
      794.800000       0.947534
      794.900000       0.948159
      795.000000       0.948541
      795.100000       0.948720
      795.200000       0.948513
      795.300000       0.948305
      795.400000       0.948134
      795.500000       0.947956
      795.600000       0.947773
      795.700000       0.947587
      795.800000       0.947398
      795.900000       0.947208
      796.000000       0.947031
      796.100000       0.946782
      796.200000       0.946607
      796.300000       0.946259
      796.400000       0.945616
      796.500000       0.944959
      796.600000       0.944366
      796.700000       0.943786
      796.800000       0.943220
      796.900000       0.942671
      797.000000       0.942137
      797.100000       0.941569
      797.200000       0.940900
      797.300000       0.940389
      797.400000       0.939868
      797.500000       0.939227
      797.600000       0.938389
      797.700000       0.937536
      797.800000       0.936626
      797.900000       0.935711
      798.000000       0.934829
      798.100000       0.933936
      798.200000       0.933046
      798.300000       0.932125
      798.400000       0.931181
      798.500000       0.930312
      798.600000       0.929456
      798.700000       0.928646
      798.800000       0.927901
      798.900000       0.927204
      799.000000       0.926545
      799.100000       0.925920
      799.200000       0.925321
      799.300000       0.924740
      799.400000       0.924104
      799.500000       0.923506
      799.600000       0.922948
      799.700000       0.922394
      799.800000       0.921838
      799.900000       0.921224
      800.000000       0.920523
      800.100000       0.919809
      800.200000       0.919085
      800.300000       0.918346
      800.400000       0.917599
      800.500000       0.916767
      800.600000       0.915861
      800.700000       0.915046
      800.800000       0.914504
      800.900000       0.914141
      801.000000       0.913795
      801.100000       0.913437
      801.200000       0.913045
      801.300000       0.912656
      801.400000       0.912273
      801.500000       0.911894
      801.600000       0.911519
      801.700000       0.911042
      801.800000       0.910668
      801.900000       0.910278
      802.000000       0.909879
      802.100000       0.909465
      802.200000       0.909039
      802.300000       0.908612
      802.400000       0.908084
      802.500000       0.907656
      802.600000       0.907174
      802.700000       0.906680
      802.800000       0.906225
      802.900000       0.905767
      803.000000       0.905311
      803.100000       0.904741
      803.200000       0.904280
      803.300000       0.903815
      803.400000       0.903351
      803.500000       0.903009
      803.600000       0.902904
      803.700000       0.902822
      803.800000       0.902739
      803.900000       0.902574
      804.000000       0.902402
      804.100000       0.902332
      804.200000       0.902268
      804.300000       0.902216
      804.400000       0.902179
      804.500000       0.902162
      804.600000       0.902171
      804.700000       0.902205
      804.800000       0.902187
      804.900000       0.902300
      805.000000       0.902430
      805.100000       0.902566
      805.200000       0.902653
      805.300000       0.902846
      805.400000       0.903046
      805.500000       0.903239
      805.600000       0.903418
      805.700000       0.903568
      805.800000       0.903682
      805.900000       0.903699
      806.000000       0.903895
      806.100000       0.903992
      806.200000       0.904175
      806.300000       0.904333
      806.400000       0.904472
      806.500000       0.904597
      806.600000       0.904725
      806.700000       0.904856
      806.800000       0.905107
      806.900000       0.905431
      807.000000       0.905810
      807.100000       0.906166
      807.200000       0.906471
      807.300000       0.906757
      807.400000       0.907026
      807.500000       0.907279
      807.600000       0.907536
      807.700000       0.907545
      807.800000       0.907752
      807.900000       0.907896
      808.000000       0.907986
      808.100000       0.908036
      808.200000       0.908058
      808.300000       0.908147
      808.400000       0.908515
      808.500000       0.908820
      808.600000       0.909231
      808.700000       0.909633
      808.800000       0.910041
      808.900000       0.910460
      809.000000       0.910894
      809.100000       0.911368
      809.200000       0.911896
      809.300000       0.912437
      809.400000       0.912906
      809.500000       0.913582
      809.600000       0.914368
      809.700000       0.915189
      809.800000       0.916042
      809.900000       0.916966
      810.000000       0.917950
      810.100000       0.918977
      810.200000       0.920027
      810.300000       0.921088
      810.400000       0.922141
      810.500000       0.923217
      810.600000       0.924332
      810.700000       0.925363
      810.800000       0.926722
      810.900000       0.928076
      811.000000       0.929385
      811.100000       0.930644
      811.200000       0.931855
      811.300000       0.932987
      811.400000       0.934037
      811.500000       0.935057
      811.600000       0.936041
      811.700000       0.936941
      811.800000       0.937744
      811.900000       0.938540
      812.000000       0.939237
      812.100000       0.939994
      812.200000       0.940750
      812.300000       0.941515
      812.400000       0.942293
      812.500000       0.943072
      812.600000       0.943856
      812.700000       0.944653
      812.800000       0.945466
      812.900000       0.946331
      813.000000       0.947149
      813.100000       0.948051
      813.200000       0.948883
      813.300000       0.949690
      813.400000       0.950511
      813.500000       0.951352
      813.600000       0.952196
      813.700000       0.953037
      813.800000       0.953872
      813.900000       0.954711
      814.000000       0.955440
      814.100000       0.956272
      814.200000       0.957112
      814.300000       0.957754
      814.400000       0.958613
      814.500000       0.959459
      814.600000       0.960319
      814.700000       0.961188
      814.800000       0.962065
      814.900000       0.962948
      815.000000       0.963831
      815.100000       0.964719
      815.200000       0.965611
      815.300000       0.966444
      815.400000       0.967289
      815.500000       0.968187
      815.600000       0.969200
      815.700000       0.970291
      815.800000       0.971367
      815.900000       0.972440
      816.000000       0.973519
      816.100000       0.974555
      816.200000       0.975617
      816.300000       0.976730
      816.400000       0.977859
      816.500000       0.978896
      816.600000       0.980026
      816.700000       0.981143
      816.800000       0.982209
      816.900000       0.983237
      817.000000       0.984243
      817.100000       0.985226
      817.200000       0.986186
      817.300000       0.987125
      817.400000       0.988045
      817.500000       0.988953
      817.600000       0.989856
      817.700000       0.990763
      817.800000       0.991708
      817.900000       0.992640
      818.000000       0.993438
      818.100000       0.994012
      818.200000       0.994717
      818.300000       0.995537
      818.400000       0.996208
      818.500000       0.996845
      818.600000       0.997460
      818.700000       0.998061
      818.800000       0.998649
      818.900000       0.999239
      819.000000       0.999668
      819.100000       0.999954
      819.200000       0.999921
      819.300000       0.999672
      819.400000       0.999375
      819.500000       0.999053
      819.600000       0.998713
      819.700000       0.998325
      819.800000       0.997895
      819.900000       0.997510
      820.000000       0.997118
      820.100000       0.996732
      820.200000       0.996352
      820.300000       0.995980
      820.400000       0.995525
      820.500000       0.994875
      820.600000       0.994265
      820.700000       0.993685
      820.800000       0.993117
      820.900000       0.992555
      821.000000       0.992009
      821.100000       0.991356
      821.200000       0.990840
      821.300000       0.990335
      821.400000       0.989773
      821.500000       0.989267
      821.600000       0.988771
      821.700000       0.988208
      821.800000       0.987662
      821.900000       0.987146
      822.000000       0.986657
      822.100000       0.986184
      822.200000       0.985669
      822.300000       0.985149
      822.400000       0.984668
      822.500000       0.984139
      822.600000       0.983560
      822.700000       0.982938
      822.800000       0.982298
      822.900000       0.981645
      823.000000       0.980935
      823.100000       0.980188
      823.200000       0.979411
      823.300000       0.978607
      823.400000       0.977790
      823.500000       0.976967
      823.600000       0.976149
      823.700000       0.975340
      823.800000       0.974541
      823.900000       0.973754
      824.000000       0.972810
      824.100000       0.971779
      824.200000       0.970698
      824.300000       0.969626
      824.400000       0.968556
      824.500000       0.967444
      824.600000       0.966289
      824.700000       0.965166
      824.800000       0.964012
      824.900000       0.962836
      825.000000       0.961636
      825.100000       0.960419
      825.200000       0.959178
      825.300000       0.957804
      825.400000       0.956186
      825.500000       0.954585
      825.600000       0.953000
      825.700000       0.951444
      825.800000       0.949925
      825.900000       0.948433
      826.000000       0.946964
      826.100000       0.945527
      826.200000       0.944127
      826.300000       0.942766
      826.400000       0.941447
      826.500000       0.940120
      826.600000       0.938804
      826.700000       0.937549
      826.800000       0.936330
      826.900000       0.935059
      827.000000       0.933839
      827.100000       0.932656
      827.200000       0.931491
      827.300000       0.930340
      827.400000       0.929139
      827.500000       0.927920
      827.600000       0.926680
      827.700000       0.925423
      827.800000       0.924147
      827.900000       0.922824
      828.000000       0.921427
      828.100000       0.919972
      828.200000       0.918471
      828.300000       0.916942
      828.400000       0.915403
      828.500000       0.913762
      828.600000       0.912204
      828.700000       0.910622
      828.800000       0.909029
      828.900000       0.907406
      829.000000       0.905733
      829.100000       0.904054
      829.200000       0.902390
      829.300000       0.900734
      829.400000       0.899086
      829.500000       0.897454
      829.600000       0.895849
      829.700000       0.894263
      829.800000       0.892702
      829.900000       0.891169
      830.000000       0.889662
      830.100000       0.888258
      830.200000       0.887112
      830.300000       0.885970
      830.400000       0.884841
      830.500000       0.883724
      830.600000       0.882619
      830.700000       0.881543
      830.800000       0.880492
      830.900000       0.879455
      831.000000       0.878419
      831.100000       0.877380
      831.200000       0.876352
      831.300000       0.875287
      831.400000       0.874133
      831.500000       0.872885
      831.600000       0.871718
      831.700000       0.870926
      831.800000       0.870368
      831.900000       0.869805
      832.000000       0.869227
      832.100000       0.868637
      832.200000       0.868029
      832.300000       0.867520
      832.400000       0.866899
      832.500000       0.866285
      832.600000       0.865696
      832.700000       0.865109
      832.800000       0.864527
      832.900000       0.863868
      833.000000       0.863263
      833.100000       0.862673
      833.200000       0.862079
      833.300000       0.861486
      833.400000       0.860884
      833.500000       0.860279
      833.600000       0.859679
      833.700000       0.859079
      833.800000       0.858449
      833.900000       0.857819
      834.000000       0.857197
      834.100000       0.856584
      834.200000       0.855979
      834.300000       0.855381
      834.400000       0.854785
      834.500000       0.854192
      834.600000       0.853601
      834.700000       0.853016
      834.800000       0.852437
      834.900000       0.851860
      835.000000       0.851217
      835.100000       0.850445
      835.200000       0.849775
      835.300000       0.849096
      835.400000       0.848415
      835.500000       0.847730
      835.600000       0.847038
      835.700000       0.846347
      835.800000       0.845649
      835.900000       0.844945
      836.000000       0.844229
      836.100000       0.843513
      836.200000       0.842504
      836.300000       0.841298
      836.400000       0.840080
      836.500000       0.838857
      836.600000       0.837627
      836.700000       0.836379
      836.800000       0.835085
      836.900000       0.833866
      837.000000       0.832649
      837.100000       0.831438
      837.200000       0.830229
      837.300000       0.829026
      837.400000       0.827605
      837.500000       0.825756
      837.600000       0.823920
      837.700000       0.822070
      837.800000       0.820197
      837.900000       0.818314
      838.000000       0.816422
      838.100000       0.814512
      838.200000       0.812557
      838.300000       0.810592
      838.400000       0.808623
      838.500000       0.806652
      838.600000       0.804664
      838.700000       0.802274
      838.800000       0.799450
      838.900000       0.796675
      839.000000       0.793876
      839.100000       0.791040
      839.200000       0.788191
      839.300000       0.785344
      839.400000       0.782505
      839.500000       0.779678
      839.600000       0.776870
      839.700000       0.774071
      839.800000       0.771271
      839.900000       0.768497
      840.000000       0.765700
      840.100000       0.762472
      840.200000       0.758770
      840.300000       0.755080
      840.400000       0.751447
      840.500000       0.747824
      840.600000       0.744201
      840.700000       0.740584
      840.800000       0.736970
      840.900000       0.733402
      841.000000       0.729908
      841.100000       0.726429
      841.200000       0.722973
      841.300000       0.719547
      841.400000       0.716140
      841.500000       0.712393
      841.600000       0.708084
      841.700000       0.703557
      841.800000       0.699033
      841.900000       0.694532
      842.000000       0.690042
      842.100000       0.685533
      842.200000       0.681034
      842.300000       0.676516
      842.400000       0.671954
      842.500000       0.667326
      842.600000       0.662670
      842.700000       0.657947
      842.800000       0.652744
      842.900000       0.647161
      843.000000       0.641529
      843.100000       0.635855
      843.200000       0.630137
      843.300000       0.624388
      843.400000       0.618613
      843.500000       0.612766
      843.600000       0.606938
      843.700000       0.601133
      843.800000       0.595336
      843.900000       0.589557
      844.000000       0.583699
      844.100000       0.577418
      844.200000       0.571054
      844.300000       0.564726
      844.400000       0.558407
      844.500000       0.552114
      844.600000       0.545894
      844.700000       0.539715
      844.800000       0.533552
      844.900000       0.527405
      845.000000       0.521279
      845.100000       0.515168
      845.200000       0.509084
      845.300000       0.503038
      845.400000       0.497022
      845.500000       0.491091
      845.600000       0.485174
      845.700000       0.479259
      845.800000       0.473344
      845.900000       0.467352
      846.000000       0.461212
      846.100000       0.455044
      846.200000       0.448877
      846.300000       0.442702
      846.400000       0.436522
      846.500000       0.430357
      846.600000       0.424354
      846.700000       0.418392
      846.800000       0.412439
      846.900000       0.406408
      847.000000       0.400431
      847.100000       0.394455
      847.200000       0.388486
      847.300000       0.382517
      847.400000       0.376558
      847.500000       0.370594
      847.600000       0.364630
      847.700000       0.358708
      847.800000       0.353070
      847.900000       0.347645
      848.000000       0.342225
      848.100000       0.336816
      848.200000       0.331415
      848.300000       0.326022
      848.400000       0.320638
      848.500000       0.315254
      848.600000       0.309878
      848.700000       0.304508
      848.800000       0.299118
      848.900000       0.293748
      849.000000       0.288614
      849.100000       0.283838
      849.200000       0.279047
      849.300000       0.274018
      849.400000       0.268892
      849.500000       0.263769
      849.600000       0.258654
      849.700000       0.253545
      849.800000       0.248441
      849.900000       0.243343
      850.000000       0.238241
      850.100000       0.233258
      850.200000       0.228882
      850.300000       0.224783
      850.400000       0.220684
      850.500000       0.216586
      850.600000       0.212484
      850.700000       0.208388
      850.800000       0.204292
      850.900000       0.200198
      851.000000       0.196108
      851.100000       0.192017
      851.200000       0.187952
      851.300000       0.184148
      851.400000       0.180626
      851.500000       0.177104
      851.600000       0.173583
      851.700000       0.170060
      851.800000       0.166562
      851.900000       0.163044
      852.000000       0.159528
      852.100000       0.156012
      852.200000       0.152497
      852.300000       0.148987
      852.400000       0.145797
      852.500000       0.143112
      852.600000       0.140484
      852.700000       0.137854
      852.800000       0.135207
      852.900000       0.132561
      853.000000       0.129918
      853.100000       0.127275
      853.200000       0.124631
      853.300000       0.121986
      853.400000       0.119342
      853.500000       0.116803
      853.600000       0.114560
      853.700000       0.112367
      853.800000       0.110176
      853.900000       0.107988
      854.000000       0.105800
      854.100000       0.103615
      854.200000       0.101430
      854.300000       0.099246
      854.400000       0.097063
      854.500000       0.094880
      854.600000       0.092765
      854.700000       0.090894
      854.800000       0.089092
      854.900000       0.087293
      855.000000       0.085496
      855.100000       0.083702
      855.200000       0.081912
      855.300000       0.080129
      855.400000       0.078350
      855.500000       0.076579
      855.600000       0.074809
      855.700000       0.073096
      855.800000       0.071666
      855.900000       0.070365
      856.000000       0.069066
      856.100000       0.067777
      856.200000       0.066492
      856.300000       0.065217
      856.400000       0.063939
      856.500000       0.062667
      856.600000       0.061389
      856.700000       0.060116
      856.800000       0.058827
      856.900000       0.057930
      857.000000       0.057181
      857.100000       0.056432
      857.200000       0.055682
      857.300000       0.054934
      857.400000       0.054185
      857.500000       0.053435
      857.600000       0.052684
      857.700000       0.051931
      857.800000       0.051177
      857.900000       0.050415
      858.000000       0.049805
      858.100000       0.049295
      858.200000       0.048793
      858.300000       0.048290
      858.400000       0.047787
      858.500000       0.047288
      858.600000       0.046785
      858.700000       0.046281
      858.800000       0.045777
      858.900000       0.045274
      859.000000       0.044770
      859.100000       0.044219
      859.200000       0.043578
      859.300000       0.042935
      859.400000       0.042293
      859.500000       0.041653
      859.600000       0.041015
      859.700000       0.040378
      859.800000       0.039743
      859.900000       0.039109
      860.000000       0.038475
      860.100000       0.037843
      860.200000       0.037204
      860.300000       0.036521
      860.400000       0.035833
      860.500000       0.035145
      860.600000       0.034460
      860.700000       0.033777
      860.800000       0.033096
      860.900000       0.032416
      861.000000       0.031738
      861.100000       0.031062
      861.200000       0.030388
      861.300000       0.029716
      861.400000       0.029033
      861.500000       0.028342
      861.600000       0.027649
      861.700000       0.026961
      861.800000       0.026271
      861.900000       0.025582
      862.000000       0.024892
      862.100000       0.024203
      862.200000       0.023515
      862.300000       0.022827
      862.400000       0.022117
      862.500000       0.021494
      862.600000       0.021167
      862.700000       0.020894
      862.800000       0.020619
      862.900000       0.020343
      863.000000       0.020068
      863.100000       0.019793
      863.200000       0.019519
      863.300000       0.019243
      863.400000       0.018970
      863.500000       0.018751
      863.600000       0.018557
      863.700000       0.018363
      863.800000       0.018169
      863.900000       0.017974
      864.000000       0.017781
      864.100000       0.017588
      864.200000       0.017396
      864.300000       0.017205
      864.400000       0.017016
      864.500000       0.016831
      864.600000       0.016646
      864.700000       0.016461
      864.800000       0.016278
      864.900000       0.016096
      865.000000       0.015912
      865.100000       0.015731
      865.200000       0.015551
      865.300000       0.015350
      865.400000       0.014995
      865.500000       0.014583
      865.600000       0.014174
      865.700000       0.013767
      865.800000       0.013361
      865.900000       0.012953
      866.000000       0.012547
      866.100000       0.012141
      866.200000       0.011741
      866.300000       0.011515
      866.400000       0.011482
      866.500000       0.011461
      866.600000       0.011440
      866.700000       0.011419
      866.800000       0.011398
      866.900000       0.011377
      867.000000       0.011356
      867.100000       0.011335
      867.200000       0.011332
      867.300000       0.011402
      867.400000       0.011486
      867.500000       0.011570
      867.600000       0.011654
      867.700000       0.011738
      867.800000       0.011823
      867.900000       0.011906
      868.000000       0.011990
      868.100000       0.012070
      868.200000       0.012066
      868.300000       0.012002
      868.400000       0.011936
      868.500000       0.011870
      868.600000       0.011803
      868.700000       0.011737
      868.800000       0.011671
      868.900000       0.011606
      869.000000       0.011541
      869.100000       0.011455
      869.200000       0.011304
      869.300000       0.011148
      869.400000       0.010993
      869.500000       0.010839
      869.600000       0.010685
      869.700000       0.010532
      869.800000       0.010379
      869.900000       0.010226
      870.000000       0.010076
      870.100000       0.009947
      870.200000       0.009831
      870.300000       0.009714
      870.400000       0.009598
      870.500000       0.009481
      870.600000       0.009365
      870.700000       0.009249
      870.800000       0.009133
      870.900000       0.009012
      871.000000       0.008945
      871.100000       0.008959
      871.200000       0.008977
      871.300000       0.008994
      871.400000       0.009012
      871.500000       0.009030
      871.600000       0.009048
      871.700000       0.009066
      871.800000       0.009084
      871.900000       0.009095
      872.000000       0.009074
      872.100000       0.009041
      872.200000       0.009008
      872.300000       0.008975
      872.400000       0.008942
      872.500000       0.008908
      872.600000       0.008875
      872.700000       0.008841
      872.800000       0.008808
      872.900000       0.008754
      873.000000       0.008679
      873.100000       0.008604
      873.200000       0.008529
      873.300000       0.008454
      873.400000       0.008380
      873.500000       0.008306
      873.600000       0.008232
      873.700000       0.008159
      873.800000       0.008073
      873.900000       0.007915
      874.000000       0.007746
      874.100000       0.007577
      874.200000       0.007408
      874.300000       0.007241
      874.400000       0.007073
      874.500000       0.006905
      874.600000       0.006738
      874.700000       0.006569
      874.800000       0.006372
      874.900000       0.006152
      875.000000       0.005932
      875.100000       0.005712
      875.200000       0.005492
      875.300000       0.005273
      875.400000       0.005054
      875.500000       0.004835
      875.600000       0.004612
      875.700000       0.004446
      875.800000       0.004432
      875.900000       0.004432
      876.000000       0.004432
      876.100000       0.004432
      876.200000       0.004433
      876.300000       0.004433
      876.400000       0.004433
      876.500000       0.004434
      876.600000       0.004431
      876.700000       0.004381
      876.800000       0.004305
      876.900000       0.004231
      877.000000       0.004156
      877.100000       0.004082
      877.200000       0.004007
      877.300000       0.003932
      877.400000       0.003857
      877.500000       0.003782
      877.600000       0.003766
      877.700000       0.003896
      877.800000       0.004026
      877.900000       0.004154
      878.000000       0.004283
      878.100000       0.004411
      878.200000       0.004539
      878.300000       0.004667
      878.400000       0.004796
      878.500000       0.004917
      878.600000       0.004987
      878.700000       0.005038
      878.800000       0.005090
      878.900000       0.005142
      879.000000       0.005194
      879.100000       0.005246
      879.200000       0.005297
      879.300000       0.005349
      879.400000       0.005401
      879.500000       0.005443
      879.600000       0.005474
      879.700000       0.005505
      879.800000       0.005537
      879.900000       0.005568
      880.000000       0.005599
      880.100000       0.005630
      880.200000       0.005662
      880.300000       0.005694
      880.400000       0.005712
      880.500000       0.005690
      880.600000       0.005654
      880.700000       0.005618
      880.800000       0.005583
      880.900000       0.005548
      881.000000       0.005513
      881.100000       0.005478
      881.200000       0.005443
      881.300000       0.005413
      881.400000       0.005463
      881.500000       0.005594
      881.600000       0.005722
      881.700000       0.005850
      881.800000       0.005979
      881.900000       0.006108
      882.000000       0.006237
      882.100000       0.006366
      882.200000       0.006496
      882.300000       0.006621
      882.400000       0.006732
      882.500000       0.006842
      882.600000       0.006951
      882.700000       0.007061
      882.800000       0.007171
      882.900000       0.007281
      883.000000       0.007390
      883.100000       0.007500
      883.200000       0.007612
      883.300000       0.007628
      883.400000       0.007610
      883.500000       0.007592
      883.600000       0.007573
      883.700000       0.007554
      883.800000       0.007534
      883.900000       0.007514
      884.000000       0.007494
      884.100000       0.007474
      884.200000       0.007461
      884.300000       0.007460
      884.400000       0.007461
      884.500000       0.007461
      884.600000       0.007462
      884.700000       0.007462
      884.800000       0.007462
      884.900000       0.007463
      885.000000       0.007463
      885.100000       0.007455
      885.200000       0.007253
      885.300000       0.007004
      885.400000       0.006755
      885.500000       0.006507
      885.600000       0.006257
      885.700000       0.006009
      885.800000       0.005760
      885.900000       0.005511
      886.000000       0.005264
      886.100000       0.005119
      886.200000       0.005089
      886.300000       0.005069
      886.400000       0.005050
      886.500000       0.005030
      886.600000       0.005010
      886.700000       0.004991
      886.800000       0.004971
      886.900000       0.004952
      887.000000       0.004939
      887.100000       0.004953
      887.200000       0.004974
      887.300000       0.004995
      887.400000       0.005015
      887.500000       0.005036
      887.600000       0.005056
      887.700000       0.005076
      887.800000       0.005095
      887.900000       0.005114
      888.000000       0.005189
      888.100000       0.005313
      888.200000       0.005435
      888.300000       0.005557
      888.400000       0.005678
      888.500000       0.005799
      888.600000       0.005920
      888.700000       0.006041
      888.800000       0.006167
      888.900000       0.006201
      889.000000       0.005931
      889.100000       0.005622
      889.200000       0.005317
      889.300000       0.005012
      889.400000       0.004707
      889.500000       0.004402
      889.600000       0.004098
      889.700000       0.003791
      889.800000       0.003504
      889.900000       0.003387
      890.000000       0.003369
      890.100000       0.003355
      890.200000       0.003340
      890.300000       0.003325
      890.400000       0.003311
      890.500000       0.003296
      890.600000       0.003282
      890.700000       0.003267
      890.800000       0.003271
      890.900000       0.003342
      891.000000       0.003409
      891.100000       0.003477
      891.200000       0.003544
      891.300000       0.003611
      891.400000       0.003679
      891.500000       0.003746
      891.600000       0.003812
      891.700000       0.003879
      891.800000       0.003936
      891.900000       0.003991
      892.000000       0.004045
      892.100000       0.004100
      892.200000       0.004154
      892.300000       0.004209
      892.400000       0.004263
      892.500000       0.004317
      892.600000       0.004377
      892.700000       0.004246
      892.800000       0.003878
      892.900000       0.003498
      893.000000       0.003119
      893.100000       0.002740
      893.200000       0.002361
      893.300000       0.001982
      893.400000       0.001603
      893.500000       0.001224
      893.600000       0.000865
