3,   3, MVIRI VIS channel from srf_MET5_1991213_1991214_1801-Release_S10EL_10.dat
Number of data points:
806
Wavenumber (cm-1)   Filter response
     8350.730700       0.000000
     8357.710000       0.000000
     8364.701000       0.000000
     8371.703600       0.000001
     8378.718100       0.000004
     8385.744200       0.000009
     8392.782200       0.000016
     8399.832000       0.000026
     8406.893700       0.000040
     8413.967200       0.000057
     8421.052600       0.000080
     8428.150000       0.000107
     8435.259400       0.000140
     8442.380800       0.000178
     8449.514200       0.000223
     8456.659600       0.000274
     8463.817200       0.000332
     8470.986900       0.000398
     8478.168700       0.000471
     8485.362700       0.000553
     8492.569000       0.000643
     8499.787500       0.000741
     8507.018300       0.000849
     8514.261400       0.000966
     8521.516800       0.001092
     8528.784600       0.001229
     8536.064900       0.001375
     8543.357500       0.001532
     8550.662700       0.001700
     8557.980300       0.001879
     8565.310500       0.002069
     8572.653200       0.002270
     8580.008600       0.002483
     8587.376600       0.002707
     8594.757200       0.002944
     8602.150500       0.003193
     8609.556600       0.003455
     8616.975400       0.003729
     8624.407100       0.004016
     8631.851500       0.004316
     8639.308900       0.004629
     8646.779100       0.004956
     8654.262200       0.005296
     8661.758300       0.005650
     8669.267400       0.006018
     8676.789600       0.006399
     8684.324800       0.006795
     8691.873100       0.007206
     8699.434500       0.007630
     8707.009100       0.008070
     8714.596900       0.008524
     8722.198000       0.008993
     8729.812300       0.009477
     8737.439900       0.009976
     8745.080900       0.010491
     8752.735200       0.011021
     8760.403000       0.011566
     8768.084200       0.012128
     8775.778900       0.012705
     8783.487000       0.013298
     8791.208800       0.013906
     8798.944100       0.014531
     8806.693100       0.015173
     8814.455700       0.015831
     8822.232000       0.016505
     8830.022100       0.017196
     8837.825900       0.017904
     8845.643500       0.018628
     8853.475000       0.019370
     8861.320300       0.020128
     8869.179600       0.020904
     8877.052800       0.021697
     8884.940000       0.022507
     8892.841300       0.023335
     8900.756600       0.024180
     8908.686000       0.025043
     8916.629500       0.025924
     8924.587200       0.026823
     8932.559200       0.027740
     8940.545400       0.028675
     8948.545900       0.029629
     8956.560700       0.030600
     8964.589900       0.031590
     8972.633500       0.032599
     8980.691500       0.033626
     8988.764000       0.034672
     8996.851100       0.035737
     9004.952700       0.036821
     9013.068900       0.037923
     9021.199800       0.039045
     9029.345400       0.040187
     9037.505600       0.041347
     9045.680700       0.042527
     9053.870500       0.043727
     9062.075200       0.044946
     9070.294800       0.046185
     9078.529300       0.047444
     9086.778700       0.048723
     9095.043200       0.050022
     9103.322700       0.051341
     9111.617300       0.052680
     9119.927000       0.054040
     9128.251900       0.055420
     9136.592100       0.056820
     9144.947400       0.058242
     9153.318100       0.059684
     9161.704100       0.061146
     9170.105500       0.062630
     9178.522300       0.064134
     9186.954500       0.065660
     9195.402300       0.067207
     9203.865600       0.068775
     9212.344500       0.070364
     9220.839100       0.071975
     9229.349300       0.073608
     9237.875300       0.075261
     9246.417000       0.076937
     9254.974500       0.078634
     9263.547900       0.080354
     9272.137200       0.082095
     9280.742500       0.083858
     9289.363700       0.085643
     9298.000900       0.087451
     9306.654300       0.089280
     9315.323700       0.091132
     9324.009300       0.093006
     9332.711200       0.094903
     9341.429200       0.096822
     9350.163600       0.098764
     9358.914400       0.100728
     9367.681500       0.102715
     9376.465100       0.104725
     9385.265100       0.106757
     9394.081700       0.108813
     9402.914900       0.110891
     9411.764700       0.112992
     9420.631200       0.115117
     9429.514400       0.117264
     9438.414300       0.119434
     9447.331100       0.121628
     9456.264800       0.123844
     9465.215300       0.126084
     9474.182900       0.128347
     9483.167400       0.130633
     9492.169000       0.132943
     9501.187600       0.135276
     9510.223500       0.137632
     9519.276500       0.140012
     9528.346800       0.142415
     9537.434400       0.144841
     9546.539400       0.147291
     9555.661700       0.149764
     9564.801500       0.152260
     9573.958800       0.154780
     9583.133700       0.157324
     9592.326100       0.159890
     9601.536200       0.162480
     9610.764100       0.165094
     9620.009600       0.167731
     9629.273000       0.170391
     9638.554200       0.173074
     9647.853400       0.175781
     9657.170400       0.178511
     9666.505600       0.181264
     9675.858700       0.184041
     9685.230000       0.186840
     9694.619500       0.189663
     9704.027200       0.192509
     9713.453100       0.195377
     9722.897400       0.198269
     9732.360100       0.201184
     9741.841200       0.204121
     9751.340800       0.207081
     9760.859000       0.210064
     9770.395700       0.213070
     9779.951100       0.216098
     9789.525200       0.219149
     9799.118100       0.222222
     9808.729800       0.225317
     9818.360300       0.228434
     9828.009800       0.231574
     9837.678300       0.234735
     9847.365800       0.237919
     9857.072400       0.241124
     9866.798200       0.244351
     9876.543200       0.247599
     9886.307500       0.250869
     9896.091000       0.254160
     9905.894000       0.257472
     9915.716400       0.260806
     9925.558300       0.264160
     9935.419800       0.267535
     9945.300800       0.270931
     9955.201600       0.274347
     9965.122100       0.277783
     9975.062300       0.281239
     9985.022500       0.284716
     9995.002500       0.288213
    10005.002500       0.291729
    10015.022500       0.295264
    10025.062700       0.298819
    10035.122900       0.302392
    10045.203400       0.305985
    10055.304200       0.309597
    10065.425300       0.313227
    10075.566800       0.316875
    10085.728700       0.320541
    10095.911200       0.324226
    10106.114200       0.327928
    10116.337900       0.331647
    10126.582300       0.335384
    10136.847400       0.339138
    10147.133400       0.342908
    10157.440300       0.346696
    10167.768200       0.350499
    10178.117000       0.354319
    10188.487000       0.358154
    10198.878100       0.362005
    10209.290500       0.365872
    10219.724100       0.369753
    10230.179000       0.373649
    10240.655400       0.377561
    10251.153300       0.381486
    10261.672700       0.385425
    10272.213700       0.389378
    10282.776300       0.393344
    10293.360800       0.397324
    10303.967000       0.401317
    10314.595200       0.405322
    10325.245200       0.409339
    10335.917300       0.413369
    10346.611500       0.417410
    10357.327800       0.421463
    10368.066400       0.425527
    10378.827200       0.429602
    10389.610400       0.433687
    10400.416000       0.437782
    10411.244100       0.441888
    10422.094800       0.446002
    10432.968200       0.450126
    10443.864200       0.454259
    10454.783100       0.458401
    10465.724800       0.462550
    10476.689400       0.466708
    10487.677000       0.470873
    10498.687700       0.475046
    10509.721500       0.479225
    10520.778500       0.483411
    10531.858900       0.487602
    10542.962600       0.491800
    10554.089700       0.496004
    10565.240400       0.500212
    10576.414600       0.504425
    10587.612500       0.508642
    10598.834100       0.512864
    10610.079600       0.517089
    10621.348900       0.521317
    10632.642200       0.525549
    10643.959600       0.529783
    10655.301000       0.534019
    10666.666700       0.538257
    10678.056600       0.542496
    10689.470900       0.546736
    10700.909600       0.550978
    10712.372800       0.555219
    10723.860600       0.559460
    10735.373100       0.563701
    10746.910300       0.567941
    10758.472300       0.572179
    10770.059200       0.576416
    10781.671200       0.580651
    10793.308100       0.584883
    10804.970300       0.589113
    10816.657700       0.593340
    10828.370300       0.597563
    10840.108400       0.601781
    10851.871900       0.605996
    10863.661100       0.610206
    10875.475800       0.614410
    10887.316300       0.618609
    10899.182600       0.622802
    10911.074700       0.626989
    10922.992900       0.631169
    10934.937100       0.635341
    10946.907500       0.639506
    10958.904100       0.643664
    10970.927000       0.647813
    10982.976400       0.651953
    10995.052200       0.656083
    11007.154700       0.660205
    11019.283700       0.664316
    11031.439600       0.668418
    11043.622300       0.672508
    11055.832000       0.676587
    11068.068600       0.680655
    11080.332400       0.684711
    11092.623400       0.688754
    11104.941700       0.692785
    11117.287400       0.696803
    11129.660500       0.700807
    11142.061300       0.704798
    11154.489700       0.708774
    11166.945800       0.712736
    11179.429800       0.716683
    11191.941800       0.720614
    11204.481800       0.724530
    11217.049900       0.728429
    11229.646300       0.732312
    11242.270900       0.736178
    11254.924000       0.740027
    11267.605600       0.743858
    11280.315800       0.747671
    11293.054800       0.751466
    11305.822500       0.755242
    11318.619100       0.758999
    11331.444800       0.762737
    11344.299500       0.766454
    11357.183400       0.770152
    11370.096600       0.773829
    11383.039300       0.777485
    11396.011400       0.781120
    11409.013100       0.784734
    11422.044500       0.788325
    11435.105800       0.791895
    11448.196900       0.795442
    11461.318100       0.798965
    11474.469300       0.802466
    11487.650800       0.805943
    11500.862600       0.809397
    11514.104800       0.812826
    11527.377500       0.816231
    11540.680900       0.819610
    11554.015000       0.822965
    11567.380000       0.826295
    11580.775900       0.829598
    11594.202900       0.832876
    11607.661100       0.836127
    11621.150500       0.839352
    11634.671300       0.842550
    11648.223600       0.845720
    11661.807600       0.848864
    11675.423200       0.851979
    11689.070700       0.855067
    11702.750100       0.858126
    11716.461600       0.861157
    11730.205300       0.864159
    11743.981200       0.867132
    11757.789500       0.870076
    11771.630400       0.872991
    11785.503800       0.875875
    11799.410000       0.878730
    11813.349100       0.881555
    11827.321100       0.884349
    11841.326200       0.887112
    11855.364600       0.889845
    11869.436200       0.892547
    11883.541300       0.895217
    11897.680000       0.897856
    11911.852300       0.900464
    11926.058400       0.903039
    11940.298500       0.905583
    11954.572600       0.908094
    11968.880900       0.910573
    11983.223500       0.913020
    11997.600500       0.915434
    12012.012000       0.917815
    12026.458200       0.920163
    12040.939200       0.922478
    12055.455100       0.924760
    12070.006000       0.927008
    12084.592100       0.929223
    12099.213600       0.931404
    12113.870400       0.933552
    12128.562800       0.935665
    12143.290800       0.937745
    12158.054700       0.939791
    12172.854500       0.941802
    12187.690400       0.943779
    12202.562500       0.945722
    12217.471000       0.947630
    12232.415900       0.949504
    12247.397400       0.951344
    12262.415700       0.953149
    12277.470800       0.954919
    12292.563000       0.956654
    12307.692300       0.958355
    12322.858900       0.960021
    12338.062900       0.961652
    12353.304500       0.963249
    12368.583800       0.964810
    12383.900900       0.966337
    12399.256000       0.967829
    12414.649300       0.969286
    12430.080800       0.970708
    12445.550700       0.972095
    12461.059200       0.973448
    12476.606400       0.974766
    12492.192400       0.976049
    12507.817400       0.977297
    12523.481500       0.978511
    12539.185000       0.979690
    12554.927800       0.980834
    12570.710200       0.981944
    12586.532400       0.983020
    12602.394500       0.984061
    12618.296500       0.985068
    12634.238800       0.986041
    12650.221400       0.986979
    12666.244500       0.987884
    12682.308200       0.988755
    12698.412700       0.989592
    12714.558200       0.990395
    12730.744700       0.991165
    12746.972600       0.991901
    12763.241900       0.992605
    12779.552700       0.993275
    12795.905300       0.993912
    12812.299800       0.994516
    12828.736400       0.995087
    12845.215200       0.995626
    12861.736300       0.996133
    12878.300100       0.996608
    12894.906500       0.997050
    12911.555800       0.997461
    12928.248200       0.997840
    12944.983800       0.998187
    12961.762800       0.998504
    12978.585300       0.998789
    12995.451600       0.999044
    13012.361700       0.999268
    13029.316000       0.999462
    13046.314400       0.999625
    13063.357300       0.999759
    13080.444700       0.999863
    13097.576900       0.999938
    13114.754100       0.999983
    13131.976400       1.000000
    13149.243900       0.999988
    13166.556900       0.999948
    13183.915600       0.999879
    13201.320100       0.999783
    13218.770700       0.999659
    13236.267400       0.999508
    13253.810500       0.999330
    13271.400100       0.999125
    13289.036500       0.998894
    13306.719900       0.998637
    13324.450400       0.998354
    13342.228200       0.998045
    13360.053400       0.997712
    13377.926400       0.997353
    13395.847300       0.996971
    13413.816200       0.996564
    13431.833400       0.996133
    13449.899100       0.995678
    13468.013500       0.995201
    13486.176700       0.994700
    13504.388900       0.994178
    13522.650400       0.993633
    13540.961400       0.993066
    13559.322000       0.992478
    13577.732500       0.991869
    13596.193100       0.991239
    13614.703900       0.990588
    13633.265200       0.989918
    13651.877100       0.989229
    13670.540000       0.988520
    13689.253900       0.987792
    13708.019200       0.987046
    13726.836000       0.986282
    13745.704500       0.985500
    13764.624900       0.984701
    13783.597500       0.983885
    13802.622500       0.983052
    13821.700100       0.982204
    13840.830400       0.981339
    13860.013900       0.980460
    13879.250500       0.979565
    13898.540700       0.978656
    13917.884500       0.977733
    13937.282200       0.976797
    13956.734100       0.975847
    13976.240400       0.974884
    13995.801300       0.973909
    14015.417000       0.972922
    14035.087700       0.971923
    14054.813800       0.970913
    14074.595400       0.969892
    14094.432700       0.968861
    14114.326000       0.967819
    14134.275600       0.966769
    14154.281700       0.965709
    14174.344400       0.964640
    14194.464200       0.963564
    14214.641100       0.962479
    14234.875400       0.961387
    14255.167500       0.960288
    14275.517500       0.959182
    14295.925700       0.958071
    14316.392300       0.956953
    14336.917600       0.955830
    14357.501800       0.954702
    14378.145200       0.953570
    14398.848100       0.952433
    14419.610700       0.951293
    14440.433200       0.950149
    14461.316000       0.949003
    14482.259200       0.947854
    14503.263200       0.946703
    14524.328200       0.945551
    14545.454500       0.944397
    14566.642400       0.943242
    14587.892000       0.942087
    14609.203800       0.940932
    14630.577900       0.939777
    14652.014700       0.938623
    14673.514300       0.937471
    14695.077100       0.936319
    14716.703500       0.935170
    14738.393500       0.934023
    14760.147600       0.932878
    14781.966000       0.931737
    14803.849000       0.930599
    14825.796900       0.929465
    14847.809900       0.928335
    14869.888500       0.927209
    14892.032800       0.926088
    14914.243100       0.924973
    14936.519800       0.923863
    14958.863100       0.922759
    14981.273400       0.921662
    15003.750900       0.920570
    15026.296000       0.919486
    15048.909000       0.918410
    15071.590100       0.917340
    15094.339600       0.916279
    15117.158000       0.915226
    15140.045400       0.914181
    15163.002300       0.913146
    15186.028900       0.912119
    15209.125500       0.911102
    15232.292500       0.910095
    15255.530100       0.909097
    15278.838800       0.908110
    15302.218800       0.907134
    15325.670500       0.906168
    15349.194200       0.905213
    15372.790200       0.904270
    15396.458800       0.903338
    15420.200500       0.902418
    15444.015400       0.901510
    15467.904100       0.900615
    15491.866800       0.899732
    15515.903800       0.898861
    15540.015500       0.898004
    15564.202300       0.897159
    15588.464500       0.896328
    15612.802500       0.895511
    15637.216600       0.894707
    15661.707100       0.893917
    15686.274500       0.893140
    15710.919100       0.892378
    15735.641200       0.891631
    15760.441300       0.890897
    15785.319700       0.890179
    15810.276700       0.889475
    15835.312700       0.888785
    15860.428200       0.888111
    15885.623500       0.887452
    15910.899000       0.886807
    15936.255000       0.886178
    15961.691900       0.885564
    15987.210200       0.884965
    16012.810200       0.884382
    16038.492400       0.883814
    16064.257000       0.883262
    16090.104600       0.882724
    16116.035500       0.882203
    16142.050000       0.881697
    16168.148700       0.881206
    16194.332000       0.880730
    16220.600200       0.880271
    16246.953700       0.879826
    16273.393000       0.879397
    16299.918500       0.878983
    16326.530600       0.878584
    16353.229800       0.878201
    16380.016400       0.877832
    16406.890900       0.877479
    16433.853700       0.877140
    16460.905300       0.876817
    16488.046200       0.876507
    16515.276600       0.876213
    16542.597200       0.875932
    16570.008300       0.875666
    16597.510400       0.875414
    16625.103900       0.875176
    16652.789300       0.874952
    16680.567100       0.874741
    16708.437800       0.874543
    16736.401700       0.874359
    16764.459300       0.874187
    16792.611300       0.874028
    16820.857900       0.873881
    16849.199700       0.873747
    16877.637100       0.873624
    16906.170800       0.873513
    16934.801000       0.873413
    16963.528400       0.873324
    16992.353400       0.873245
    17021.276600       0.873177
    17050.298400       0.873119
    17079.419300       0.873070
    17108.639900       0.873031
    17137.960600       0.873001
    17167.382000       0.872979
    17196.904600       0.872965
    17226.528900       0.872959
    17256.255400       0.872961
    17286.084700       0.872969
    17316.017300       0.872983
    17346.053800       0.873004
    17376.194600       0.873030
    17406.440400       0.873062
    17436.791600       0.873097
    17467.248900       0.873137
    17497.812800       0.873181
    17528.483800       0.873228
    17559.262500       0.873277
    17590.149500       0.873328
    17621.145400       0.873381
    17652.250700       0.873434
    17683.466000       0.873488
    17714.791900       0.873542
    17746.228900       0.873595
    17777.777800       0.873647
    17809.439000       0.873697
    17841.213200       0.873744
    17873.101000       0.873787
    17905.103000       0.873827
    17937.219700       0.873863
    17969.451900       0.873893
    18001.800200       0.873917
    18034.265100       0.873935
    18066.847300       0.873945
    18099.547500       0.873948
    18132.366300       0.873942
    18165.304300       0.873927
    18198.362100       0.873901
    18231.540600       0.873865
    18264.840200       0.873817
    18298.261700       0.873757
    18331.805700       0.873684
    18365.472900       0.873597
    18399.264000       0.873495
    18433.179700       0.873378
    18467.220700       0.873245
    18501.387600       0.873094
    18535.681200       0.872926
    18570.102100       0.872739
    18604.651200       0.872533
    18639.329000       0.872306
    18674.136300       0.872058
    18709.073900       0.871789
    18744.142500       0.871496
    18779.342700       0.871179
    18814.675400       0.870838
    18850.141400       0.870472
    18885.741300       0.870079
    18921.475900       0.869658
    18957.346000       0.869210
    18993.352300       0.868732
    19029.495700       0.868225
    19065.776900       0.867686
    19102.196800       0.867116
    19138.756000       0.866513
    19175.455400       0.865876
    19212.295900       0.865205
    19249.278200       0.864498
    19286.403100       0.863754
    19323.671500       0.862973
    19361.084200       0.862154
    19398.642100       0.861295
    19436.346000       0.860395
    19474.196700       0.859455
    19512.195100       0.858472
    19550.342100       0.857446
    19588.638600       0.856376
    19627.085400       0.855260
    19665.683400       0.854098
    19704.433500       0.852889
    19743.336600       0.851632
    19782.393700       0.850326
    19821.605600       0.848970
    19860.973200       0.847563
    19900.497500       0.846103
    19940.179500       0.844591
    19980.020000       0.843025
    20020.020000       0.841403
    20060.180500       0.839726
    20100.502500       0.837992
    20140.986900       0.836199
    20181.634700       0.834348
    20222.446900       0.832437
    20263.424500       0.830465
    20304.568500       0.828432
    20345.880000       0.826335
    20387.359800       0.824175
    20429.009200       0.821950
    20470.829100       0.819660
    20512.820500       0.817303
    20554.984600       0.814878
    20597.322300       0.812385
    20639.834900       0.809823
    20682.523300       0.807190
    20725.388600       0.804487
    20768.432000       0.801711
    20811.654500       0.798862
    20855.057400       0.795939
    20898.641600       0.792942
    20942.408400       0.789869
    20986.358900       0.786719
    21030.494200       0.783492
    21074.815600       0.780187
    21119.324200       0.776803
    21164.021200       0.773339
    21208.907700       0.769794
    21253.985100       0.766168
    21299.254500       0.762459
    21344.717200       0.758668
    21390.374300       0.754793
    21436.227200       0.750833
    21482.277100       0.746788
    21528.525300       0.742657
    21574.973000       0.738439
    21621.621600       0.734134
    21668.472400       0.729741
    21715.526600       0.725260
    21762.785600       0.720689
    21810.250800       0.716028
    21857.923500       0.711276
    21905.805000       0.706433
    21953.896800       0.701499
    22002.200200       0.696473
    22050.716600       0.691353
    22099.447500       0.686141
    22148.394200       0.680835
    22197.558300       0.675434
    22246.941000       0.669939
    22296.544000       0.664349
    22346.368700       0.658663
    22396.416600       0.652882
    22446.689100       0.647004
    22497.187900       0.641030
    22547.914300       0.634960
    22598.870100       0.628792
    22650.056600       0.622527
    22701.475600       0.616164
    22753.128600       0.609704
    22805.017100       0.603146
    22857.142900       0.596491
    22909.507400       0.589737
    22962.112500       0.582885
    23014.959700       0.575935
    23068.050700       0.568887
    23121.387300       0.561741
    23174.971000       0.554496
    23228.803700       0.547154
    23282.887100       0.539714
    23337.222900       0.532176
    23391.812900       0.524541
    23446.658900       0.516809
    23501.762600       0.508980
    23557.126000       0.501054
    23612.750900       0.493032
    23668.639100       0.484914
    23724.792400       0.476700
    23781.212800       0.468392
    23837.902300       0.459989
    23894.862600       0.451492
    23952.095800       0.442902
    24009.603800       0.434219
    24067.388700       0.425444
    24125.452400       0.416578
    24183.796900       0.407621
    24242.424200       0.398575
    24301.336600       0.389439
    24360.535900       0.380216
    24420.024400       0.370905
    24479.804200       0.361508
    24539.877300       0.352027
    24600.246000       0.342462
    24660.912500       0.332813
    24721.878900       0.323084
    24783.147500       0.313273
    24844.720500       0.303384
    24906.600200       0.293417
    24968.789000       0.283374
    25031.289100       0.273256
    25094.102900       0.263065
    25157.232700       0.252802
    25220.681000       0.242469
    25284.450100       0.232067
    25348.542500       0.221599
    25412.960600       0.211066
    25477.707000       0.200470
