7,   7, MVIRI VIS channel from srf_MET3_1989258_1989259_1801-Release_S10EE_10.dat
Number of data points:
743
Wavenumber (cm-1)   Filter response
     8814.455700       0.000000
     8822.232000       0.000000
     8830.022100       0.000702
     8837.825900       0.002946
     8845.643500       0.005209
     8853.475000       0.007490
     8861.320300       0.009789
     8869.179600       0.012103
     8877.052800       0.014433
     8884.940000       0.016777
     8892.841300       0.019133
     8900.756600       0.021502
     8908.686000       0.023883
     8916.629500       0.026273
     8924.587200       0.028673
     8932.559200       0.031082
     8940.545400       0.033500
     8948.545900       0.035926
     8956.560700       0.038358
     8964.589900       0.040798
     8972.633500       0.043243
     8980.691500       0.045694
     8988.764000       0.048150
     8996.851100       0.050611
     9004.952700       0.053077
     9013.068900       0.055547
     9021.199800       0.058021
     9029.345400       0.060499
     9037.505600       0.062980
     9045.680700       0.065465
     9053.870500       0.067953
     9062.075200       0.070444
     9070.294800       0.072938
     9078.529300       0.075435
     9086.778700       0.077935
     9095.043200       0.080438
     9103.322700       0.082943
     9111.617300       0.085452
     9119.927000       0.087963
     9128.251900       0.090478
     9136.592100       0.092995
     9144.947400       0.095515
     9153.318100       0.098039
     9161.704100       0.100566
     9170.105500       0.103097
     9178.522300       0.105632
     9186.954500       0.108170
     9195.402300       0.110712
     9203.865600       0.113258
     9212.344500       0.115810
     9220.839100       0.118365
     9229.349300       0.120926
     9237.875300       0.123492
     9246.417000       0.126062
     9254.974500       0.128639
     9263.547900       0.131222
     9272.137200       0.133811
     9280.742500       0.136406
     9289.363700       0.139008
     9298.000900       0.141617
     9306.654300       0.144233
     9315.323700       0.146857
     9324.009300       0.149488
     9332.711200       0.152128
     9341.429200       0.154776
     9350.163600       0.157433
     9358.914400       0.160099
     9367.681500       0.162775
     9376.465100       0.165460
     9385.265100       0.168155
     9394.081700       0.170860
     9402.914900       0.173576
     9411.764700       0.176303
     9420.631200       0.179041
     9429.514400       0.181790
     9438.414300       0.184552
     9447.331100       0.187325
     9456.264800       0.190110
     9465.215300       0.192908
     9474.182900       0.195719
     9483.167400       0.198544
     9492.169000       0.201381
     9501.187600       0.204232
     9510.223500       0.207098
     9519.276500       0.209977
     9528.346800       0.212871
     9537.434400       0.215780
     9546.539400       0.218703
     9555.661700       0.221642
     9564.801500       0.224596
     9573.958800       0.227566
     9583.133700       0.230552
     9592.326100       0.233553
     9601.536200       0.236571
     9610.764100       0.239606
     9620.009600       0.242657
     9629.273000       0.245724
     9638.554200       0.248809
     9647.853400       0.251911
     9657.170400       0.255029
     9666.505600       0.258166
     9675.858700       0.261320
     9685.230000       0.264491
     9694.619500       0.267681
     9704.027200       0.270888
     9713.453100       0.274113
     9722.897400       0.277357
     9732.360100       0.280618
     9741.841200       0.283898
     9751.340800       0.287196
     9760.859000       0.290512
     9770.395700       0.293847
     9779.951100       0.297200
     9789.525200       0.300572
     9799.118100       0.303962
     9808.729800       0.307370
     9818.360300       0.310798
     9828.009800       0.314243
     9837.678300       0.317707
     9847.365800       0.321190
     9857.072400       0.324691
     9866.798200       0.328210
     9876.543200       0.331747
     9886.307500       0.335303
     9896.091000       0.338878
     9905.894000       0.342470
     9915.716400       0.346080
     9925.558300       0.349708
     9935.419800       0.353354
     9945.300800       0.357018
     9955.201600       0.360699
     9965.122100       0.364397
     9975.062300       0.368113
     9985.022500       0.371846
     9995.002500       0.375597
    10005.002500       0.379363
    10015.022500       0.383147
    10025.062700       0.386947
    10035.122900       0.390763
    10045.203400       0.394595
    10055.304200       0.398444
    10065.425300       0.402308
    10075.566800       0.406187
    10085.728700       0.410081
    10095.911200       0.413991
    10106.114200       0.417915
    10116.337900       0.421854
    10126.582300       0.425806
    10136.847400       0.429773
    10147.133400       0.433754
    10157.440300       0.437747
    10167.768200       0.441754
    10178.117000       0.445774
    10188.487000       0.449806
    10198.878100       0.453850
    10209.290500       0.457906
    10219.724100       0.461974
    10230.179000       0.466053
    10240.655400       0.470143
    10251.153300       0.474243
    10261.672700       0.478353
    10272.213700       0.482474
    10282.776300       0.486604
    10293.360800       0.490743
    10303.967000       0.494891
    10314.595200       0.499047
    10325.245200       0.503211
    10335.917300       0.507383
    10346.611500       0.511562
    10357.327800       0.515748
    10368.066400       0.519940
    10378.827200       0.524138
    10389.610400       0.528343
    10400.416000       0.532552
    10411.244100       0.536766
    10422.094800       0.540985
    10432.968200       0.545207
    10443.864200       0.549434
    10454.783100       0.553663
    10465.724800       0.557895
    10476.689400       0.562130
    10487.677000       0.566366
    10498.687700       0.570604
    10509.721500       0.574843
    10520.778500       0.579082
    10531.858900       0.583321
    10542.962600       0.587561
    10554.089700       0.591799
    10565.240400       0.596036
    10576.414600       0.600272
    10587.612500       0.604505
    10598.834100       0.608736
    10610.079600       0.612964
    10621.348900       0.617188
    10632.642200       0.621408
    10643.959600       0.625625
    10655.301000       0.629836
    10666.666700       0.634041
    10678.056600       0.638241
    10689.470900       0.642435
    10700.909600       0.646623
    10712.372800       0.650803
    10723.860600       0.654975
    10735.373100       0.659139
    10746.910300       0.663295
    10758.472300       0.667442
    10770.059200       0.671579
    10781.671200       0.675707
    10793.308100       0.679824
    10804.970300       0.683930
    10816.657700       0.688025
    10828.370300       0.692108
    10840.108400       0.696180
    10851.871900       0.700238
    10863.661100       0.704284
    10875.475800       0.708316
    10887.316300       0.712334
    10899.182600       0.716337
    10911.074700       0.720326
    10922.992900       0.724300
    10934.937100       0.728258
    10946.907500       0.732199
    10958.904100       0.736124
    10970.927000       0.740033
    10982.976400       0.743923
    10995.052200       0.747796
    11007.154700       0.751651
    11019.283700       0.755487
    11031.439600       0.759304
    11043.622300       0.763101
    11055.832000       0.766879
    11068.068600       0.770636
    11080.332400       0.774372
    11092.623400       0.778088
    11104.941700       0.781781
    11117.287400       0.785453
    11129.660500       0.789103
    11142.061300       0.792730
    11154.489700       0.796334
    11166.945800       0.799915
    11179.429800       0.803471
    11191.941800       0.807004
    11204.481800       0.810512
    11217.049900       0.813996
    11229.646300       0.817454
    11242.270900       0.820887
    11254.924000       0.824294
    11267.605600       0.827674
    11280.315800       0.831028
    11293.054800       0.834355
    11305.822500       0.837655
    11318.619100       0.840928
    11331.444800       0.844172
    11344.299500       0.847389
    11357.183400       0.850577
    11370.096600       0.853736
    11383.039300       0.856866
    11396.011400       0.859967
    11409.013100       0.863039
    11422.044500       0.866080
    11435.105800       0.869092
    11448.196900       0.872073
    11461.318100       0.875023
    11474.469300       0.877942
    11487.650800       0.880831
    11500.862600       0.883688
    11514.104800       0.886513
    11527.377500       0.889306
    11540.680900       0.892068
    11554.015000       0.894797
    11567.380000       0.897493
    11580.775900       0.900157
    11594.202900       0.902788
    11607.661100       0.905386
    11621.150500       0.907950
    11634.671300       0.910481
    11648.223600       0.912979
    11661.807600       0.915442
    11675.423200       0.917872
    11689.070700       0.920267
    11702.750100       0.922628
    11716.461600       0.924955
    11730.205300       0.927246
    11743.981200       0.929504
    11757.789500       0.931726
    11771.630400       0.933913
    11785.503800       0.936066
    11799.410000       0.938183
    11813.349100       0.940265
    11827.321100       0.942311
    11841.326200       0.944322
    11855.364600       0.946297
    11869.436200       0.948236
    11883.541300       0.950140
    11897.680000       0.952008
    11911.852300       0.953840
    11926.058400       0.955636
    11940.298500       0.957396
    11954.572600       0.959120
    11968.880900       0.960808
    11983.223500       0.962460
    11997.600500       0.964075
    12012.012000       0.965655
    12026.458200       0.967198
    12040.939200       0.968705
    12055.455100       0.970176
    12070.006000       0.971611
    12084.592100       0.973009
    12099.213600       0.974371
    12113.870400       0.975697
    12128.562800       0.976987
    12143.290800       0.978241
    12158.054700       0.979459
    12172.854500       0.980641
    12187.690400       0.981787
    12202.562500       0.982896
    12217.471000       0.983970
    12232.415900       0.985009
    12247.397400       0.986011
    12262.415700       0.986978
    12277.470800       0.987909
    12292.563000       0.988804
    12307.692300       0.989664
    12322.858900       0.990489
    12338.062900       0.991278
    12353.304500       0.992033
    12368.583800       0.992752
    12383.900900       0.993436
    12399.256000       0.994086
    12414.649300       0.994701
    12430.080800       0.995281
    12445.550700       0.995827
    12461.059200       0.996338
    12476.606400       0.996816
    12492.192400       0.997259
    12507.817400       0.997669
    12523.481500       0.998044
    12539.185000       0.998387
    12554.927800       0.998695
    12570.710200       0.998971
    12586.532400       0.999213
    12602.394500       0.999423
    12618.296500       0.999600
    12634.238800       0.999744
    12650.221400       0.999856
    12666.244500       0.999936
    12682.308200       0.999984
    12698.412700       1.000000
    12714.558200       0.999984
    12730.744700       0.999938
    12746.972600       0.999860
    12763.241900       0.999750
    12779.552700       0.999611
    12795.905300       0.999440
    12812.299800       0.999240
    12828.736400       0.999009
    12845.215200       0.998748
    12861.736300       0.998458
    12878.300100       0.998138
    12894.906500       0.997789
    12911.555800       0.997412
    12928.248200       0.997005
    12944.983800       0.996570
    12961.762800       0.996107
    12978.585300       0.995615
    12995.451600       0.995096
    13012.361700       0.994550
    13029.316000       0.993976
    13046.314400       0.993376
    13063.357300       0.992748
    13080.444700       0.992094
    13097.576900       0.991414
    13114.754100       0.990708
    13131.976400       0.989976
    13149.243900       0.989219
    13166.556900       0.988436
    13183.915600       0.987629
    13201.320100       0.986797
    13218.770700       0.985940
    13236.267400       0.985060
    13253.810500       0.984155
    13271.400100       0.983228
    13289.036500       0.982276
    13306.719900       0.981302
    13324.450400       0.980305
    13342.228200       0.979286
    13360.053400       0.978244
    13377.926400       0.977181
    13395.847300       0.976095
    13413.816200       0.974989
    13431.833400       0.973861
    13449.899100       0.972713
    13468.013500       0.971544
    13486.176700       0.970354
    13504.388900       0.969145
    13522.650400       0.967916
    13540.961400       0.966668
    13559.322000       0.965400
    13577.732500       0.964114
    13596.193100       0.962809
    13614.703900       0.961485
    13633.265200       0.960144
    13651.877100       0.958785
    13670.540000       0.957408
    13689.253900       0.956014
    13708.019200       0.954603
    13726.836000       0.953175
    13745.704500       0.951731
    13764.624900       0.950271
    13783.597500       0.948795
    13802.622500       0.947303
    13821.700100       0.945796
    13840.830400       0.944274
    13860.013900       0.942736
    13879.250500       0.941185
    13898.540700       0.939619
    13917.884500       0.938039
    13937.282200       0.936445
    13956.734100       0.934838
    13976.240400       0.933217
    13995.801300       0.931583
    14015.417000       0.929937
    14035.087700       0.928278
    14054.813800       0.926606
    14074.595400       0.924923
    14094.432700       0.923228
    14114.326000       0.921521
    14134.275600       0.919803
    14154.281700       0.918073
    14174.344400       0.916333
    14194.464200       0.914582
    14214.641100       0.912821
    14234.875400       0.911050
    14255.167500       0.909268
    14275.517500       0.907477
    14295.925700       0.905677
    14316.392300       0.903866
    14336.917600       0.902047
    14357.501800       0.900219
    14378.145200       0.898383
    14398.848100       0.896537
    14419.610700       0.894684
    14440.433200       0.892822
    14461.316000       0.890953
    14482.259200       0.889075
    14503.263200       0.887191
    14524.328200       0.885298
    14545.454500       0.883399
    14566.642400       0.881493
    14587.892000       0.879580
    14609.203800       0.877660
    14630.577900       0.875734
    14652.014700       0.873802
    14673.514300       0.871863
    14695.077100       0.869919
    14716.703500       0.867968
    14738.393500       0.866012
    14760.147600       0.864051
    14781.966000       0.862084
    14803.849000       0.860112
    14825.796900       0.858135
    14847.809900       0.856153
    14869.888500       0.854166
    14892.032800       0.852174
    14914.243100       0.850178
    14936.519800       0.848177
    14958.863100       0.846173
    14981.273400       0.844163
    15003.750900       0.842150
    15026.296000       0.840133
    15048.909000       0.838112
    15071.590100       0.836087
    15094.339600       0.834059
    15117.158000       0.832026
    15140.045400       0.829991
    15163.002300       0.827952
    15186.028900       0.825910
    15209.125500       0.823864
    15232.292500       0.821815
    15255.530100       0.819763
    15278.838800       0.817708
    15302.218800       0.815650
    15325.670500       0.813590
    15349.194200       0.811526
    15372.790200       0.809460
    15396.458800       0.807390
    15420.200500       0.805319
    15444.015400       0.803244
    15467.904100       0.801167
    15491.866800       0.799087
    15515.903800       0.797005
    15540.015500       0.794920
    15564.202300       0.792833
    15588.464500       0.790743
    15612.802500       0.788651
    15637.216600       0.786556
    15661.707100       0.784459
    15686.274500       0.782360
    15710.919100       0.780258
    15735.641200       0.778154
    15760.441300       0.776047
    15785.319700       0.773938
    15810.276700       0.771827
    15835.312700       0.769713
    15860.428200       0.767597
    15885.623500       0.765478
    15910.899000       0.763357
    15936.255000       0.761233
    15961.691900       0.759107
    15987.210200       0.756978
    16012.810200       0.754847
    16038.492400       0.752713
    16064.257000       0.750576
    16090.104600       0.748437
    16116.035500       0.746295
    16142.050000       0.744151
    16168.148700       0.742003
    16194.332000       0.739853
    16220.600200       0.737700
    16246.953700       0.735543
    16273.393000       0.733384
    16299.918500       0.731222
    16326.530600       0.729057
    16353.229800       0.726888
    16380.016400       0.724716
    16406.890900       0.722541
    16433.853700       0.720362
    16460.905300       0.718180
    16488.046200       0.715995
    16515.276600       0.713805
    16542.597200       0.711613
    16570.008300       0.709416
    16597.510400       0.707215
    16625.103900       0.705011
    16652.789300       0.702802
    16680.567100       0.700590
    16708.437800       0.698373
    16736.401700       0.696152
    16764.459300       0.693926
    16792.611300       0.691696
    16820.857900       0.689462
    16849.199700       0.687223
    16877.637100       0.684979
    16906.170800       0.682730
    16934.801000       0.680477
    16963.528400       0.678218
    16992.353400       0.675954
    17021.276600       0.673685
    17050.298400       0.671411
    17079.419300       0.669131
    17108.639900       0.666846
    17137.960600       0.664555
    17167.382000       0.662258
    17196.904600       0.659956
    17226.528900       0.657648
    17256.255400       0.655334
    17286.084700       0.653013
    17316.017300       0.650686
    17346.053800       0.648353
    17376.194600       0.646014
    17406.440400       0.643668
    17436.791600       0.641316
    17467.248900       0.638956
    17497.812800       0.636590
    17528.483800       0.634218
    17559.262500       0.631838
    17590.149500       0.629451
    17621.145400       0.627056
    17652.250700       0.624655
    17683.466000       0.622246
    17714.791900       0.619829
    17746.228900       0.617406
    17777.777800       0.614974
    17809.439000       0.612535
    17841.213200       0.610088
    17873.101000       0.607632
    17905.103000       0.605169
    17937.219700       0.602698
    17969.451900       0.600219
    18001.800200       0.597731
    18034.265100       0.595236
    18066.847300       0.592731
    18099.547500       0.590219
    18132.366300       0.587698
    18165.304300       0.585168
    18198.362100       0.582629
    18231.540600       0.580082
    18264.840200       0.577526
    18298.261700       0.574961
    18331.805700       0.572388
    18365.472900       0.569805
    18399.264000       0.567213
    18433.179700       0.564613
    18467.220700       0.562003
    18501.387600       0.559384
    18535.681200       0.556756
    18570.102100       0.554119
    18604.651200       0.551472
    18639.329000       0.548817
    18674.136300       0.546152
    18709.073900       0.543477
    18744.142500       0.540794
    18779.342700       0.538101
    18814.675400       0.535398
    18850.141400       0.532687
    18885.741300       0.529966
    18921.475900       0.527235
    18957.346000       0.524495
    18993.352300       0.521746
    19029.495700       0.518988
    19065.776900       0.516220
    19102.196800       0.513443
    19138.756000       0.510657
    19175.455400       0.507861
    19212.295900       0.505056
    19249.278200       0.502242
    19286.403100       0.499419
    19323.671500       0.496587
    19361.084200       0.493746
    19398.642100       0.490895
    19436.346000       0.488036
    19474.196700       0.485168
    19512.195100       0.482291
    19550.342100       0.479406
    19588.638600       0.476511
    19627.085400       0.473609
    19665.683400       0.470697
    19704.433500       0.467777
    19743.336600       0.464850
    19782.393700       0.461913
    19821.605600       0.458969
    19860.973200       0.456017
    19900.497500       0.453057
    19940.179500       0.450089
    19980.020000       0.447114
    20020.020000       0.444131
    20060.180500       0.441140
    20100.502500       0.438143
    20140.986900       0.435138
    20181.634700       0.432127
    20222.446900       0.429109
    20263.424500       0.426084
    20304.568500       0.423052
    20345.880000       0.420015
    20387.359800       0.416971
    20429.009200       0.413922
    20470.829100       0.410866
    20512.820500       0.407805
    20554.984600       0.404739
    20597.322300       0.401668
    20639.834900       0.398592
    20682.523300       0.395511
    20725.388600       0.392425
    20768.432000       0.389335
    20811.654500       0.386241
    20855.057400       0.383144
    20898.641600       0.380042
    20942.408400       0.376937
    20986.358900       0.373829
    21030.494200       0.370719
    21074.815600       0.367605
    21119.324200       0.364489
    21164.021200       0.361371
    21208.907700       0.358251
    21253.985100       0.355130
    21299.254500       0.352007
    21344.717200       0.348883
    21390.374300       0.345758
    21436.227200       0.342633
    21482.277100       0.339508
    21528.525300       0.336382
    21574.973000       0.333257
    21621.621600       0.330133
    21668.472400       0.327009
    21715.526600       0.323887
    21762.785600       0.320767
    21810.250800       0.317648
    21857.923500       0.314532
    21905.805000       0.311418
    21953.896800       0.308307
    22002.200200       0.305199
    22050.716600       0.302094
    22099.447500       0.298994
    22148.394200       0.295897
    22197.558300       0.292805
    22246.941000       0.289718
    22296.544000       0.286636
    22346.368700       0.283559
    22396.416600       0.280488
    22446.689100       0.277423
    22497.187900       0.274365
    22547.914300       0.271314
    22598.870100       0.268270
    22650.056600       0.265233
    22701.475600       0.262204
    22753.128600       0.259183
    22805.017100       0.256171
    22857.142900       0.253168
    22909.507400       0.250174
    22962.112500       0.247189
    23014.959700       0.244215
    23068.050700       0.241250
    23121.387300       0.238296
    23174.971000       0.235354
    23228.803700       0.232422
    23282.887100       0.229502
    23337.222900       0.226594
    23391.812900       0.223698
    23446.658900       0.220814
    23501.762600       0.217944
    23557.126000       0.215087
    23612.750900       0.212243
    23668.639100       0.209413
    23724.792400       0.206598
    23781.212800       0.203796
    23837.902300       0.201010
    23894.862600       0.198239
    23952.095800       0.195482
    24009.603800       0.192742
    24067.388700       0.190018
    24125.452400       0.187309
    24183.796900       0.184617
    24242.424200       0.181942
    24301.336600       0.179284
    24360.535900       0.176643
    24420.024400       0.174019
    24479.804200       0.171414
    24539.877300       0.168826
    24600.246000       0.166256
    24660.912500       0.163704
    24721.878900       0.161171
    24783.147500       0.158657
    24844.720500       0.156162
    24906.600200       0.153685
    24968.789000       0.151228
    25031.289100       0.148790
    25094.102900       0.146372
    25157.232700       0.143973
    25220.681000       0.141594
    25284.450100       0.139235
    25348.542500       0.136895
    25412.960600       0.134576
    25477.707000       0.132276
