2,   2, MVIRI VIS channel from srf_MET6_1997078_1997079_1801-Release_S10EL_10.dat
Number of data points:
750
Wavenumber (cm-1)   Filter response
     8760.403000       0.000000
     8768.084200       0.000000
     8775.778900       0.000000
     8783.487000       0.000002
     8791.208800       0.000005
     8798.944100       0.000011
     8806.693100       0.000021
     8814.455700       0.000035
     8822.232000       0.000053
     8830.022100       0.000078
     8837.825900       0.000110
     8845.643500       0.000149
     8853.475000       0.000197
     8861.320300       0.000254
     8869.179600       0.000322
     8877.052800       0.000400
     8884.940000       0.000490
     8892.841300       0.000593
     8900.756600       0.000709
     8908.686000       0.000840
     8916.629500       0.000987
     8924.587200       0.001149
     8932.559200       0.001329
     8940.545400       0.001527
     8948.545900       0.001743
     8956.560700       0.001979
     8964.589900       0.002235
     8972.633500       0.002513
     8980.691500       0.002813
     8988.764000       0.003136
     8996.851100       0.003483
     9004.952700       0.003855
     9013.068900       0.004252
     9021.199800       0.004675
     9029.345400       0.005126
     9037.505600       0.005604
     9045.680700       0.006111
     9053.870500       0.006648
     9062.075200       0.007215
     9070.294800       0.007813
     9078.529300       0.008443
     9086.778700       0.009105
     9095.043200       0.009801
     9103.322700       0.010530
     9111.617300       0.011294
     9119.927000       0.012094
     9128.251900       0.012930
     9136.592100       0.013802
     9144.947400       0.014712
     9153.318100       0.015659
     9161.704100       0.016646
     9170.105500       0.017672
     9178.522300       0.018737
     9186.954500       0.019843
     9195.402300       0.020991
     9203.865600       0.022179
     9212.344500       0.023410
     9220.839100       0.024684
     9229.349300       0.026000
     9237.875300       0.027361
     9246.417000       0.028765
     9254.974500       0.030214
     9263.547900       0.031708
     9272.137200       0.033247
     9280.742500       0.034833
     9289.363700       0.036464
     9298.000900       0.038143
     9306.654300       0.039868
     9315.323700       0.041640
     9324.009300       0.043460
     9332.711200       0.045329
     9341.429200       0.047245
     9350.163600       0.049210
     9358.914400       0.051223
     9367.681500       0.053286
     9376.465100       0.055397
     9385.265100       0.057558
     9394.081700       0.059769
     9402.914900       0.062029
     9411.764700       0.064339
     9420.631200       0.066700
     9429.514400       0.069110
     9438.414300       0.071570
     9447.331100       0.074081
     9456.264800       0.076642
     9465.215300       0.079253
     9474.182900       0.081915
     9483.167400       0.084627
     9492.169000       0.087389
     9501.187600       0.090202
     9510.223500       0.093064
     9519.276500       0.095977
     9528.346800       0.098940
     9537.434400       0.101953
     9546.539400       0.105016
     9555.661700       0.108128
     9564.801500       0.111290
     9573.958800       0.114501
     9583.133700       0.117762
     9592.326100       0.121071
     9601.536200       0.124429
     9610.764100       0.127836
     9620.009600       0.131291
     9629.273000       0.134793
     9638.554200       0.138344
     9647.853400       0.141942
     9657.170400       0.145586
     9666.505600       0.149278
     9675.858700       0.153016
     9685.230000       0.156800
     9694.619500       0.160629
     9704.027200       0.164504
     9713.453100       0.168424
     9722.897400       0.172388
     9732.360100       0.176396
     9741.841200       0.180448
     9751.340800       0.184542
     9760.859000       0.188680
     9770.395700       0.192859
     9779.951100       0.197080
     9789.525200       0.201342
     9799.118100       0.205645
     9808.729800       0.209988
     9818.360300       0.214371
     9828.009800       0.218792
     9837.678300       0.223252
     9847.365800       0.227749
     9857.072400       0.232284
     9866.798200       0.236856
     9876.543200       0.241463
     9886.307500       0.246107
     9896.091000       0.250785
     9905.894000       0.255496
     9915.716400       0.260242
     9925.558300       0.265020
     9935.419800       0.269831
     9945.300800       0.274674
     9955.201600       0.279547
     9965.122100       0.284451
     9975.062300       0.289383
     9985.022500       0.294345
     9995.002500       0.299335
    10005.002500       0.304353
    10015.022500       0.309397
    10025.062700       0.314466
    10035.122900       0.319562
    10045.203400       0.324681
    10055.304200       0.329825
    10065.425300       0.334992
    10075.566800       0.340180
    10085.728700       0.345391
    10095.911200       0.350622
    10106.114200       0.355873
    10116.337900       0.361143
    10126.582300       0.366432
    10136.847400       0.371739
    10147.133400       0.377062
    10157.440300       0.382402
    10167.768200       0.387757
    10178.117000       0.393126
    10188.487000       0.398510
    10198.878100       0.403906
    10209.290500       0.409315
    10219.724100       0.414735
    10230.179000       0.420166
    10240.655400       0.425607
    10251.153300       0.431056
    10261.672700       0.436514
    10272.213700       0.441980
    10282.776300       0.447452
    10293.360800       0.452930
    10303.967000       0.458413
    10314.595200       0.463901
    10325.245200       0.469392
    10335.917300       0.474886
    10346.611500       0.480382
    10357.327800       0.485879
    10368.066400       0.491376
    10378.827200       0.496873
    10389.610400       0.502369
    10400.416000       0.507863
    10411.244100       0.513354
    10422.094800       0.518841
    10432.968200       0.524325
    10443.864200       0.529803
    10454.783100       0.535276
    10465.724800       0.540742
    10476.689400       0.546200
    10487.677000       0.551651
    10498.687700       0.557093
    10509.721500       0.562525
    10520.778500       0.567947
    10531.858900       0.573358
    10542.962600       0.578757
    10554.089700       0.584143
    10565.240400       0.589517
    10576.414600       0.594876
    10587.612500       0.600221
    10598.834100       0.605551
    10610.079600       0.610864
    10621.348900       0.616161
    10632.642200       0.621440
    10643.959600       0.626701
    10655.301000       0.631944
    10666.666700       0.637167
    10678.056600       0.642369
    10689.470900       0.647551
    10700.909600       0.652712
    10712.372800       0.657850
    10723.860600       0.662966
    10735.373100       0.668058
    10746.910300       0.673127
    10758.472300       0.678171
    10770.059200       0.683189
    10781.671200       0.688182
    10793.308100       0.693148
    10804.970300       0.698088
    10816.657700       0.703000
    10828.370300       0.707884
    10840.108400       0.712738
    10851.871900       0.717564
    10863.661100       0.722360
    10875.475800       0.727126
    10887.316300       0.731860
    10899.182600       0.736563
    10911.074700       0.741235
    10922.992900       0.745874
    10934.937100       0.750480
    10946.907500       0.755052
    10958.904100       0.759591
    10970.927000       0.764095
    10982.976400       0.768564
    10995.052200       0.772998
    11007.154700       0.777396
    11019.283700       0.781758
    11031.439600       0.786084
    11043.622300       0.790372
    11055.832000       0.794623
    11068.068600       0.798836
    11080.332400       0.803011
    11092.623400       0.807147
    11104.941700       0.811244
    11117.287400       0.815302
    11129.660500       0.819320
    11142.061300       0.823298
    11154.489700       0.827235
    11166.945800       0.831132
    11179.429800       0.834987
    11191.941800       0.838802
    11204.481800       0.842574
    11217.049900       0.846304
    11229.646300       0.849993
    11242.270900       0.853638
    11254.924000       0.857241
    11267.605600       0.860801
    11280.315800       0.864317
    11293.054800       0.867790
    11305.822500       0.871219
    11318.619100       0.874604
    11331.444800       0.877945
    11344.299500       0.881241
    11357.183400       0.884493
    11370.096600       0.887700
    11383.039300       0.890862
    11396.011400       0.893979
    11409.013100       0.897051
    11422.044500       0.900077
    11435.105800       0.903058
    11448.196900       0.905993
    11461.318100       0.908882
    11474.469300       0.911725
    11487.650800       0.914523
    11500.862600       0.917274
    11514.104800       0.919979
    11527.377500       0.922638
    11540.680900       0.925250
    11554.015000       0.927817
    11567.380000       0.930337
    11580.775900       0.932810
    11594.202900       0.935237
    11607.661100       0.937617
    11621.150500       0.939951
    11634.671300       0.942239
    11648.223600       0.944480
    11661.807600       0.946674
    11675.423200       0.948822
    11689.070700       0.950924
    11702.750100       0.952980
    11716.461600       0.954989
    11730.205300       0.956952
    11743.981200       0.958868
    11757.789500       0.960739
    11771.630400       0.962564
    11785.503800       0.964342
    11799.410000       0.966075
    11813.349100       0.967763
    11827.321100       0.969404
    11841.326200       0.971001
    11855.364600       0.972552
    11869.436200       0.974058
    11883.541300       0.975518
    11897.680000       0.976934
    11911.852300       0.978306
    11926.058400       0.979632
    11940.298500       0.980915
    11954.572600       0.982153
    11968.880900       0.983348
    11983.223500       0.984498
    11997.600500       0.985605
    12012.012000       0.986669
    12026.458200       0.987690
    12040.939200       0.988668
    12055.455100       0.989603
    12070.006000       0.990496
    12084.592100       0.991347
    12099.213600       0.992156
    12113.870400       0.992923
    12128.562800       0.993649
    12143.290800       0.994334
    12158.054700       0.994978
    12172.854500       0.995582
    12187.690400       0.996145
    12202.562500       0.996669
    12217.471000       0.997153
    12232.415900       0.997598
    12247.397400       0.998004
    12262.415700       0.998372
    12277.470800       0.998701
    12292.563000       0.998992
    12307.692300       0.999246
    12322.858900       0.999462
    12338.062900       0.999642
    12353.304500       0.999785
    12368.583800       0.999892
    12383.900900       0.999963
    12399.256000       0.999999
    12414.649300       1.000000
    12430.080800       0.999966
    12445.550700       0.999898
    12461.059200       0.999796
    12476.606400       0.999661
    12492.192400       0.999493
    12507.817400       0.999291
    12523.481500       0.999058
    12539.185000       0.998793
    12554.927800       0.998497
    12570.710200       0.998169
    12586.532400       0.997811
    12602.394500       0.997423
    12618.296500       0.997006
    12634.238800       0.996559
    12650.221400       0.996083
    12666.244500       0.995579
    12682.308200       0.995047
    12698.412700       0.994487
    12714.558200       0.993900
    12730.744700       0.993287
    12746.972600       0.992648
    12763.241900       0.991983
    12779.552700       0.991293
    12795.905300       0.990579
    12812.299800       0.989840
    12828.736400       0.989077
    12845.215200       0.988291
    12861.736300       0.987482
    12878.300100       0.986651
    12894.906500       0.985798
    12911.555800       0.984924
    12928.248200       0.984028
    12944.983800       0.983112
    12961.762800       0.982177
    12978.585300       0.981222
    12995.451600       0.980247
    13012.361700       0.979255
    13029.316000       0.978244
    13046.314400       0.977216
    13063.357300       0.976171
    13080.444700       0.975109
    13097.576900       0.974031
    13114.754100       0.972938
    13131.976400       0.971830
    13149.243900       0.970707
    13166.556900       0.969570
    13183.915600       0.968419
    13201.320100       0.967255
    13218.770700       0.966079
    13236.267400       0.964891
    13253.810500       0.963691
    13271.400100       0.962479
    13289.036500       0.961257
    13306.719900       0.960025
    13324.450400       0.958784
    13342.228200       0.957532
    13360.053400       0.956273
    13377.926400       0.955005
    13395.847300       0.953729
    13413.816200       0.952446
    13431.833400       0.951156
    13449.899100       0.949860
    13468.013500       0.948558
    13486.176700       0.947251
    13504.388900       0.945938
    13522.650400       0.944621
    13540.961400       0.943301
    13559.322000       0.941976
    13577.732500       0.940649
    13596.193100       0.939319
    13614.703900       0.937987
    13633.265200       0.936653
    13651.877100       0.935318
    13670.540000       0.933982
    13689.253900       0.932645
    13708.019200       0.931309
    13726.836000       0.929973
    13745.704500       0.928639
    13764.624900       0.927305
    13783.597500       0.925973
    13802.622500       0.924644
    13821.700100       0.923317
    13840.830400       0.921993
    13860.013900       0.920673
    13879.250500       0.919356
    13898.540700       0.918044
    13917.884500       0.916737
    13937.282200       0.915434
    13956.734100       0.914137
    13976.240400       0.912846
    13995.801300       0.911560
    14015.417000       0.910282
    14035.087700       0.909010
    14054.813800       0.907746
    14074.595400       0.906489
    14094.432700       0.905240
    14114.326000       0.904000
    14134.275600       0.902768
    14154.281700       0.901546
    14174.344400       0.900332
    14194.464200       0.899129
    14214.641100       0.897935
    14234.875400       0.896752
    14255.167500       0.895579
    14275.517500       0.894417
    14295.925700       0.893267
    14316.392300       0.892128
    14336.917600       0.891001
    14357.501800       0.889886
    14378.145200       0.888783
    14398.848100       0.887692
    14419.610700       0.886615
    14440.433200       0.885551
    14461.316000       0.884500
    14482.259200       0.883462
    14503.263200       0.882439
    14524.328200       0.881429
    14545.454500       0.880434
    14566.642400       0.879453
    14587.892000       0.878487
    14609.203800       0.877536
    14630.577900       0.876599
    14652.014700       0.875678
    14673.514300       0.874773
    14695.077100       0.873883
    14716.703500       0.873008
    14738.393500       0.872149
    14760.147600       0.871307
    14781.966000       0.870480
    14803.849000       0.869670
    14825.796900       0.868876
    14847.809900       0.868099
    14869.888500       0.867338
    14892.032800       0.866594
    14914.243100       0.865866
    14936.519800       0.865155
    14958.863100       0.864462
    14981.273400       0.863785
    15003.750900       0.863125
    15026.296000       0.862482
    15048.909000       0.861856
    15071.590100       0.861248
    15094.339600       0.860656
    15117.158000       0.860081
    15140.045400       0.859524
    15163.002300       0.858984
    15186.028900       0.858460
    15209.125500       0.857954
    15232.292500       0.857465
    15255.530100       0.856993
    15278.838800       0.856537
    15302.218800       0.856099
    15325.670500       0.855677
    15349.194200       0.855272
    15372.790200       0.854883
    15396.458800       0.854511
    15420.200500       0.854156
    15444.015400       0.853816
    15467.904100       0.853493
    15491.866800       0.853186
    15515.903800       0.852894
    15540.015500       0.852618
    15564.202300       0.852358
    15588.464500       0.852113
    15612.802500       0.851883
    15637.216600       0.851669
    15661.707100       0.851468
    15686.274500       0.851283
    15710.919100       0.851112
    15735.641200       0.850954
    15760.441300       0.850811
    15785.319700       0.850681
    15810.276700       0.850565
    15835.312700       0.850462
    15860.428200       0.850371
    15885.623500       0.850293
    15910.899000       0.850227
    15936.255000       0.850173
    15961.691900       0.850131
    15987.210200       0.850100
    16012.810200       0.850080
    16038.492400       0.850070
    16064.257000       0.850071
    16090.104600       0.850081
    16116.035500       0.850101
    16142.050000       0.850130
    16168.148700       0.850168
    16194.332000       0.850214
    16220.600200       0.850268
    16246.953700       0.850329
    16273.393000       0.850398
    16299.918500       0.850473
    16326.530600       0.850554
    16353.229800       0.850642
    16380.016400       0.850734
    16406.890900       0.850831
    16433.853700       0.850933
    16460.905300       0.851038
    16488.046200       0.851147
    16515.276600       0.851258
    16542.597200       0.851372
    16570.008300       0.851488
    16597.510400       0.851605
    16625.103900       0.851722
    16652.789300       0.851840
    16680.567100       0.851958
    16708.437800       0.852074
    16736.401700       0.852189
    16764.459300       0.852302
    16792.611300       0.852413
    16820.857900       0.852520
    16849.199700       0.852623
    16877.637100       0.852722
    16906.170800       0.852816
    16934.801000       0.852904
    16963.528400       0.852986
    16992.353400       0.853060
    17021.276600       0.853128
    17050.298400       0.853186
    17079.419300       0.853237
    17108.639900       0.853277
    17137.960600       0.853307
    17167.382000       0.853326
    17196.904600       0.853334
    17226.528900       0.853330
    17256.255400       0.853312
    17286.084700       0.853281
    17316.017300       0.853235
    17346.053800       0.853174
    17376.194600       0.853098
    17406.440400       0.853005
    17436.791600       0.852894
    17467.248900       0.852766
    17497.812800       0.852619
    17528.483800       0.852453
    17559.262500       0.852266
    17590.149500       0.852058
    17621.145400       0.851829
    17652.250700       0.851577
    17683.466000       0.851302
    17714.791900       0.851003
    17746.228900       0.850679
    17777.777800       0.850330
    17809.439000       0.849954
    17841.213200       0.849551
    17873.101000       0.849121
    17905.103000       0.848662
    17937.219700       0.848173
    17969.451900       0.847654
    18001.800200       0.847105
    18034.265100       0.846523
    18066.847300       0.845909
    18099.547500       0.845262
    18132.366300       0.844580
    18165.304300       0.843864
    18198.362100       0.843112
    18231.540600       0.842323
    18264.840200       0.841497
    18298.261700       0.840633
    18331.805700       0.839730
    18365.472900       0.838788
    18399.264000       0.837805
    18433.179700       0.836781
    18467.220700       0.835715
    18501.387600       0.834606
    18535.681200       0.833454
    18570.102100       0.832257
    18604.651200       0.831015
    18639.329000       0.829727
    18674.136300       0.828393
    18709.073900       0.827012
    18744.142500       0.825582
    18779.342700       0.824103
    18814.675400       0.822575
    18850.141400       0.820996
    18885.741300       0.819367
    18921.475900       0.817685
    18957.346000       0.815951
    18993.352300       0.814164
    19029.495700       0.812323
    19065.776900       0.810427
    19102.196800       0.808476
    19138.756000       0.806468
    19175.455400       0.804405
    19212.295900       0.802283
    19249.278200       0.800104
    19286.403100       0.797866
    19323.671500       0.795568
    19361.084200       0.793211
    19398.642100       0.790793
    19436.346000       0.788314
    19474.196700       0.785774
    19512.195100       0.783170
    19550.342100       0.780505
    19588.638600       0.777775
    19627.085400       0.774982
    19665.683400       0.772124
    19704.433500       0.769201
    19743.336600       0.766212
    19782.393700       0.763158
    19821.605600       0.760036
    19860.973200       0.756849
    19900.497500       0.753593
    19940.179500       0.750270
    19980.020000       0.746879
    20020.020000       0.743419
    20060.180500       0.739890
    20100.502500       0.736292
    20140.986900       0.732624
    20181.634700       0.728886
    20222.446900       0.725078
    20263.424500       0.721200
    20304.568500       0.717251
    20345.880000       0.713231
    20387.359800       0.709140
    20429.009200       0.704977
    20470.829100       0.700744
    20512.820500       0.696438
    20554.984600       0.692061
    20597.322300       0.687612
    20639.834900       0.683091
    20682.523300       0.678499
    20725.388600       0.673834
    20768.432000       0.669098
    20811.654500       0.664290
    20855.057400       0.659411
    20898.641600       0.654459
    20942.408400       0.649437
    20986.358900       0.644343
    21030.494200       0.639178
    21074.815600       0.633943
    21119.324200       0.628637
    21164.021200       0.623261
    21208.907700       0.617815
    21253.985100       0.612300
    21299.254500       0.606715
    21344.717200       0.601062
    21390.374300       0.595341
    21436.227200       0.589553
    21482.277100       0.583697
    21528.525300       0.577775
    21574.973000       0.571787
    21621.621600       0.565734
    21668.472400       0.559616
    21715.526600       0.553435
    21762.785600       0.547192
    21810.250800       0.540886
    21857.923500       0.534519
    21905.805000       0.528092
    21953.896800       0.521606
    22002.200200       0.515062
    22050.716600       0.508461
    22099.447500       0.501804
    22148.394200       0.495092
    22197.558300       0.488327
    22246.941000       0.481509
    22296.544000       0.474640
    22346.368700       0.467722
    22396.416600       0.460756
    22446.689100       0.453743
    22497.187900       0.446685
    22547.914300       0.439584
    22598.870100       0.432440
    22650.056600       0.425257
    22701.475600       0.418035
    22753.128600       0.410777
    22805.017100       0.403483
    22857.142900       0.396157
    22909.507400       0.388801
    22962.112500       0.381416
    23014.959700       0.374004
    23068.050700       0.366567
    23121.387300       0.359109
    23174.971000       0.351631
    23228.803700       0.344136
    23282.887100       0.336625
    23337.222900       0.329103
    23391.812900       0.321570
    23446.658900       0.314030
    23501.762600       0.306486
    23557.126000       0.298941
    23612.750900       0.291397
    23668.639100       0.283857
    23724.792400       0.276324
    23781.212800       0.268802
    23837.902300       0.261293
    23894.862600       0.253802
    23952.095800       0.246330
    24009.603800       0.238883
    24067.388700       0.231463
    24125.452400       0.224073
    24183.796900       0.216719
    24242.424200       0.209402
    24301.336600       0.202128
    24360.535900       0.194899
    24420.024400       0.187721
    24479.804200       0.180597
    24539.877300       0.173532
    24600.246000       0.166530
    24660.912500       0.159594
    24721.878900       0.152731
    24783.147500       0.145944
    24844.720500       0.139238
    24906.600200       0.132618
    24968.789000       0.126088
    25031.289100       0.119655
    25094.102900       0.113322
    25157.232700       0.107095
    25220.681000       0.100980
    25284.450100       0.094981
    25348.542500       0.089104
    25412.960600       0.083356
    25477.707000       0.077741
