   4  ,noaa_14_hirs_04.flt
Number of data points:
101
Wavenumber (cm-1)   Filter response
      669.810000       0.000000
      670.400000       0.000000
      671.010000       0.000000
      671.610000       0.000000
      672.220000       0.000000
      672.820000       0.000000
      673.410000       0.000000
      674.020000       0.000000
      674.620000       0.000000
      675.230000       0.000000
      675.820000       0.000000
      676.430000       0.000000
      677.030000       0.000000
      677.630000       0.000000
      678.230000       0.000000
      678.830000       0.000000
      679.440000       0.000000
      680.040000       0.000000
      680.640000       0.001455
      681.240000       0.002755
      681.840000       0.002799
      682.450000       0.002846
      683.050000       0.002891
      683.640000       0.004404
      684.250000       0.005852
      684.850000       0.007229
      685.460000       0.007338
      686.050000       0.010105
      686.650000       0.013284
      687.260000       0.016193
      687.860000       0.020345
      688.470000       0.025111
      689.060000       0.032343
      689.630000       0.042506
      690.240000       0.054464
      690.850000       0.074883
      691.480000       0.098010
      691.980000       0.133550
      692.620000       0.176900
      693.150000       0.230780
      693.810000       0.316180
      694.350000       0.392200
      694.900000       0.482620
      695.440000       0.574580
      695.990000       0.664230
      696.590000       0.746610
      697.160000       0.803370
      697.750000       0.846770
      698.350000       0.872580
      698.950000       0.888400
      699.540000       0.894820
      700.140000       0.902960
      700.730000       0.905970
      701.330000       0.918320
      701.930000       0.931620
      702.530000       0.942330
      703.120000       0.954180
      703.710000       0.964230
      704.320000       0.977880
      704.910000       0.988110
      705.510000       0.995460
      706.100000       1.000000
      706.700000       0.991270
      707.300000       0.979820
      707.960000       0.954350
      708.560000       0.916680
      709.160000       0.866250
      709.770000       0.798580
      710.420000       0.710150
      711.020000       0.634290
      711.650000       0.538080
      712.260000       0.453780
      712.870000       0.367340
      713.450000       0.292810
      714.070000       0.234960
      714.690000       0.183980
      715.280000       0.141660
      715.890000       0.113950
      716.480000       0.087938
      717.080000       0.069044
      717.680000       0.056524
      718.280000       0.044610
      718.880000       0.035495
      719.470000       0.030471
      720.070000       0.024660
      720.670000       0.018647
      721.260000       0.015969
      721.860000       0.013693
      722.450000       0.011759
      723.050000       0.011841
      723.650000       0.010078
      724.240000       0.008299
      724.840000       0.006303
      725.430000       0.000000
      726.030000       0.000000
      726.620000       0.000000
      727.210000       0.000000
      727.820000       0.000000
      728.410000       0.000000
      729.010000       0.000000
      729.600000       0.000000
