131,   131, MVIRI VIS channel from srf_MET7_2013348_2013349_1801-Release_S10EE_10.dat
Number of data points:
793
Wavenumber (cm-1)   Filter response
     8442.380800       0.000000
     8449.514200       0.000000
     8456.659600       0.000004
     8463.817200       0.000057
     8470.986900       0.000168
     8478.168700       0.000336
     8485.362700       0.000559
     8492.569000       0.000836
     8499.787500       0.001165
     8507.018300       0.001544
     8514.261400       0.001973
     8521.516800       0.002449
     8528.784600       0.002971
     8536.064900       0.003539
     8543.357500       0.004150
     8550.662700       0.004803
     8557.980300       0.005498
     8565.310500       0.006233
     8572.653200       0.007008
     8580.008600       0.007820
     8587.376600       0.008670
     8594.757200       0.009555
     8602.150500       0.010476
     8609.556600       0.011431
     8616.975400       0.012420
     8624.407100       0.013441
     8631.851500       0.014494
     8639.308900       0.015579
     8646.779100       0.016694
     8654.262200       0.017839
     8661.758300       0.019012
     8669.267400       0.020215
     8676.789600       0.021445
     8684.324800       0.022703
     8691.873100       0.023988
     8699.434500       0.025299
     8707.009100       0.026637
     8714.596900       0.027999
     8722.198000       0.029387
     8729.812300       0.030800
     8737.439900       0.032237
     8745.080900       0.033697
     8752.735200       0.035182
     8760.403000       0.036690
     8768.084200       0.038221
     8775.778900       0.039775
     8783.487000       0.041351
     8791.208800       0.042950
     8798.944100       0.044571
     8806.693100       0.046214
     8814.455700       0.047878
     8822.232000       0.049565
     8830.022100       0.051272
     8837.825900       0.053002
     8845.643500       0.054752
     8853.475000       0.056523
     8861.320300       0.058316
     8869.179600       0.060130
     8877.052800       0.061964
     8884.940000       0.063820
     8892.841300       0.065696
     8900.756600       0.067593
     8908.686000       0.069511
     8916.629500       0.071450
     8924.587200       0.073409
     8932.559200       0.075389
     8940.545400       0.077391
     8948.545900       0.079413
     8956.560700       0.081455
     8964.589900       0.083519
     8972.633500       0.085604
     8980.691500       0.087709
     8988.764000       0.089836
     8996.851100       0.091984
     9004.952700       0.094153
     9013.068900       0.096343
     9021.199800       0.098555
     9029.345400       0.100788
     9037.505600       0.103042
     9045.680700       0.105318
     9053.870500       0.107615
     9062.075200       0.109934
     9070.294800       0.112275
     9078.529300       0.114638
     9086.778700       0.117023
     9095.043200       0.119430
     9103.322700       0.121859
     9111.617300       0.124310
     9119.927000       0.126783
     9128.251900       0.129279
     9136.592100       0.131798
     9144.947400       0.134338
     9153.318100       0.136902
     9161.704100       0.139488
     9170.105500       0.142097
     9178.522300       0.144729
     9186.954500       0.147384
     9195.402300       0.150062
     9203.865600       0.152763
     9212.344500       0.155488
     9220.839100       0.158235
     9229.349300       0.161006
     9237.875300       0.163801
     9246.417000       0.166618
     9254.974500       0.169459
     9263.547900       0.172324
     9272.137200       0.175212
     9280.742500       0.178125
     9289.363700       0.181060
     9298.000900       0.184019
     9306.654300       0.187002
     9315.323700       0.190009
     9324.009300       0.193040
     9332.711200       0.196094
     9341.429200       0.199172
     9350.163600       0.202274
     9358.914400       0.205399
     9367.681500       0.208549
     9376.465100       0.211722
     9385.265100       0.214918
     9394.081700       0.218139
     9402.914900       0.221383
     9411.764700       0.224651
     9420.631200       0.227942
     9429.514400       0.231257
     9438.414300       0.234595
     9447.331100       0.237957
     9456.264800       0.241342
     9465.215300       0.244751
     9474.182900       0.248182
     9483.167400       0.251637
     9492.169000       0.255114
     9501.187600       0.258615
     9510.223500       0.262138
     9519.276500       0.265684
     9528.346800       0.269253
     9537.434400       0.272844
     9546.539400       0.276457
     9555.661700       0.280093
     9564.801500       0.283750
     9573.958800       0.287430
     9583.133700       0.291131
     9592.326100       0.294854
     9601.536200       0.298598
     9610.764100       0.302363
     9620.009600       0.306149
     9629.273000       0.309957
     9638.554200       0.313784
     9647.853400       0.317632
     9657.170400       0.321500
     9666.505600       0.325389
     9675.858700       0.329297
     9685.230000       0.333224
     9694.619500       0.337171
     9704.027200       0.341137
     9713.453100       0.345122
     9722.897400       0.349126
     9732.360100       0.353147
     9741.841200       0.357187
     9751.340800       0.361244
     9760.859000       0.365319
     9770.395700       0.369411
     9779.951100       0.373520
     9789.525200       0.377646
     9799.118100       0.381788
     9808.729800       0.385945
     9818.360300       0.390119
     9828.009800       0.394307
     9837.678300       0.398512
     9847.365800       0.402730
     9857.072400       0.406963
     9866.798200       0.411210
     9876.543200       0.415471
     9886.307500       0.419745
     9896.091000       0.424032
     9905.894000       0.428331
     9915.716400       0.432644
     9925.558300       0.436967
     9935.419800       0.441303
     9945.300800       0.445649
     9955.201600       0.450006
     9965.122100       0.454374
     9975.062300       0.458751
     9985.022500       0.463138
     9995.002500       0.467535
    10005.002500       0.471940
    10015.022500       0.476353
    10025.062700       0.480774
    10035.122900       0.485203
    10045.203400       0.489639
    10055.304200       0.494082
    10065.425300       0.498531
    10075.566800       0.502985
    10085.728700       0.507446
    10095.911200       0.511911
    10106.114200       0.516381
    10116.337900       0.520854
    10126.582300       0.525332
    10136.847400       0.529812
    10147.133400       0.534296
    10157.440300       0.538781
    10167.768200       0.543269
    10178.117000       0.547758
    10188.487000       0.552247
    10198.878100       0.556738
    10209.290500       0.561228
    10219.724100       0.565718
    10230.179000       0.570207
    10240.655400       0.574694
    10251.153300       0.579180
    10261.672700       0.583663
    10272.213700       0.588144
    10282.776300       0.592621
    10293.360800       0.597094
    10303.967000       0.601564
    10314.595200       0.606028
    10325.245200       0.610488
    10335.917300       0.614941
    10346.611500       0.619389
    10357.327800       0.623830
    10368.066400       0.628264
    10378.827200       0.632690
    10389.610400       0.637109
    10400.416000       0.641519
    10411.244100       0.645919
    10422.094800       0.650311
    10432.968200       0.654692
    10443.864200       0.659063
    10454.783100       0.663423
    10465.724800       0.667772
    10476.689400       0.672109
    10487.677000       0.676434
    10498.687700       0.680746
    10509.721500       0.685044
    10520.778500       0.689329
    10531.858900       0.693600
    10542.962600       0.697856
    10554.089700       0.702097
    10565.240400       0.706322
    10576.414600       0.710532
    10587.612500       0.714724
    10598.834100       0.718901
    10610.079600       0.723059
    10621.348900       0.727200
    10632.642200       0.731322
    10643.959600       0.735426
    10655.301000       0.739510
    10666.666700       0.743575
    10678.056600       0.747619
    10689.470900       0.751643
    10700.909600       0.755647
    10712.372800       0.759629
    10723.860600       0.763589
    10735.373100       0.767527
    10746.910300       0.771442
    10758.472300       0.775334
    10770.059200       0.779203
    10781.671200       0.783047
    10793.308100       0.786868
    10804.970300       0.790664
    10816.657700       0.794434
    10828.370300       0.798180
    10840.108400       0.801899
    10851.871900       0.805592
    10863.661100       0.809258
    10875.475800       0.812898
    10887.316300       0.816510
    10899.182600       0.820094
    10911.074700       0.823650
    10922.992900       0.827178
    10934.937100       0.830677
    10946.907500       0.834146
    10958.904100       0.837586
    10970.927000       0.840997
    10982.976400       0.844377
    10995.052200       0.847726
    11007.154700       0.851044
    11019.283700       0.854332
    11031.439600       0.857588
    11043.622300       0.860812
    11055.832000       0.864004
    11068.068600       0.867163
    11080.332400       0.870290
    11092.623400       0.873384
    11104.941700       0.876444
    11117.287400       0.879471
    11129.660500       0.882464
    11142.061300       0.885423
    11154.489700       0.888348
    11166.945800       0.891238
    11179.429800       0.894093
    11191.941800       0.896914
    11204.481800       0.899698
    11217.049900       0.902447
    11229.646300       0.905161
    11242.270900       0.907838
    11254.924000       0.910480
    11267.605600       0.913084
    11280.315800       0.915653
    11293.054800       0.918184
    11305.822500       0.920678
    11318.619100       0.923136
    11331.444800       0.925556
    11344.299500       0.927938
    11357.183400       0.930283
    11370.096600       0.932590
    11383.039300       0.934858
    11396.011400       0.937089
    11409.013100       0.939282
    11422.044500       0.941436
    11435.105800       0.943552
    11448.196900       0.945629
    11461.318100       0.947667
    11474.469300       0.949667
    11487.650800       0.951627
    11500.862600       0.953549
    11514.104800       0.955432
    11527.377500       0.957275
    11540.680900       0.959079
    11554.015000       0.960845
    11567.380000       0.962570
    11580.775900       0.964257
    11594.202900       0.965903
    11607.661100       0.967511
    11621.150500       0.969079
    11634.671300       0.970608
    11648.223600       0.972097
    11661.807600       0.973546
    11675.423200       0.974956
    11689.070700       0.976327
    11702.750100       0.977658
    11716.461600       0.978950
    11730.205300       0.980202
    11743.981200       0.981415
    11757.789500       0.982588
    11771.630400       0.983722
    11785.503800       0.984817
    11799.410000       0.985873
    11813.349100       0.986890
    11827.321100       0.987868
    11841.326200       0.988807
    11855.364600       0.989707
    11869.436200       0.990568
    11883.541300       0.991390
    11897.680000       0.992174
    11911.852300       0.992920
    11926.058400       0.993627
    11940.298500       0.994296
    11954.572600       0.994928
    11968.880900       0.995521
    11983.223500       0.996076
    11997.600500       0.996594
    12012.012000       0.997075
    12026.458200       0.997518
    12040.939200       0.997924
    12055.455100       0.998293
    12070.006000       0.998626
    12084.592100       0.998922
    12099.213600       0.999181
    12113.870400       0.999405
    12128.562800       0.999593
    12143.290800       0.999745
    12158.054700       0.999861
    12172.854500       0.999942
    12187.690400       0.999989
    12202.562500       1.000000
    12217.471000       0.999977
    12232.415900       0.999920
    12247.397400       0.999828
    12262.415700       0.999703
    12277.470800       0.999545
    12292.563000       0.999353
    12307.692300       0.999128
    12322.858900       0.998871
    12338.062900       0.998581
    12353.304500       0.998260
    12368.583800       0.997906
    12383.900900       0.997521
    12399.256000       0.997105
    12414.649300       0.996658
    12430.080800       0.996181
    12445.550700       0.995673
    12461.059200       0.995136
    12476.606400       0.994569
    12492.192400       0.993973
    12507.817400       0.993348
    12523.481500       0.992694
    12539.185000       0.992012
    12554.927800       0.991303
    12570.710200       0.990566
    12586.532400       0.989802
    12602.394500       0.989011
    12618.296500       0.988194
    12634.238800       0.987351
    12650.221400       0.986483
    12666.244500       0.985589
    12682.308200       0.984671
    12698.412700       0.983728
    12714.558200       0.982761
    12730.744700       0.981770
    12746.972600       0.980756
    12763.241900       0.979720
    12779.552700       0.978661
    12795.905300       0.977580
    12812.299800       0.976477
    12828.736400       0.975353
    12845.215200       0.974209
    12861.736300       0.973044
    12878.300100       0.971859
    12894.906500       0.970655
    12911.555800       0.969431
    12928.248200       0.968189
    12944.983800       0.966929
    12961.762800       0.965651
    12978.585300       0.964355
    12995.451600       0.963043
    13012.361700       0.961714
    13029.316000       0.960370
    13046.314400       0.959009
    13063.357300       0.957634
    13080.444700       0.956244
    13097.576900       0.954839
    13114.754100       0.953421
    13131.976400       0.951989
    13149.243900       0.950545
    13166.556900       0.949088
    13183.915600       0.947619
    13201.320100       0.946138
    13218.770700       0.944647
    13236.267400       0.943145
    13253.810500       0.941632
    13271.400100       0.940110
    13289.036500       0.938579
    13306.719900       0.937038
    13324.450400       0.935490
    13342.228200       0.933933
    13360.053400       0.932369
    13377.926400       0.930798
    13395.847300       0.929220
    13413.816200       0.927636
    13431.833400       0.926047
    13449.899100       0.924452
    13468.013500       0.922852
    13486.176700       0.921248
    13504.388900       0.919641
    13522.650400       0.918029
    13540.961400       0.916415
    13559.322000       0.914798
    13577.732500       0.913180
    13596.193100       0.911559
    13614.703900       0.909937
    13633.265200       0.908314
    13651.877100       0.906691
    13670.540000       0.905068
    13689.253900       0.903446
    13708.019200       0.901824
    13726.836000       0.900204
    13745.704500       0.898585
    13764.624900       0.896969
    13783.597500       0.895355
    13802.622500       0.893744
    13821.700100       0.892137
    13840.830400       0.890533
    13860.013900       0.888934
    13879.250500       0.887339
    13898.540700       0.885749
    13917.884500       0.884165
    13937.282200       0.882586
    13956.734100       0.881013
    13976.240400       0.879447
    13995.801300       0.877888
    14015.417000       0.876336
    14035.087700       0.874792
    14054.813800       0.873256
    14074.595400       0.871728
    14094.432700       0.870209
    14114.326000       0.868699
    14134.275600       0.867199
    14154.281700       0.865708
    14174.344400       0.864227
    14194.464200       0.862757
    14214.641100       0.861297
    14234.875400       0.859849
    14255.167500       0.858412
    14275.517500       0.856987
    14295.925700       0.855573
    14316.392300       0.854172
    14336.917600       0.852784
    14357.501800       0.851409
    14378.145200       0.850046
    14398.848100       0.848697
    14419.610700       0.847362
    14440.433200       0.846041
    14461.316000       0.844734
    14482.259200       0.843442
    14503.263200       0.842164
    14524.328200       0.840901
    14545.454500       0.839654
    14566.642400       0.838422
    14587.892000       0.837206
    14609.203800       0.836005
    14630.577900       0.834821
    14652.014700       0.833652
    14673.514300       0.832501
    14695.077100       0.831366
    14716.703500       0.830247
    14738.393500       0.829146
    14760.147600       0.828062
    14781.966000       0.826995
    14803.849000       0.825946
    14825.796900       0.824914
    14847.809900       0.823900
    14869.888500       0.822904
    14892.032800       0.821926
    14914.243100       0.820966
    14936.519800       0.820024
    14958.863100       0.819101
    14981.273400       0.818196
    15003.750900       0.817309
    15026.296000       0.816441
    15048.909000       0.815591
    15071.590100       0.814760
    15094.339600       0.813948
    15117.158000       0.813154
    15140.045400       0.812379
    15163.002300       0.811623
    15186.028900       0.810886
    15209.125500       0.810167
    15232.292500       0.809467
    15255.530100       0.808786
    15278.838800       0.808124
    15302.218800       0.807480
    15325.670500       0.806855
    15349.194200       0.806249
    15372.790200       0.805661
    15396.458800       0.805092
    15420.200500       0.804541
    15444.015400       0.804009
    15467.904100       0.803494
    15491.866800       0.802998
    15515.903800       0.802520
    15540.015500       0.802060
    15564.202300       0.801618
    15588.464500       0.801193
    15612.802500       0.800785
    15637.216600       0.800396
    15661.707100       0.800023
    15686.274500       0.799667
    15710.919100       0.799328
    15735.641200       0.799006
    15760.441300       0.798700
    15785.319700       0.798410
    15810.276700       0.798137
    15835.312700       0.797879
    15860.428200       0.797636
    15885.623500       0.797409
    15910.899000       0.797197
    15936.255000       0.797000
    15961.691900       0.796817
    15987.210200       0.796649
    16012.810200       0.796494
    16038.492400       0.796353
    16064.257000       0.796226
    16090.104600       0.796111
    16116.035500       0.796009
    16142.050000       0.795919
    16168.148700       0.795842
    16194.332000       0.795776
    16220.600200       0.795721
    16246.953700       0.795677
    16273.393000       0.795644
    16299.918500       0.795620
    16326.530600       0.795607
    16353.229800       0.795603
    16380.016400       0.795607
    16406.890900       0.795621
    16433.853700       0.795642
    16460.905300       0.795671
    16488.046200       0.795707
    16515.276600       0.795750
    16542.597200       0.795799
    16570.008300       0.795854
    16597.510400       0.795914
    16625.103900       0.795979
    16652.789300       0.796048
    16680.567100       0.796121
    16708.437800       0.796197
    16736.401700       0.796277
    16764.459300       0.796358
    16792.611300       0.796441
    16820.857900       0.796525
    16849.199700       0.796610
    16877.637100       0.796695
    16906.170800       0.796780
    16934.801000       0.796863
    16963.528400       0.796945
    16992.353400       0.797025
    17021.276600       0.797101
    17050.298400       0.797175
    17079.419300       0.797244
    17108.639900       0.797308
    17137.960600       0.797368
    17167.382000       0.797421
    17196.904600       0.797468
    17226.528900       0.797508
    17256.255400       0.797540
    17286.084700       0.797564
    17316.017300       0.797579
    17346.053800       0.797583
    17376.194600       0.797578
    17406.440400       0.797561
    17436.791600       0.797533
    17467.248900       0.797492
    17497.812800       0.797438
    17528.483800       0.797370
    17559.262500       0.797288
    17590.149500       0.797191
    17621.145400       0.797077
    17652.250700       0.796948
    17683.466000       0.796800
    17714.791900       0.796635
    17746.228900       0.796452
    17777.777800       0.796248
    17809.439000       0.796025
    17841.213200       0.795781
    17873.101000       0.795515
    17905.103000       0.795227
    17937.219700       0.794915
    17969.451900       0.794580
    18001.800200       0.794221
    18034.265100       0.793836
    18066.847300       0.793425
    18099.547500       0.792988
    18132.366300       0.792523
    18165.304300       0.792030
    18198.362100       0.791508
    18231.540600       0.790956
    18264.840200       0.790374
    18298.261700       0.789760
    18331.805700       0.789115
    18365.472900       0.788437
    18399.264000       0.787726
    18433.179700       0.786980
    18467.220700       0.786200
    18501.387600       0.785384
    18535.681200       0.784532
    18570.102100       0.783643
    18604.651200       0.782716
    18639.329000       0.781751
    18674.136300       0.780746
    18709.073900       0.779701
    18744.142500       0.778616
    18779.342700       0.777489
    18814.675400       0.776321
    18850.141400       0.775109
    18885.741300       0.773854
    18921.475900       0.772555
    18957.346000       0.771211
    18993.352300       0.769821
    19029.495700       0.768386
    19065.776900       0.766903
    19102.196800       0.765373
    19138.756000       0.763794
    19175.455400       0.762167
    19212.295900       0.760490
    19249.278200       0.758763
    19286.403100       0.756985
    19323.671500       0.755155
    19361.084200       0.753274
    19398.642100       0.751340
    19436.346000       0.749353
    19474.196700       0.747312
    19512.195100       0.745216
    19550.342100       0.743066
    19588.638600       0.740860
    19627.085400       0.738598
    19665.683400       0.736279
    19704.433500       0.733904
    19743.336600       0.731470
    19782.393700       0.728979
    19821.605600       0.726428
    19860.973200       0.723819
    19900.497500       0.721150
    19940.179500       0.718421
    19980.020000       0.715632
    20020.020000       0.712782
    20060.180500       0.709870
    20100.502500       0.706897
    20140.986900       0.703862
    20181.634700       0.700764
    20222.446900       0.697604
    20263.424500       0.694380
    20304.568500       0.691094
    20345.880000       0.687743
    20387.359800       0.684329
    20429.009200       0.680850
    20470.829100       0.677307
    20512.820500       0.673699
    20554.984600       0.670027
    20597.322300       0.666289
    20639.834900       0.662486
    20682.523300       0.658618
    20725.388600       0.654685
    20768.432000       0.650686
    20811.654500       0.646621
    20855.057400       0.642491
    20898.641600       0.638295
    20942.408400       0.634033
    20986.358900       0.629705
    21030.494200       0.625312
    21074.815600       0.620853
    21119.324200       0.616329
    21164.021200       0.611740
    21208.907700       0.607085
    21253.985100       0.602365
    21299.254500       0.597581
    21344.717200       0.592731
    21390.374300       0.587818
    21436.227200       0.582840
    21482.277100       0.577798
    21528.525300       0.572693
    21574.973000       0.567525
    21621.621600       0.562295
    21668.472400       0.557001
    21715.526600       0.551647
    21762.785600       0.546231
    21810.250800       0.540754
    21857.923500       0.535216
    21905.805000       0.529619
    21953.896800       0.523964
    22002.200200       0.518249
    22050.716600       0.512477
    22099.447500       0.506648
    22148.394200       0.500763
    22197.558300       0.494823
    22246.941000       0.488828
    22296.544000       0.482779
    22346.368700       0.476677
    22396.416600       0.470524
    22446.689100       0.464319
    22497.187900       0.458065
    22547.914300       0.451762
    22598.870100       0.445411
    22650.056600       0.439014
    22701.475600       0.432571
    22753.128600       0.426084
    22805.017100       0.419554
    22857.142900       0.412983
    22909.507400       0.406372
    22962.112500       0.399721
    23014.959700       0.393033
    23068.050700       0.386309
    23121.387300       0.379551
    23174.971000       0.372760
    23228.803700       0.365938
    23282.887100       0.359087
    23337.222900       0.352207
    23391.812900       0.345302
    23446.658900       0.338372
    23501.762600       0.331419
    23557.126000       0.324447
    23612.750900       0.317456
    23668.639100       0.310448
    23724.792400       0.303426
    23781.212800       0.296391
    23837.902300       0.289346
    23894.862600       0.282294
    23952.095800       0.275236
    24009.603800       0.268174
    24067.388700       0.261111
    24125.452400       0.254050
    24183.796900       0.246993
    24242.424200       0.239942
    24301.336600       0.232901
    24360.535900       0.225871
    24420.024400       0.218855
    24479.804200       0.211857
    24539.877300       0.204879
    24600.246000       0.197924
    24660.912500       0.190995
    24721.878900       0.184095
    24783.147500       0.177227
    24844.720500       0.170394
    24906.600200       0.163599
    24968.789000       0.156846
    25031.289100       0.150138
    25094.102900       0.143478
    25157.232700       0.136870
    25220.681000       0.130318
    25284.450100       0.123824
    25348.542500       0.117393
    25412.960600       0.111028
    25477.707000       0.104734
