20,   20, MVIRI VIS channel from srf_MET2_1984213_1984214_1801-Release_S10EL_10.dat
Number of data points:
730
Wavenumber (cm-1)   Filter response
     8916.629500       0.000000
     8924.587200       0.000000
     8932.559200       0.000002
     8940.545400       0.000011
     8948.545900       0.000032
     8956.560700       0.000068
     8964.589900       0.000125
     8972.633500       0.000206
     8980.691500       0.000316
     8988.764000       0.000457
     8996.851100       0.000635
     9004.952700       0.000851
     9013.068900       0.001110
     9021.199800       0.001415
     9029.345400       0.001769
     9037.505600       0.002174
     9045.680700       0.002634
     9053.870500       0.003150
     9062.075200       0.003726
     9070.294800       0.004364
     9078.529300       0.005066
     9086.778700       0.005834
     9095.043200       0.006670
     9103.322700       0.007576
     9111.617300       0.008554
     9119.927000       0.009604
     9128.251900       0.010730
     9136.592100       0.011932
     9144.947400       0.013211
     9153.318100       0.014569
     9161.704100       0.016006
     9170.105500       0.017525
     9178.522300       0.019125
     9186.954500       0.020807
     9195.402300       0.022573
     9203.865600       0.024423
     9212.344500       0.026357
     9220.839100       0.028376
     9229.349300       0.030480
     9237.875300       0.032670
     9246.417000       0.034945
     9254.974500       0.037307
     9263.547900       0.039755
     9272.137200       0.042288
     9280.742500       0.044908
     9289.363700       0.047614
     9298.000900       0.050405
     9306.654300       0.053283
     9315.323700       0.056245
     9324.009300       0.059292
     9332.711200       0.062425
     9341.429200       0.065640
     9350.163600       0.068940
     9358.914400       0.072322
     9367.681500       0.075788
     9376.465100       0.079335
     9385.265100       0.082962
     9394.081700       0.086671
     9402.914900       0.090458
     9411.764700       0.094325
     9420.631200       0.098270
     9429.514400       0.102291
     9438.414300       0.106389
     9447.331100       0.110562
     9456.264800       0.114809
     9465.215300       0.119130
     9474.182900       0.123522
     9483.167400       0.127985
     9492.169000       0.132518
     9501.187600       0.137120
     9510.223500       0.141790
     9519.276500       0.146526
     9528.346800       0.151327
     9537.434400       0.156193
     9546.539400       0.161121
     9555.661700       0.166111
     9564.801500       0.171160
     9573.958800       0.176270
     9583.133700       0.181436
     9592.326100       0.186659
     9601.536200       0.191937
     9610.764100       0.197269
     9620.009600       0.202653
     9629.273000       0.208088
     9638.554200       0.213572
     9647.853400       0.219105
     9657.170400       0.224684
     9666.505600       0.230310
     9675.858700       0.235979
     9685.230000       0.241690
     9694.619500       0.247443
     9704.027200       0.253236
     9713.453100       0.259067
     9722.897400       0.264935
     9732.360100       0.270838
     9741.841200       0.276776
     9751.340800       0.282746
     9760.859000       0.288748
     9770.395700       0.294780
     9779.951100       0.300840
     9789.525200       0.306927
     9799.118100       0.313041
     9808.729800       0.319177
     9818.360300       0.325338
     9828.009800       0.331519
     9837.678300       0.337720
     9847.365800       0.343941
     9857.072400       0.350178
     9866.798200       0.356432
     9876.543200       0.362700
     9886.307500       0.368982
     9896.091000       0.375276
     9905.894000       0.381579
     9915.716400       0.387893
     9925.558300       0.394214
     9935.419800       0.400542
     9945.300800       0.406876
     9955.201600       0.413213
     9965.122100       0.419554
     9975.062300       0.425896
     9985.022500       0.432238
     9995.002500       0.438580
    10005.002500       0.444920
    10015.022500       0.451256
    10025.062700       0.457587
    10035.122900       0.463913
    10045.203400       0.470232
    10055.304200       0.476544
    10065.425300       0.482846
    10075.566800       0.489137
    10085.728700       0.495418
    10095.911200       0.501686
    10106.114200       0.507941
    10116.337900       0.514180
    10126.582300       0.520405
    10136.847400       0.526612
    10147.133400       0.532802
    10157.440300       0.538973
    10167.768200       0.545125
    10178.117000       0.551256
    10188.487000       0.557365
    10198.878100       0.563452
    10209.290500       0.569515
    10219.724100       0.575554
    10230.179000       0.581568
    10240.655400       0.587555
    10251.153300       0.593516
    10261.672700       0.599449
    10272.213700       0.605352
    10282.776300       0.611227
    10293.360800       0.617072
    10303.967000       0.622885
    10314.595200       0.628666
    10325.245200       0.634415
    10335.917300       0.640131
    10346.611500       0.645812
    10357.327800       0.651459
    10368.066400       0.657071
    10378.827200       0.662646
    10389.610400       0.668186
    10400.416000       0.673687
    10411.244100       0.679151
    10422.094800       0.684576
    10432.968200       0.689962
    10443.864200       0.695309
    10454.783100       0.700616
    10465.724800       0.705881
    10476.689400       0.711106
    10487.677000       0.716288
    10498.687700       0.721429
    10509.721500       0.726527
    10520.778500       0.731581
    10531.858900       0.736592
    10542.962600       0.741560
    10554.089700       0.746482
    10565.240400       0.751360
    10576.414600       0.756193
    10587.612500       0.760980
    10598.834100       0.765721
    10610.079600       0.770416
    10621.348900       0.775065
    10632.642200       0.779666
    10643.959600       0.784221
    10655.301000       0.788728
    10666.666700       0.793187
    10678.056600       0.797599
    10689.470900       0.801962
    10700.909600       0.806277
    10712.372800       0.810543
    10723.860600       0.814761
    10735.373100       0.818930
    10746.910300       0.823049
    10758.472300       0.827119
    10770.059200       0.831140
    10781.671200       0.835111
    10793.308100       0.839033
    10804.970300       0.842904
    10816.657700       0.846726
    10828.370300       0.850498
    10840.108400       0.854220
    10851.871900       0.857891
    10863.661100       0.861513
    10875.475800       0.865084
    10887.316300       0.868605
    10899.182600       0.872076
    10911.074700       0.875497
    10922.992900       0.878867
    10934.937100       0.882187
    10946.907500       0.885457
    10958.904100       0.888677
    10970.927000       0.891847
    10982.976400       0.894966
    10995.052200       0.898036
    11007.154700       0.901056
    11019.283700       0.904026
    11031.439600       0.906946
    11043.622300       0.909816
    11055.832000       0.912637
    11068.068600       0.915409
    11080.332400       0.918131
    11092.623400       0.920804
    11104.941700       0.923428
    11117.287400       0.926003
    11129.660500       0.928529
    11142.061300       0.931007
    11154.489700       0.933437
    11166.945800       0.935818
    11179.429800       0.938151
    11191.941800       0.940436
    11204.481800       0.942674
    11217.049900       0.944864
    11229.646300       0.947007
    11242.270900       0.949103
    11254.924000       0.951152
    11267.605600       0.953155
    11280.315800       0.955111
    11293.054800       0.957021
    11305.822500       0.958885
    11318.619100       0.960704
    11331.444800       0.962477
    11344.299500       0.964205
    11357.183400       0.965888
    11370.096600       0.967527
    11383.039300       0.969121
    11396.011400       0.970671
    11409.013100       0.972178
    11422.044500       0.973640
    11435.105800       0.975060
    11448.196900       0.976437
    11461.318100       0.977771
    11474.469300       0.979063
    11487.650800       0.980312
    11500.862600       0.981520
    11514.104800       0.982687
    11527.377500       0.983812
    11540.680900       0.984896
    11554.015000       0.985940
    11567.380000       0.986944
    11580.775900       0.987908
    11594.202900       0.988832
    11607.661100       0.989716
    11621.150500       0.990562
    11634.671300       0.991369
    11648.223600       0.992138
    11661.807600       0.992869
    11675.423200       0.993562
    11689.070700       0.994217
    11702.750100       0.994836
    11716.461600       0.995418
    11730.205300       0.995963
    11743.981200       0.996472
    11757.789500       0.996946
    11771.630400       0.997384
    11785.503800       0.997787
    11799.410000       0.998155
    11813.349100       0.998489
    11827.321100       0.998788
    11841.326200       0.999054
    11855.364600       0.999286
    11869.436200       0.999485
    11883.541300       0.999651
    11897.680000       0.999785
    11911.852300       0.999886
    11926.058400       0.999956
    11940.298500       0.999993
    11954.572600       1.000000
    11968.880900       0.999976
    11983.223500       0.999921
    11997.600500       0.999835
    12012.012000       0.999720
    12026.458200       0.999575
    12040.939200       0.999401
    12055.455100       0.999197
    12070.006000       0.998965
    12084.592100       0.998704
    12099.213600       0.998415
    12113.870400       0.998098
    12128.562800       0.997754
    12143.290800       0.997382
    12158.054700       0.996984
    12172.854500       0.996558
    12187.690400       0.996106
    12202.562500       0.995629
    12217.471000       0.995125
    12232.415900       0.994596
    12247.397400       0.994041
    12262.415700       0.993462
    12277.470800       0.992858
    12292.563000       0.992229
    12307.692300       0.991576
    12322.858900       0.990899
    12338.062900       0.990199
    12353.304500       0.989475
    12368.583800       0.988729
    12383.900900       0.987959
    12399.256000       0.987167
    12414.649300       0.986352
    12430.080800       0.985515
    12445.550700       0.984657
    12461.059200       0.983777
    12476.606400       0.982875
    12492.192400       0.981953
    12507.817400       0.981009
    12523.481500       0.980045
    12539.185000       0.979060
    12554.927800       0.978055
    12570.710200       0.977030
    12586.532400       0.975986
    12602.394500       0.974922
    12618.296500       0.973838
    12634.238800       0.972736
    12650.221400       0.971614
    12666.244500       0.970474
    12682.308200       0.969315
    12698.412700       0.968138
    12714.558200       0.966943
    12730.744700       0.965730
    12746.972600       0.964499
    12763.241900       0.963251
    12779.552700       0.961985
    12795.905300       0.960702
    12812.299800       0.959402
    12828.736400       0.958085
    12845.215200       0.956752
    12861.736300       0.955402
    12878.300100       0.954036
    12894.906500       0.952654
    12911.555800       0.951256
    12928.248200       0.949842
    12944.983800       0.948412
    12961.762800       0.946966
    12978.585300       0.945506
    12995.451600       0.944030
    13012.361700       0.942539
    13029.316000       0.941033
    13046.314400       0.939512
    13063.357300       0.937977
    13080.444700       0.936427
    13097.576900       0.934863
    13114.754100       0.933285
    13131.976400       0.931692
    13149.243900       0.930085
    13166.556900       0.928465
    13183.915600       0.926831
    13201.320100       0.925183
    13218.770700       0.923521
    13236.267400       0.921846
    13253.810500       0.920158
    13271.400100       0.918457
    13289.036500       0.916742
    13306.719900       0.915015
    13324.450400       0.913274
    13342.228200       0.911521
    13360.053400       0.909755
    13377.926400       0.907977
    13395.847300       0.906186
    13413.816200       0.904383
    13431.833400       0.902567
    13449.899100       0.900739
    13468.013500       0.898899
    13486.176700       0.897047
    13504.388900       0.895183
    13522.650400       0.893307
    13540.961400       0.891419
    13559.322000       0.889520
    13577.732500       0.887609
    13596.193100       0.885686
    13614.703900       0.883752
    13633.265200       0.881806
    13651.877100       0.879849
    13670.540000       0.877881
    13689.253900       0.875901
    13708.019200       0.873911
    13726.836000       0.871909
    13745.704500       0.869897
    13764.624900       0.867873
    13783.597500       0.865838
    13802.622500       0.863793
    13821.700100       0.861737
    13840.830400       0.859671
    13860.013900       0.857593
    13879.250500       0.855505
    13898.540700       0.853407
    13917.884500       0.851298
    13937.282200       0.849179
    13956.734100       0.847049
    13976.240400       0.844910
    13995.801300       0.842760
    14015.417000       0.840600
    14035.087700       0.838429
    14054.813800       0.836249
    14074.595400       0.834059
    14094.432700       0.831859
    14114.326000       0.829649
    14134.275600       0.827429
    14154.281700       0.825200
    14174.344400       0.822961
    14194.464200       0.820712
    14214.641100       0.818454
    14234.875400       0.816186
    14255.167500       0.813909
    14275.517500       0.811622
    14295.925700       0.809326
    14316.392300       0.807021
    14336.917600       0.804706
    14357.501800       0.802383
    14378.145200       0.800050
    14398.848100       0.797708
    14419.610700       0.795358
    14440.433200       0.792998
    14461.316000       0.790630
    14482.259200       0.788253
    14503.263200       0.785867
    14524.328200       0.783472
    14545.454500       0.781069
    14566.642400       0.778657
    14587.892000       0.776237
    14609.203800       0.773809
    14630.577900       0.771372
    14652.014700       0.768927
    14673.514300       0.766474
    14695.077100       0.764012
    14716.703500       0.761543
    14738.393500       0.759066
    14760.147600       0.756580
    14781.966000       0.754087
    14803.849000       0.751587
    14825.796900       0.749078
    14847.809900       0.746562
    14869.888500       0.744039
    14892.032800       0.741508
    14914.243100       0.738970
    14936.519800       0.736424
    14958.863100       0.733872
    14981.273400       0.731312
    15003.750900       0.728746
    15026.296000       0.726172
    15048.909000       0.723592
    15071.590100       0.721005
    15094.339600       0.718411
    15117.158000       0.715811
    15140.045400       0.713204
    15163.002300       0.710592
    15186.028900       0.707973
    15209.125500       0.705347
    15232.292500       0.702716
    15255.530100       0.700079
    15278.838800       0.697436
    15302.218800       0.694787
    15325.670500       0.692132
    15349.194200       0.689473
    15372.790200       0.686807
    15396.458800       0.684137
    15420.200500       0.681461
    15444.015400       0.678780
    15467.904100       0.676094
    15491.866800       0.673404
    15515.903800       0.670709
    15540.015500       0.668009
    15564.202300       0.665304
    15588.464500       0.662596
    15612.802500       0.659883
    15637.216600       0.657166
    15661.707100       0.654444
    15686.274500       0.651720
    15710.919100       0.648991
    15735.641200       0.646259
    15760.441300       0.643523
    15785.319700       0.640784
    15810.276700       0.638042
    15835.312700       0.635296
    15860.428200       0.632548
    15885.623500       0.629797
    15910.899000       0.627043
    15936.255000       0.624287
    15961.691900       0.621528
    15987.210200       0.618768
    16012.810200       0.616004
    16038.492400       0.613239
    16064.257000       0.610473
    16090.104600       0.607704
    16116.035500       0.604934
    16142.050000       0.602162
    16168.148700       0.599390
    16194.332000       0.596616
    16220.600200       0.593841
    16246.953700       0.591065
    16273.393000       0.588289
    16299.918500       0.585512
    16326.530600       0.582735
    16353.229800       0.579957
    16380.016400       0.577179
    16406.890900       0.574402
    16433.853700       0.571625
    16460.905300       0.568848
    16488.046200       0.566071
    16515.276600       0.563295
    16542.597200       0.560520
    16570.008300       0.557746
    16597.510400       0.554973
    16625.103900       0.552201
    16652.789300       0.549431
    16680.567100       0.546662
    16708.437800       0.543895
    16736.401700       0.541130
    16764.459300       0.538366
    16792.611300       0.535605
    16820.857900       0.532846
    16849.199700       0.530089
    16877.637100       0.527335
    16906.170800       0.524584
    16934.801000       0.521836
    16963.528400       0.519090
    16992.353400       0.516348
    17021.276600       0.513609
    17050.298400       0.510873
    17079.419300       0.508141
    17108.639900       0.505413
    17137.960600       0.502689
    17167.382000       0.499968
    17196.904600       0.497251
    17226.528900       0.494539
    17256.255400       0.491831
    17286.084700       0.489128
    17316.017300       0.486429
    17346.053800       0.483735
    17376.194600       0.481045
    17406.440400       0.478361
    17436.791600       0.475682
    17467.248900       0.473008
    17497.812800       0.470339
    17528.483800       0.467676
    17559.262500       0.465018
    17590.149500       0.462366
    17621.145400       0.459719
    17652.250700       0.457079
    17683.466000       0.454444
    17714.791900       0.451816
    17746.228900       0.449194
    17777.777800       0.446578
    17809.439000       0.443968
    17841.213200       0.441365
    17873.101000       0.438768
    17905.103000       0.436178
    17937.219700       0.433594
    17969.451900       0.431017
    18001.800200       0.428447
    18034.265100       0.425884
    18066.847300       0.423328
    18099.547500       0.420779
    18132.366300       0.418237
    18165.304300       0.415702
    18198.362100       0.413175
    18231.540600       0.410654
    18264.840200       0.408141
    18298.261700       0.405635
    18331.805700       0.403137
    18365.472900       0.400646
    18399.264000       0.398162
    18433.179700       0.395686
    18467.220700       0.393217
    18501.387600       0.390756
    18535.681200       0.388302
    18570.102100       0.385856
    18604.651200       0.383418
    18639.329000       0.380986
    18674.136300       0.378563
    18709.073900       0.376147
    18744.142500       0.373738
    18779.342700       0.371337
    18814.675400       0.368944
    18850.141400       0.366557
    18885.741300       0.364179
    18921.475900       0.361808
    18957.346000       0.359444
    18993.352300       0.357087
    19029.495700       0.354738
    19065.776900       0.352396
    19102.196800       0.350061
    19138.756000       0.347733
    19175.455400       0.345412
    19212.295900       0.343098
    19249.278200       0.340791
    19286.403100       0.338491
    19323.671500       0.336198
    19361.084200       0.333911
    19398.642100       0.331631
    19436.346000       0.329357
    19474.196700       0.327089
    19512.195100       0.324828
    19550.342100       0.322573
    19588.638600       0.320325
    19627.085400       0.318082
    19665.683400       0.315844
    19704.433500       0.313613
    19743.336600       0.311387
    19782.393700       0.309166
    19821.605600       0.306950
    19860.973200       0.304740
    19900.497500       0.302535
    19940.179500       0.300334
    19980.020000       0.298138
    20020.020000       0.295947
    20060.180500       0.293759
    20100.502500       0.291576
    20140.986900       0.289397
    20181.634700       0.287222
    20222.446900       0.285050
    20263.424500       0.282881
    20304.568500       0.280716
    20345.880000       0.278554
    20387.359800       0.276395
    20429.009200       0.274238
    20470.829100       0.272083
    20512.820500       0.269931
    20554.984600       0.267781
    20597.322300       0.265632
    20639.834900       0.263485
    20682.523300       0.261339
    20725.388600       0.259195
    20768.432000       0.257051
    20811.654500       0.254908
    20855.057400       0.252765
    20898.641600       0.250622
    20942.408400       0.248479
    20986.358900       0.246336
    21030.494200       0.244193
    21074.815600       0.242048
    21119.324200       0.239903
    21164.021200       0.237756
    21208.907700       0.235607
    21253.985100       0.233457
    21299.254500       0.231305
    21344.717200       0.229150
    21390.374300       0.226993
    21436.227200       0.224833
    21482.277100       0.222670
    21528.525300       0.220503
    21574.973000       0.218333
    21621.621600       0.216159
    21668.472400       0.213982
    21715.526600       0.211799
    21762.785600       0.209613
    21810.250800       0.207421
    21857.923500       0.205224
    21905.805000       0.203022
    21953.896800       0.200815
    22002.200200       0.198601
    22050.716600       0.196382
    22099.447500       0.194157
    22148.394200       0.191924
    22197.558300       0.189686
    22246.941000       0.187440
    22296.544000       0.185187
    22346.368700       0.182927
    22396.416600       0.180659
    22446.689100       0.178383
    22497.187900       0.176100
    22547.914300       0.173808
    22598.870100       0.171508
    22650.056600       0.169200
    22701.475600       0.166882
    22753.128600       0.164556
    22805.017100       0.162221
    22857.142900       0.159877
    22909.507400       0.157523
    22962.112500       0.155160
    23014.959700       0.152788
    23068.050700       0.150405
    23121.387300       0.148014
    23174.971000       0.145612
    23228.803700       0.143200
    23282.887100       0.140778
    23337.222900       0.138346
    23391.812900       0.135905
    23446.658900       0.133453
    23501.762600       0.130990
    23557.126000       0.128518
    23612.750900       0.126036
    23668.639100       0.123543
    23724.792400       0.121041
    23781.212800       0.118528
    23837.902300       0.116005
    23894.862600       0.113473
    23952.095800       0.110931
    24009.603800       0.108379
    24067.388700       0.105818
    24125.452400       0.103248
    24183.796900       0.100668
    24242.424200       0.098080
    24301.336600       0.095482
    24360.535900       0.092877
    24420.024400       0.090263
    24479.804200       0.087641
    24539.877300       0.085012
    24600.246000       0.082376
    24660.912500       0.079733
    24721.878900       0.077083
    24783.147500       0.074427
    24844.720500       0.071766
    24906.600200       0.069099
    24968.789000       0.066428
    25031.289100       0.063753
    25094.102900       0.061074
    25157.232700       0.058393
    25220.681000       0.055709
    25284.450100       0.053023
    25348.542500       0.050336
    25412.960600       0.047649
    25477.707000       0.044962
