134,   134, MVIRI VIS channel from srf_MET7_2014123_2014124_1801-Release_S10EE_10.dat
Number of data points:
793
Wavenumber (cm-1)   Filter response
     8442.380800       0.000000
     8449.514200       0.000000
     8456.659600       0.000004
     8463.817200       0.000057
     8470.986900       0.000168
     8478.168700       0.000336
     8485.362700       0.000560
     8492.569000       0.000837
     8499.787500       0.001166
     8507.018300       0.001546
     8514.261400       0.001975
     8521.516800       0.002451
     8528.784600       0.002974
     8536.064900       0.003542
     8543.357500       0.004154
     8550.662700       0.004808
     8557.980300       0.005504
     8565.310500       0.006240
     8572.653200       0.007015
     8580.008600       0.007828
     8587.376600       0.008678
     8594.757200       0.009564
     8602.150500       0.010486
     8609.556600       0.011442
     8616.975400       0.012432
     8624.407100       0.013454
     8631.851500       0.014508
     8639.308900       0.015594
     8646.779100       0.016710
     8654.262200       0.017855
     8661.758300       0.019030
     8669.267400       0.020234
     8676.789600       0.021466
     8684.324800       0.022725
     8691.873100       0.024011
     8699.434500       0.025323
     8707.009100       0.026662
     8714.596900       0.028026
     8722.198000       0.029415
     8729.812300       0.030829
     8737.439900       0.032267
     8745.080900       0.033729
     8752.735200       0.035215
     8760.403000       0.036724
     8768.084200       0.038256
     8775.778900       0.039811
     8783.487000       0.041389
     8791.208800       0.042989
     8798.944100       0.044612
     8806.693100       0.046256
     8814.455700       0.047922
     8822.232000       0.049610
     8830.022100       0.051319
     8837.825900       0.053049
     8845.643500       0.054802
     8853.475000       0.056574
     8861.320300       0.058369
     8869.179600       0.060184
     8877.052800       0.062020
     8884.940000       0.063877
     8892.841300       0.065755
     8900.756600       0.067653
     8908.686000       0.069573
     8916.629500       0.071513
     8924.587200       0.073474
     8932.559200       0.075456
     8940.545400       0.077459
     8948.545900       0.079482
     8956.560700       0.081527
     8964.589900       0.083592
     8972.633500       0.085678
     8980.691500       0.087786
     8988.764000       0.089914
     8996.851100       0.092064
     9004.952700       0.094234
     9013.068900       0.096426
     9021.199800       0.098639
     9029.345400       0.100874
     9037.505600       0.103130
     9045.680700       0.105408
     9053.870500       0.107707
     9062.075200       0.110028
     9070.294800       0.112370
     9078.529300       0.114735
     9086.778700       0.117122
     9095.043200       0.119530
     9103.322700       0.121961
     9111.617300       0.124414
     9119.927000       0.126889
     9128.251900       0.129387
     9136.592100       0.131907
     9144.947400       0.134450
     9153.318100       0.137015
     9161.704100       0.139603
     9170.105500       0.142214
     9178.522300       0.144848
     9186.954500       0.147505
     9195.402300       0.150185
     9203.865600       0.152888
     9212.344500       0.155614
     9220.839100       0.158363
     9229.349300       0.161136
     9237.875300       0.163932
     9246.417000       0.166752
     9254.974500       0.169595
     9263.547900       0.172462
     9272.137200       0.175352
     9280.742500       0.178266
     9289.363700       0.181203
     9298.000900       0.184164
     9306.654300       0.187150
     9315.323700       0.190158
     9324.009300       0.193191
     9332.711200       0.196247
     9341.429200       0.199327
     9350.163600       0.202431
     9358.914400       0.205558
     9367.681500       0.208709
     9376.465100       0.211884
     9385.265100       0.215083
     9394.081700       0.218305
     9402.914900       0.221551
     9411.764700       0.224821
     9420.631200       0.228115
     9429.514400       0.231431
     9438.414300       0.234772
     9447.331100       0.238135
     9456.264800       0.241522
     9465.215300       0.244933
     9474.182900       0.248366
     9483.167400       0.251823
     9492.169000       0.255302
     9501.187600       0.258805
     9510.223500       0.262331
     9519.276500       0.265878
     9528.346800       0.269449
     9537.434400       0.273042
     9546.539400       0.276657
     9555.661700       0.280295
     9564.801500       0.283954
     9573.958800       0.287636
     9583.133700       0.291339
     9592.326100       0.295063
     9601.536200       0.298810
     9610.764100       0.302577
     9620.009600       0.306365
     9629.273000       0.310174
     9638.554200       0.314003
     9647.853400       0.317854
     9657.170400       0.321724
     9666.505600       0.325614
     9675.858700       0.329524
     9685.230000       0.333453
     9694.619500       0.337402
     9704.027200       0.341370
     9713.453100       0.345357
     9722.897400       0.349362
     9732.360100       0.353385
     9741.841200       0.357427
     9751.340800       0.361486
     9760.859000       0.365563
     9770.395700       0.369657
     9779.951100       0.373767
     9789.525200       0.377895
     9799.118100       0.382038
     9808.729800       0.386198
     9818.360300       0.390373
     9828.009800       0.394563
     9837.678300       0.398769
     9847.365800       0.402990
     9857.072400       0.407224
     9866.798200       0.411473
     9876.543200       0.415735
     9886.307500       0.420011
     9896.091000       0.424300
     9905.894000       0.428601
     9915.716400       0.432914
     9925.558300       0.437239
     9935.419800       0.441576
     9945.300800       0.445924
     9955.201600       0.450283
     9965.122100       0.454652
     9975.062300       0.459031
     9985.022500       0.463419
     9995.002500       0.467817
    10005.002500       0.472224
    10015.022500       0.476638
    10025.062700       0.481061
    10035.122900       0.485491
    10045.203400       0.489928
    10055.304200       0.494373
    10065.425300       0.498823
    10075.566800       0.503279
    10085.728700       0.507740
    10095.911200       0.512206
    10106.114200       0.516677
    10116.337900       0.521152
    10126.582300       0.525631
    10136.847400       0.530112
    10147.133400       0.534597
    10157.440300       0.539083
    10167.768200       0.543572
    10178.117000       0.548062
    10188.487000       0.552552
    10198.878100       0.557044
    10209.290500       0.561535
    10219.724100       0.566025
    10230.179000       0.570515
    10240.655400       0.575004
    10251.153300       0.579490
    10261.672700       0.583974
    10272.213700       0.588455
    10282.776300       0.592933
    10293.360800       0.597407
    10303.967000       0.601877
    10314.595200       0.606342
    10325.245200       0.610802
    10335.917300       0.615257
    10346.611500       0.619705
    10357.327800       0.624146
    10368.066400       0.628580
    10378.827200       0.633007
    10389.610400       0.637426
    10400.416000       0.641836
    10411.244100       0.646237
    10422.094800       0.650629
    10432.968200       0.655010
    10443.864200       0.659382
    10454.783100       0.663742
    10465.724800       0.668091
    10476.689400       0.672428
    10487.677000       0.676753
    10498.687700       0.681064
    10509.721500       0.685363
    10520.778500       0.689648
    10531.858900       0.693918
    10542.962600       0.698174
    10554.089700       0.702415
    10565.240400       0.706640
    10576.414600       0.710849
    10587.612500       0.715042
    10598.834100       0.719218
    10610.079600       0.723376
    10621.348900       0.727516
    10632.642200       0.731638
    10643.959600       0.735741
    10655.301000       0.739825
    10666.666700       0.743889
    10678.056600       0.747933
    10689.470900       0.751956
    10700.909600       0.755959
    10712.372800       0.759940
    10723.860600       0.763899
    10735.373100       0.767836
    10746.910300       0.771751
    10758.472300       0.775642
    10770.059200       0.779510
    10781.671200       0.783353
    10793.308100       0.787173
    10804.970300       0.790968
    10816.657700       0.794737
    10828.370300       0.798481
    10840.108400       0.802200
    10851.871900       0.805891
    10863.661100       0.809557
    10875.475800       0.813195
    10887.316300       0.816805
    10899.182600       0.820388
    10911.074700       0.823943
    10922.992900       0.827469
    10934.937100       0.830967
    10946.907500       0.834435
    10958.904100       0.837873
    10970.927000       0.841282
    10982.976400       0.844660
    10995.052200       0.848008
    11007.154700       0.851325
    11019.283700       0.854610
    11031.439600       0.857864
    11043.622300       0.861086
    11055.832000       0.864277
    11068.068600       0.867434
    11080.332400       0.870559
    11092.623400       0.873651
    11104.941700       0.876709
    11117.287400       0.879734
    11129.660500       0.882725
    11142.061300       0.885682
    11154.489700       0.888605
    11166.945800       0.891492
    11179.429800       0.894345
    11191.941800       0.897163
    11204.481800       0.899946
    11217.049900       0.902692
    11229.646300       0.905404
    11242.270900       0.908078
    11254.924000       0.910717
    11267.605600       0.913320
    11280.315800       0.915885
    11293.054800       0.918414
    11305.822500       0.920906
    11318.619100       0.923360
    11331.444800       0.925778
    11344.299500       0.928157
    11357.183400       0.930499
    11370.096600       0.932803
    11383.039300       0.935070
    11396.011400       0.937297
    11409.013100       0.939487
    11422.044500       0.941638
    11435.105800       0.943751
    11448.196900       0.945825
    11461.318100       0.947861
    11474.469300       0.949857
    11487.650800       0.951815
    11500.862600       0.953734
    11514.104800       0.955613
    11527.377500       0.957453
    11540.680900       0.959254
    11554.015000       0.961016
    11567.380000       0.962739
    11580.775900       0.964422
    11594.202900       0.966065
    11607.661100       0.967669
    11621.150500       0.969234
    11634.671300       0.970759
    11648.223600       0.972245
    11661.807600       0.973691
    11675.423200       0.975098
    11689.070700       0.976465
    11702.750100       0.977793
    11716.461600       0.979081
    11730.205300       0.980329
    11743.981200       0.981539
    11757.789500       0.982709
    11771.630400       0.983839
    11785.503800       0.984931
    11799.410000       0.985983
    11813.349100       0.986996
    11827.321100       0.987970
    11841.326200       0.988905
    11855.364600       0.989801
    11869.436200       0.990659
    11883.541300       0.991478
    11897.680000       0.992258
    11911.852300       0.992999
    11926.058400       0.993703
    11940.298500       0.994368
    11954.572600       0.994996
    11968.880900       0.995585
    11983.223500       0.996136
    11997.600500       0.996650
    12012.012000       0.997127
    12026.458200       0.997566
    12040.939200       0.997968
    12055.455100       0.998334
    12070.006000       0.998662
    12084.592100       0.998954
    12099.213600       0.999210
    12113.870400       0.999429
    12128.562800       0.999613
    12143.290800       0.999761
    12158.054700       0.999873
    12172.854500       0.999950
    12187.690400       0.999993
    12202.562500       1.000000
    12217.471000       0.999973
    12232.415900       0.999911
    12247.397400       0.999816
    12262.415700       0.999687
    12277.470800       0.999524
    12292.563000       0.999328
    12307.692300       0.999099
    12322.858900       0.998838
    12338.062900       0.998544
    12353.304500       0.998218
    12368.583800       0.997861
    12383.900900       0.997471
    12399.256000       0.997051
    12414.649300       0.996600
    12430.080800       0.996118
    12445.550700       0.995607
    12461.059200       0.995065
    12476.606400       0.994494
    12492.192400       0.993893
    12507.817400       0.993264
    12523.481500       0.992606
    12539.185000       0.991921
    12554.927800       0.991207
    12570.710200       0.990466
    12586.532400       0.989698
    12602.394500       0.988903
    12618.296500       0.988082
    12634.238800       0.987234
    12650.221400       0.986362
    12666.244500       0.985464
    12682.308200       0.984541
    12698.412700       0.983594
    12714.558200       0.982623
    12730.744700       0.981628
    12746.972600       0.980610
    12763.241900       0.979569
    12779.552700       0.978506
    12795.905300       0.977421
    12812.299800       0.976314
    12828.736400       0.975186
    12845.215200       0.974037
    12861.736300       0.972868
    12878.300100       0.971679
    12894.906500       0.970470
    12911.555800       0.969243
    12928.248200       0.967996
    12944.983800       0.966732
    12961.762800       0.965450
    12978.585300       0.964150
    12995.451600       0.962834
    13012.361700       0.961501
    13029.316000       0.960152
    13046.314400       0.958787
    13063.357300       0.957408
    13080.444700       0.956014
    13097.576900       0.954605
    13114.754100       0.953183
    13131.976400       0.951747
    13149.243900       0.950298
    13166.556900       0.948837
    13183.915600       0.947364
    13201.320100       0.945880
    13218.770700       0.944384
    13236.267400       0.942878
    13253.810500       0.941361
    13271.400100       0.939835
    13289.036500       0.938299
    13306.719900       0.936755
    13324.450400       0.935202
    13342.228200       0.933642
    13360.053400       0.932074
    13377.926400       0.930498
    13395.847300       0.928917
    13413.816200       0.927329
    13431.833400       0.925735
    13449.899100       0.924137
    13468.013500       0.922533
    13486.176700       0.920925
    13504.388900       0.919314
    13522.650400       0.917698
    13540.961400       0.916080
    13559.322000       0.914460
    13577.732500       0.912837
    13596.193100       0.911212
    13614.703900       0.909586
    13633.265200       0.907960
    13651.877100       0.906333
    13670.540000       0.904706
    13689.253900       0.903080
    13708.019200       0.901454
    13726.836000       0.899830
    13745.704500       0.898207
    13764.624900       0.896587
    13783.597500       0.894969
    13802.622500       0.893355
    13821.700100       0.891743
    13840.830400       0.890136
    13860.013900       0.888532
    13879.250500       0.886934
    13898.540700       0.885340
    13917.884500       0.883752
    13937.282200       0.882169
    13956.734100       0.880593
    13976.240400       0.879023
    13995.801300       0.877460
    14015.417000       0.875904
    14035.087700       0.874356
    14054.813800       0.872816
    14074.595400       0.871284
    14094.432700       0.869762
    14114.326000       0.868248
    14134.275600       0.866743
    14154.281700       0.865249
    14174.344400       0.863764
    14194.464200       0.862290
    14214.641100       0.860827
    14234.875400       0.859375
    14255.167500       0.857934
    14275.517500       0.856505
    14295.925700       0.855088
    14316.392300       0.853683
    14336.917600       0.852290
    14357.501800       0.850911
    14378.145200       0.849545
    14398.848100       0.848192
    14419.610700       0.846853
    14440.433200       0.845528
    14461.316000       0.844217
    14482.259200       0.842921
    14503.263200       0.841640
    14524.328200       0.840373
    14545.454500       0.839122
    14566.642400       0.837886
    14587.892000       0.836666
    14609.203800       0.835461
    14630.577900       0.834273
    14652.014700       0.833101
    14673.514300       0.831945
    14695.077100       0.830806
    14716.703500       0.829684
    14738.393500       0.828579
    14760.147600       0.827490
    14781.966000       0.826420
    14803.849000       0.825366
    14825.796900       0.824331
    14847.809900       0.823313
    14869.888500       0.822313
    14892.032800       0.821330
    14914.243100       0.820366
    14936.519800       0.819420
    14958.863100       0.818493
    14981.273400       0.817583
    15003.750900       0.816692
    15026.296000       0.815820
    15048.909000       0.814966
    15071.590100       0.814131
    15094.339600       0.813315
    15117.158000       0.812517
    15140.045400       0.811738
    15163.002300       0.810977
    15186.028900       0.810236
    15209.125500       0.809513
    15232.292500       0.808809
    15255.530100       0.808123
    15278.838800       0.807457
    15302.218800       0.806809
    15325.670500       0.806179
    15349.194200       0.805569
    15372.790200       0.804977
    15396.458800       0.804403
    15420.200500       0.803848
    15444.015400       0.803311
    15467.904100       0.802792
    15491.866800       0.802291
    15515.903800       0.801809
    15540.015500       0.801344
    15564.202300       0.800897
    15588.464500       0.800468
    15612.802500       0.800056
    15637.216600       0.799661
    15661.707100       0.799284
    15686.274500       0.798923
    15710.919100       0.798580
    15735.641200       0.798253
    15760.441300       0.797942
    15785.319700       0.797648
    15810.276700       0.797369
    15835.312700       0.797106
    15860.428200       0.796859
    15885.623500       0.796627
    15910.899000       0.796410
    15936.255000       0.796208
    15961.691900       0.796021
    15987.210200       0.795847
    16012.810200       0.795687
    16038.492400       0.795541
    16064.257000       0.795409
    16090.104600       0.795289
    16116.035500       0.795182
    16142.050000       0.795087
    16168.148700       0.795004
    16194.332000       0.794933
    16220.600200       0.794873
    16246.953700       0.794824
    16273.393000       0.794785
    16299.918500       0.794757
    16326.530600       0.794738
    16353.229800       0.794729
    16380.016400       0.794728
    16406.890900       0.794736
    16433.853700       0.794752
    16460.905300       0.794776
    16488.046200       0.794806
    16515.276600       0.794844
    16542.597200       0.794887
    16570.008300       0.794937
    16597.510400       0.794991
    16625.103900       0.795051
    16652.789300       0.795114
    16680.567100       0.795182
    16708.437800       0.795253
    16736.401700       0.795326
    16764.459300       0.795402
    16792.611300       0.795480
    16820.857900       0.795558
    16849.199700       0.795638
    16877.637100       0.795717
    16906.170800       0.795796
    16934.801000       0.795874
    16963.528400       0.795950
    16992.353400       0.796023
    17021.276600       0.796094
    17050.298400       0.796162
    17079.419300       0.796226
    17108.639900       0.796284
    17137.960600       0.796338
    17167.382000       0.796386
    17196.904600       0.796427
    17226.528900       0.796461
    17256.255400       0.796487
    17286.084700       0.796505
    17316.017300       0.796514
    17346.053800       0.796513
    17376.194600       0.796502
    17406.440400       0.796479
    17436.791600       0.796445
    17467.248900       0.796399
    17497.812800       0.796339
    17528.483800       0.796265
    17559.262500       0.796178
    17590.149500       0.796074
    17621.145400       0.795955
    17652.250700       0.795820
    17683.466000       0.795667
    17714.791900       0.795496
    17746.228900       0.795307
    17777.777800       0.795098
    17809.439000       0.794869
    17841.213200       0.794619
    17873.101000       0.794347
    17905.103000       0.794054
    17937.219700       0.793737
    17969.451900       0.793396
    18001.800200       0.793031
    18034.265100       0.792641
    18066.847300       0.792225
    18099.547500       0.791782
    18132.366300       0.791312
    18165.304300       0.790813
    18198.362100       0.790286
    18231.540600       0.789729
    18264.840200       0.789141
    18298.261700       0.788523
    18331.805700       0.787872
    18365.472900       0.787189
    18399.264000       0.786473
    18433.179700       0.785723
    18467.220700       0.784938
    18501.387600       0.784117
    18535.681200       0.783260
    18570.102100       0.782366
    18604.651200       0.781434
    18639.329000       0.780464
    18674.136300       0.779455
    18709.073900       0.778406
    18744.142500       0.777316
    18779.342700       0.776185
    18814.675400       0.775012
    18850.141400       0.773796
    18885.741300       0.772537
    18921.475900       0.771234
    18957.346000       0.769886
    18993.352300       0.768493
    19029.495700       0.767053
    19065.776900       0.765567
    19102.196800       0.764033
    19138.756000       0.762451
    19175.455400       0.760820
    19212.295900       0.759140
    19249.278200       0.757410
    19286.403100       0.755628
    19323.671500       0.753796
    19361.084200       0.751912
    19398.642100       0.749975
    19436.346000       0.747985
    19474.196700       0.745942
    19512.195100       0.743844
    19550.342100       0.741691
    19588.638600       0.739483
    19627.085400       0.737219
    19665.683400       0.734898
    19704.433500       0.732521
    19743.336600       0.730086
    19782.393700       0.727593
    19821.605600       0.725041
    19860.973200       0.722431
    19900.497500       0.719761
    19940.179500       0.717031
    19980.020000       0.714241
    20020.020000       0.711390
    20060.180500       0.708478
    20100.502500       0.705504
    20140.986900       0.702469
    20181.634700       0.699371
    20222.446900       0.696211
    20263.424500       0.692988
    20304.568500       0.689702
    20345.880000       0.686352
    20387.359800       0.682938
    20429.009200       0.679461
    20470.829100       0.675919
    20512.820500       0.672313
    20554.984600       0.668642
    20597.322300       0.664906
    20639.834900       0.661105
    20682.523300       0.657239
    20725.388600       0.653308
    20768.432000       0.649311
    20811.654500       0.645249
    20855.057400       0.641122
    20898.641600       0.636929
    20942.408400       0.632670
    20986.358900       0.628347
    21030.494200       0.623957
    21074.815600       0.619502
    21119.324200       0.614983
    21164.021200       0.610397
    21208.907700       0.605747
    21253.985100       0.601032
    21299.254500       0.596253
    21344.717200       0.591409
    21390.374300       0.586500
    21436.227200       0.581528
    21482.277100       0.576493
    21528.525300       0.571394
    21574.973000       0.566232
    21621.621600       0.561008
    21668.472400       0.555722
    21715.526600       0.550374
    21762.785600       0.544965
    21810.250800       0.539496
    21857.923500       0.533966
    21905.805000       0.528377
    21953.896800       0.522730
    22002.200200       0.517024
    22050.716600       0.511261
    22099.447500       0.505441
    22148.394200       0.499565
    22197.558300       0.493634
    22246.941000       0.487648
    22296.544000       0.481609
    22346.368700       0.475518
    22396.416600       0.469375
    22446.689100       0.463181
    22497.187900       0.456937
    22547.914300       0.450645
    22598.870100       0.444306
    22650.056600       0.437920
    22701.475600       0.431489
    22753.128600       0.425014
    22805.017100       0.418497
    22857.142900       0.411938
    22909.507400       0.405339
    22962.112500       0.398701
    23014.959700       0.392027
    23068.050700       0.385316
    23121.387300       0.378571
    23174.971000       0.371794
    23228.803700       0.364986
    23282.887100       0.358149
    23337.222900       0.351283
    23391.812900       0.344392
    23446.658900       0.337477
    23501.762600       0.330540
    23557.126000       0.323582
    23612.750900       0.316607
    23668.639100       0.309615
    23724.792400       0.302608
    23781.212800       0.295589
    23837.902300       0.288561
    23894.862600       0.281524
    23952.095800       0.274482
    24009.603800       0.267437
    24067.388700       0.260391
    24125.452400       0.253347
    24183.796900       0.246307
    24242.424200       0.239273
    24301.336600       0.232249
    24360.535900       0.225236
    24420.024400       0.218238
    24479.804200       0.211257
    24539.877300       0.204297
    24600.246000       0.197359
    24660.912500       0.190448
    24721.878900       0.183565
    24783.147500       0.176715
    24844.720500       0.169900
    24906.600200       0.163123
    24968.789000       0.156388
    25031.289100       0.149698
    25094.102900       0.143056
    25157.232700       0.136466
    25220.681000       0.129932
    25284.450100       0.123456
    25348.542500       0.117043
    25412.960600       0.110696
    25477.707000       0.104419
