7,   7, MVIRI VIS channel from srf_MET7_1998168_1998169_1801-Release_S10EE_10.dat
Number of data points:
793
Wavenumber (cm-1)   Filter response
     8442.380800       0.000000
     8449.514200       0.000000
     8456.659600       0.000004
     8463.817200       0.000052
     8470.986900       0.000153
     8478.168700       0.000305
     8485.362700       0.000508
     8492.569000       0.000760
     8499.787500       0.001059
     8507.018300       0.001404
     8514.261400       0.001794
     8521.516800       0.002228
     8528.784600       0.002703
     8536.064900       0.003220
     8543.357500       0.003776
     8550.662700       0.004372
     8557.980300       0.005005
     8565.310500       0.005675
     8572.653200       0.006382
     8580.008600       0.007122
     8587.376600       0.007898
     8594.757200       0.008706
     8602.150500       0.009546
     8609.556600       0.010419
     8616.975400       0.011322
     8624.407100       0.012255
     8631.851500       0.013217
     8639.308900       0.014209
     8646.779100       0.015228
     8654.262200       0.016275
     8661.758300       0.017350
     8669.267400       0.018450
     8676.789600       0.019577
     8684.324800       0.020729
     8691.873100       0.021905
     8699.434500       0.023107
     8707.009100       0.024333
     8714.596900       0.025582
     8722.198000       0.026855
     8729.812300       0.028151
     8737.439900       0.029469
     8745.080900       0.030810
     8752.735200       0.032173
     8760.403000       0.033558
     8768.084200       0.034965
     8775.778900       0.036393
     8783.487000       0.037842
     8791.208800       0.039313
     8798.944100       0.040804
     8806.693100       0.042315
     8814.455700       0.043848
     8822.232000       0.045400
     8830.022100       0.046973
     8837.825900       0.048566
     8845.643500       0.050180
     8853.475000       0.051813
     8861.320300       0.053466
     8869.179600       0.055139
     8877.052800       0.056832
     8884.940000       0.058545
     8892.841300       0.060277
     8900.756600       0.062030
     8908.686000       0.063802
     8916.629500       0.065594
     8924.587200       0.067406
     8932.559200       0.069237
     8940.545400       0.071088
     8948.545900       0.072960
     8956.560700       0.074851
     8964.589900       0.076762
     8972.633500       0.078693
     8980.691500       0.080644
     8988.764000       0.082616
     8996.851100       0.084607
     9004.952700       0.086619
     9013.068900       0.088651
     9021.199800       0.090704
     9029.345400       0.092777
     9037.505600       0.094871
     9045.680700       0.096985
     9053.870500       0.099120
     9062.075200       0.101276
     9070.294800       0.103454
     9078.529300       0.105652
     9086.778700       0.107871
     9095.043200       0.110112
     9103.322700       0.112373
     9111.617300       0.114657
     9119.927000       0.116961
     9128.251900       0.119288
     9136.592100       0.121636
     9144.947400       0.124006
     9153.318100       0.126398
     9161.704100       0.128812
     9170.105500       0.131248
     9178.522300       0.133707
     9186.954500       0.136187
     9195.402300       0.138691
     9203.865600       0.141216
     9212.344500       0.143764
     9220.839100       0.146335
     9229.349300       0.148928
     9237.875300       0.151544
     9246.417000       0.154183
     9254.974500       0.156845
     9263.547900       0.159530
     9272.137200       0.162237
     9280.742500       0.164968
     9289.363700       0.167722
     9298.000900       0.170500
     9306.654300       0.173300
     9315.323700       0.176124
     9324.009300       0.178971
     9332.711200       0.181841
     9341.429200       0.184735
     9350.163600       0.187652
     9358.914400       0.190592
     9367.681500       0.193556
     9376.465100       0.196544
     9385.265100       0.199554
     9394.081700       0.202588
     9402.914900       0.205646
     9411.764700       0.208727
     9420.631200       0.211831
     9429.514400       0.214958
     9438.414300       0.218109
     9447.331100       0.221283
     9456.264800       0.224481
     9465.215300       0.227701
     9474.182900       0.230944
     9483.167400       0.234211
     9492.169000       0.237500
     9501.187600       0.240813
     9510.223500       0.244149
     9519.276500       0.247506
     9528.346800       0.250887
     9537.434400       0.254291
     9546.539400       0.257716
     9555.661700       0.261164
     9564.801500       0.264634
     9573.958800       0.268127
     9583.133700       0.271641
     9592.326100       0.275177
     9601.536200       0.278735
     9610.764100       0.282314
     9620.009600       0.285915
     9629.273000       0.289537
     9638.554200       0.293180
     9647.853400       0.296845
     9657.170400       0.300529
     9666.505600       0.304235
     9675.858700       0.307960
     9685.230000       0.311706
     9694.619500       0.315472
     9704.027200       0.319257
     9713.453100       0.323062
     9722.897400       0.326887
     9732.360100       0.330730
     9741.841200       0.334593
     9751.340800       0.338473
     9760.859000       0.342373
     9770.395700       0.346291
     9779.951100       0.350226
     9789.525200       0.354179
     9799.118100       0.358150
     9808.729800       0.362137
     9818.360300       0.366141
     9828.009800       0.370162
     9837.678300       0.374199
     9847.365800       0.378252
     9857.072400       0.382321
     9866.798200       0.386405
     9876.543200       0.390504
     9886.307500       0.394618
     9896.091000       0.398747
     9905.894000       0.402889
     9915.716400       0.407045
     9925.558300       0.411215
     9935.419800       0.415398
     9945.300800       0.419593
     9955.201600       0.423801
     9965.122100       0.428021
     9975.062300       0.432253
     9985.022500       0.436496
     9995.002500       0.440751
    10005.002500       0.445015
    10015.022500       0.449290
    10025.062700       0.453575
    10035.122900       0.457870
    10045.203400       0.462173
    10055.304200       0.466486
    10065.425300       0.470807
    10075.566800       0.475136
    10085.728700       0.479472
    10095.911200       0.483816
    10106.114200       0.488166
    10116.337900       0.492523
    10126.582300       0.496885
    10136.847400       0.501253
    10147.133400       0.505627
    10157.440300       0.510005
    10167.768200       0.514387
    10178.117000       0.518774
    10188.487000       0.523163
    10198.878100       0.527556
    10209.290500       0.531952
    10219.724100       0.536349
    10230.179000       0.540749
    10240.655400       0.545149
    10251.153300       0.549551
    10261.672700       0.553953
    10272.213700       0.558355
    10282.776300       0.562756
    10293.360800       0.567157
    10303.967000       0.571557
    10314.595200       0.575954
    10325.245200       0.580350
    10335.917300       0.584743
    10346.611500       0.589132
    10357.327800       0.593518
    10368.066400       0.597900
    10378.827200       0.602278
    10389.610400       0.606651
    10400.416000       0.611018
    10411.244100       0.615380
    10422.094800       0.619735
    10432.968200       0.624084
    10443.864200       0.628425
    10454.783100       0.632759
    10465.724800       0.637085
    10476.689400       0.641402
    10487.677000       0.645711
    10498.687700       0.650010
    10509.721500       0.654299
    10520.778500       0.658577
    10531.858900       0.662845
    10542.962600       0.667103
    10554.089700       0.671348
    10565.240400       0.675581
    10576.414600       0.679801
    10587.612500       0.684009
    10598.834100       0.688204
    10610.079600       0.692384
    10621.348900       0.696550
    10632.642200       0.700701
    10643.959600       0.704838
    10655.301000       0.708959
    10666.666700       0.713063
    10678.056600       0.717152
    10689.470900       0.721223
    10700.909600       0.725277
    10712.372800       0.729314
    10723.860600       0.733332
    10735.373100       0.737332
    10746.910300       0.741313
    10758.472300       0.745274
    10770.059200       0.749216
    10781.671200       0.753137
    10793.308100       0.757038
    10804.970300       0.760919
    10816.657700       0.764777
    10828.370300       0.768614
    10840.108400       0.772429
    10851.871900       0.776221
    10863.661100       0.779991
    10875.475800       0.783737
    10887.316300       0.787460
    10899.182600       0.791158
    10911.074700       0.794832
    10922.992900       0.798482
    10934.937100       0.802106
    10946.907500       0.805704
    10958.904100       0.809277
    10970.927000       0.812824
    10982.976400       0.816345
    10995.052200       0.819838
    11007.154700       0.823304
    11019.283700       0.826743
    11031.439600       0.830154
    11043.622300       0.833537
    11055.832000       0.836892
    11068.068600       0.840217
    11080.332400       0.843514
    11092.623400       0.846781
    11104.941700       0.850019
    11117.287400       0.853226
    11129.660500       0.856404
    11142.061300       0.859551
    11154.489700       0.862667
    11166.945800       0.865752
    11179.429800       0.868806
    11191.941800       0.871828
    11204.481800       0.874818
    11217.049900       0.877777
    11229.646300       0.880703
    11242.270900       0.883596
    11254.924000       0.886457
    11267.605600       0.889284
    11280.315800       0.892079
    11293.054800       0.894840
    11305.822500       0.897567
    11318.619100       0.900261
    11331.444800       0.902920
    11344.299500       0.905545
    11357.183400       0.908136
    11370.096600       0.910692
    11383.039300       0.913214
    11396.011400       0.915700
    11409.013100       0.918152
    11422.044500       0.920568
    11435.105800       0.922949
    11448.196900       0.925294
    11461.318100       0.927603
    11474.469300       0.929877
    11487.650800       0.932115
    11500.862600       0.934317
    11514.104800       0.936483
    11527.377500       0.938612
    11540.680900       0.940705
    11554.015000       0.942762
    11567.380000       0.944782
    11580.775900       0.946766
    11594.202900       0.948712
    11607.661100       0.950623
    11621.150500       0.952496
    11634.671300       0.954333
    11648.223600       0.956132
    11661.807600       0.957895
    11675.423200       0.959621
    11689.070700       0.961309
    11702.750100       0.962961
    11716.461600       0.964576
    11730.205300       0.966154
    11743.981200       0.967695
    11757.789500       0.969198
    11771.630400       0.970665
    11785.503800       0.972095
    11799.410000       0.973488
    11813.349100       0.974844
    11827.321100       0.976163
    11841.326200       0.977445
    11855.364600       0.978690
    11869.436200       0.979899
    11883.541300       0.981071
    11897.680000       0.982206
    11911.852300       0.983305
    11926.058400       0.984368
    11940.298500       0.985394
    11954.572600       0.986384
    11968.880900       0.987338
    11983.223500       0.988256
    11997.600500       0.989138
    12012.012000       0.989984
    12026.458200       0.990794
    12040.939200       0.991570
    12055.455100       0.992309
    12070.006000       0.993014
    12084.592100       0.993683
    12099.213600       0.994318
    12113.870400       0.994917
    12128.562800       0.995483
    12143.290800       0.996013
    12158.054700       0.996510
    12172.854500       0.996973
    12187.690400       0.997402
    12202.562500       0.997797
    12217.471000       0.998159
    12232.415900       0.998487
    12247.397400       0.998783
    12262.415700       0.999046
    12277.470800       0.999276
    12292.563000       0.999475
    12307.692300       0.999641
    12322.858900       0.999775
    12338.062900       0.999878
    12353.304500       0.999950
    12368.583800       0.999990
    12383.900900       1.000000
    12399.256000       0.999979
    12414.649300       0.999929
    12430.080800       0.999848
    12445.550700       0.999738
    12461.059200       0.999598
    12476.606400       0.999430
    12492.192400       0.999232
    12507.817400       0.999007
    12523.481500       0.998753
    12539.185000       0.998472
    12554.927800       0.998163
    12570.710200       0.997827
    12586.532400       0.997464
    12602.394500       0.997075
    12618.296500       0.996660
    12634.238800       0.996219
    12650.221400       0.995753
    12666.244500       0.995261
    12682.308200       0.994745
    12698.412700       0.994205
    12714.558200       0.993641
    12730.744700       0.993053
    12746.972600       0.992442
    12763.241900       0.991808
    12779.552700       0.991152
    12795.905300       0.990473
    12812.299800       0.989773
    12828.736400       0.989052
    12845.215200       0.988310
    12861.736300       0.987547
    12878.300100       0.986765
    12894.906500       0.985962
    12911.555800       0.985141
    12928.248200       0.984300
    12944.983800       0.983441
    12961.762800       0.982565
    12978.585300       0.981670
    12995.451600       0.980758
    13012.361700       0.979830
    13029.316000       0.978885
    13046.314400       0.977925
    13063.357300       0.976949
    13080.444700       0.975958
    13097.576900       0.974952
    13114.754100       0.973932
    13131.976400       0.972898
    13149.243900       0.971852
    13166.556900       0.970792
    13183.915600       0.969720
    13201.320100       0.968636
    13218.770700       0.967540
    13236.267400       0.966433
    13253.810500       0.965316
    13271.400100       0.964189
    13289.036500       0.963051
    13306.719900       0.961905
    13324.450400       0.960750
    13342.228200       0.959586
    13360.053400       0.958414
    13377.926400       0.957235
    13395.847300       0.956049
    13413.816200       0.954857
    13431.833400       0.953658
    13449.899100       0.952454
    13468.013500       0.951244
    13486.176700       0.950030
    13504.388900       0.948811
    13522.650400       0.947588
    13540.961400       0.946362
    13559.322000       0.945134
    13577.732500       0.943902
    13596.193100       0.942669
    13614.703900       0.941434
    13633.265200       0.940197
    13651.877100       0.938960
    13670.540000       0.937723
    13689.253900       0.936486
    13708.019200       0.935249
    13726.836000       0.934014
    13745.704500       0.932780
    13764.624900       0.931547
    13783.597500       0.930318
    13802.622500       0.929091
    13821.700100       0.927867
    13840.830400       0.926646
    13860.013900       0.925430
    13879.250500       0.924218
    13898.540700       0.923011
    13917.884500       0.921810
    13937.282200       0.920613
    13956.734100       0.919423
    13976.240400       0.918240
    13995.801300       0.917064
    14015.417000       0.915894
    14035.087700       0.914733
    14054.813800       0.913579
    14074.595400       0.912434
    14094.432700       0.911298
    14114.326000       0.910171
    14134.275600       0.909054
    14154.281700       0.907946
    14174.344400       0.906849
    14194.464200       0.905763
    14214.641100       0.904687
    14234.875400       0.903623
    14255.167500       0.902571
    14275.517500       0.901531
    14295.925700       0.900504
    14316.392300       0.899489
    14336.917600       0.898487
    14357.501800       0.897498
    14378.145200       0.896524
    14398.848100       0.895563
    14419.610700       0.894617
    14440.433200       0.893685
    14461.316000       0.892768
    14482.259200       0.891867
    14503.263200       0.890981
    14524.328200       0.890111
    14545.454500       0.889257
    14566.642400       0.888419
    14587.892000       0.887597
    14609.203800       0.886793
    14630.577900       0.886005
    14652.014700       0.885235
    14673.514300       0.884483
    14695.077100       0.883748
    14716.703500       0.883031
    14738.393500       0.882332
    14760.147600       0.881652
    14781.966000       0.880990
    14803.849000       0.880347
    14825.796900       0.879723
    14847.809900       0.879118
    14869.888500       0.878533
    14892.032800       0.877966
    14914.243100       0.877420
    14936.519800       0.876893
    14958.863100       0.876386
    14981.273400       0.875899
    15003.750900       0.875432
    15026.296000       0.874985
    15048.909000       0.874558
    15071.590100       0.874152
    15094.339600       0.873766
    15117.158000       0.873401
    15140.045400       0.873057
    15163.002300       0.872733
    15186.028900       0.872430
    15209.125500       0.872147
    15232.292500       0.871886
    15255.530100       0.871645
    15278.838800       0.871425
    15302.218800       0.871226
    15325.670500       0.871047
    15349.194200       0.870890
    15372.790200       0.870753
    15396.458800       0.870637
    15420.200500       0.870541
    15444.015400       0.870466
    15467.904100       0.870412
    15491.866800       0.870378
    15515.903800       0.870365
    15540.015500       0.870372
    15564.202300       0.870399
    15588.464500       0.870447
    15612.802500       0.870514
    15637.216600       0.870601
    15661.707100       0.870708
    15686.274500       0.870834
    15710.919100       0.870980
    15735.641200       0.871145
    15760.441300       0.871329
    15785.319700       0.871531
    15810.276700       0.871753
    15835.312700       0.871993
    15860.428200       0.872251
    15885.623500       0.872527
    15910.899000       0.872820
    15936.255000       0.873132
    15961.691900       0.873460
    15987.210200       0.873805
    16012.810200       0.874167
    16038.492400       0.874545
    16064.257000       0.874940
    16090.104600       0.875349
    16116.035500       0.875775
    16142.050000       0.876215
    16168.148700       0.876670
    16194.332000       0.877140
    16220.600200       0.877623
    16246.953700       0.878120
    16273.393000       0.878630
    16299.918500       0.879153
    16326.530600       0.879688
    16353.229800       0.880235
    16380.016400       0.880794
    16406.890900       0.881363
    16433.853700       0.881944
    16460.905300       0.882534
    16488.046200       0.883134
    16515.276600       0.883743
    16542.597200       0.884361
    16570.008300       0.884988
    16597.510400       0.885621
    16625.103900       0.886262
    16652.789300       0.886910
    16680.567100       0.887564
    16708.437800       0.888223
    16736.401700       0.888887
    16764.459300       0.889555
    16792.611300       0.890228
    16820.857900       0.890903
    16849.199700       0.891581
    16877.637100       0.892261
    16906.170800       0.892942
    16934.801000       0.893624
    16963.528400       0.894306
    16992.353400       0.894987
    17021.276600       0.895667
    17050.298400       0.896346
    17079.419300       0.897021
    17108.639900       0.897693
    17137.960600       0.898362
    17167.382000       0.899025
    17196.904600       0.899683
    17226.528900       0.900335
    17256.255400       0.900980
    17286.084700       0.901618
    17316.017300       0.902247
    17346.053800       0.902866
    17376.194600       0.903476
    17406.440400       0.904076
    17436.791600       0.904663
    17467.248900       0.905239
    17497.812800       0.905801
    17528.483800       0.906350
    17559.262500       0.906884
    17590.149500       0.907402
    17621.145400       0.907904
    17652.250700       0.908389
    17683.466000       0.908856
    17714.791900       0.909304
    17746.228900       0.909733
    17777.777800       0.910141
    17809.439000       0.910527
    17841.213200       0.910891
    17873.101000       0.911232
    17905.103000       0.911549
    17937.219700       0.911841
    17969.451900       0.912108
    18001.800200       0.912347
    18034.265100       0.912559
    18066.847300       0.912742
    18099.547500       0.912896
    18132.366300       0.913020
    18165.304300       0.913112
    18198.362100       0.913172
    18231.540600       0.913200
    18264.840200       0.913193
    18298.261700       0.913151
    18331.805700       0.913073
    18365.472900       0.912958
    18399.264000       0.912806
    18433.179700       0.912615
    18467.220700       0.912384
    18501.387600       0.912113
    18535.681200       0.911800
    18570.102100       0.911444
    18604.651200       0.911046
    18639.329000       0.910603
    18674.136300       0.910114
    18709.073900       0.909580
    18744.142500       0.908998
    18779.342700       0.908368
    18814.675400       0.907689
    18850.141400       0.906960
    18885.741300       0.906180
    18921.475900       0.905348
    18957.346000       0.904464
    18993.352300       0.903526
    19029.495700       0.902533
    19065.776900       0.901484
    19102.196800       0.900379
    19138.756000       0.899217
    19175.455400       0.897996
    19212.295900       0.896716
    19249.278200       0.895377
    19286.403100       0.893976
    19323.671500       0.892513
    19361.084200       0.890987
    19398.642100       0.889398
    19436.346000       0.887745
    19474.196700       0.886026
    19512.195100       0.884240
    19550.342100       0.882388
    19588.638600       0.880468
    19627.085400       0.878480
    19665.683400       0.876422
    19704.433500       0.874293
    19743.336600       0.872094
    19782.393700       0.869822
    19821.605600       0.867478
    19860.973200       0.865061
    19900.497500       0.862570
    19940.179500       0.860004
    19980.020000       0.857362
    20020.020000       0.854644
    20060.180500       0.851849
    20100.502500       0.848977
    20140.986900       0.846026
    20181.634700       0.842997
    20222.446900       0.839888
    20263.424500       0.836699
    20304.568500       0.833429
    20345.880000       0.830078
    20387.359800       0.826646
    20429.009200       0.823131
    20470.829100       0.819533
    20512.820500       0.815852
    20554.984600       0.812087
    20597.322300       0.808238
    20639.834900       0.804304
    20682.523300       0.800286
    20725.388600       0.796182
    20768.432000       0.791992
    20811.654500       0.787716
    20855.057400       0.783354
    20898.641600       0.778905
    20942.408400       0.774369
    20986.358900       0.769746
    21030.494200       0.765036
    21074.815600       0.760238
    21119.324200       0.755353
    21164.021200       0.750380
    21208.907700       0.745319
    21253.985100       0.740171
    21299.254500       0.734935
    21344.717200       0.729610
    21390.374300       0.724199
    21436.227200       0.718699
    21482.277100       0.713112
    21528.525300       0.707438
    21574.973000       0.701676
    21621.621600       0.695828
    21668.472400       0.689893
    21715.526600       0.683872
    21762.785600       0.677764
    21810.250800       0.671571
    21857.923500       0.665293
    21905.805000       0.658930
    21953.896800       0.652483
    22002.200200       0.645953
    22050.716600       0.639339
    22099.447500       0.632643
    22148.394200       0.625866
    22197.558300       0.619008
    22246.941000       0.612069
    22296.544000       0.605051
    22346.368700       0.597955
    22396.416600       0.590782
    22446.689100       0.583531
    22497.187900       0.576206
    22547.914300       0.568806
    22598.870100       0.561333
    22650.056600       0.553788
    22701.475600       0.546173
    22753.128600       0.538488
    22805.017100       0.530735
    22857.142900       0.522915
    22909.507400       0.515031
    22962.112500       0.507082
    23014.959700       0.499072
    23068.050700       0.491002
    23121.387300       0.482873
    23174.971000       0.474687
    23228.803700       0.466447
    23282.887100       0.458154
    23337.222900       0.449809
    23391.812900       0.441416
    23446.658900       0.432976
    23501.762600       0.424492
    23557.126000       0.415966
    23612.750900       0.407400
    23668.639100       0.398796
    23724.792400       0.390157
    23781.212800       0.381487
    23837.902300       0.372786
    23894.862600       0.364059
    23952.095800       0.355307
    24009.603800       0.346535
    24067.388700       0.337744
    24125.452400       0.328938
    24183.796900       0.320120
    24242.424200       0.311292
    24301.336600       0.302460
    24360.535900       0.293626
    24420.024400       0.284793
    24479.804200       0.275965
    24539.877300       0.267145
    24600.246000       0.258339
    24660.912500       0.249548
    24721.878900       0.240778
    24783.147500       0.232032
    24844.720500       0.223315
    24906.600200       0.214630
    24968.789000       0.205982
    25031.289100       0.197377
    25094.102900       0.188817
    25157.232700       0.180307
    25220.681000       0.171854
    25284.450100       0.163461
    25348.542500       0.155133
    25412.960600       0.146875
    25477.707000       0.138694
