1,   1, MVIRI VIS channel from srf_MET3_1988348_1988349_1801-Release_S10EE_10.dat
Number of data points:
743
Wavenumber (cm-1)   Filter response
     8814.455700       0.000000
     8822.232000       0.000000
     8830.022100       0.000695
     8837.825900       0.002917
     8845.643500       0.005157
     8853.475000       0.007416
     8861.320300       0.009693
     8869.179600       0.011985
     8877.052800       0.014292
     8884.940000       0.016613
     8892.841300       0.018947
     8900.756600       0.021293
     8908.686000       0.023650
     8916.629500       0.026017
     8924.587200       0.028395
     8932.559200       0.030781
     8940.545400       0.033176
     8948.545900       0.035578
     8956.560700       0.037988
     8964.589900       0.040404
     8972.633500       0.042826
     8980.691500       0.045255
     8988.764000       0.047688
     8996.851100       0.050126
     9004.952700       0.052569
     9013.068900       0.055016
     9021.199800       0.057467
     9029.345400       0.059923
     9037.505600       0.062381
     9045.680700       0.064843
     9053.870500       0.067308
     9062.075200       0.069777
     9070.294800       0.072248
     9078.529300       0.074723
     9086.778700       0.077200
     9095.043200       0.079681
     9103.322700       0.082164
     9111.617300       0.084650
     9119.927000       0.087139
     9128.251900       0.089631
     9136.592100       0.092127
     9144.947400       0.094625
     9153.318100       0.097127
     9161.704100       0.099632
     9170.105500       0.102141
     9178.522300       0.104653
     9186.954500       0.107169
     9195.402300       0.109690
     9203.865600       0.112215
     9212.344500       0.114744
     9220.839100       0.117278
     9229.349300       0.119817
     9237.875300       0.122361
     9246.417000       0.124911
     9254.974500       0.127466
     9263.547900       0.130027
     9272.137200       0.132595
     9280.742500       0.135168
     9289.363700       0.137749
     9298.000900       0.140337
     9306.654300       0.142932
     9315.323700       0.145534
     9324.009300       0.148144
     9332.711200       0.150763
     9341.429200       0.153390
     9350.163600       0.156026
     9358.914400       0.158671
     9367.681500       0.161325
     9376.465100       0.163989
     9385.265100       0.166663
     9394.081700       0.169347
     9402.914900       0.172042
     9411.764700       0.174748
     9420.631200       0.177465
     9429.514400       0.180193
     9438.414300       0.182933
     9447.331100       0.185685
     9456.264800       0.188450
     9465.215300       0.191227
     9474.182900       0.194017
     9483.167400       0.196820
     9492.169000       0.199636
     9501.187600       0.202467
     9510.223500       0.205311
     9519.276500       0.208169
     9528.346800       0.211042
     9537.434400       0.213930
     9546.539400       0.216833
     9555.661700       0.219750
     9564.801500       0.222683
     9573.958800       0.225632
     9583.133700       0.228597
     9592.326100       0.231577
     9601.536200       0.234574
     9610.764100       0.237587
     9620.009600       0.240617
     9629.273000       0.243664
     9638.554200       0.246727
     9647.853400       0.249808
     9657.170400       0.252905
     9666.505600       0.256021
     9675.858700       0.259154
     9685.230000       0.262304
     9694.619500       0.265472
     9704.027200       0.268658
     9713.453100       0.271862
     9722.897400       0.275085
     9732.360100       0.278325
     9741.841200       0.281583
     9751.340800       0.284860
     9760.859000       0.288155
     9770.395700       0.291469
     9779.951100       0.294801
     9789.525200       0.298152
     9799.118100       0.301521
     9808.729800       0.304908
     9818.360300       0.308314
     9828.009800       0.311739
     9837.678300       0.315182
     9847.365800       0.318644
     9857.072400       0.322123
     9866.798200       0.325622
     9876.543200       0.329138
     9886.307500       0.332674
     9896.091000       0.336227
     9905.894000       0.339798
     9915.716400       0.343388
     9925.558300       0.346995
     9935.419800       0.350620
     9945.300800       0.354264
     9955.201600       0.357924
     9965.122100       0.361602
     9975.062300       0.365298
     9985.022500       0.369011
     9995.002500       0.372741
    10005.002500       0.376487
    10015.022500       0.380251
    10025.062700       0.384030
    10035.122900       0.387827
    10045.203400       0.391639
    10055.304200       0.395468
    10065.425300       0.399312
    10075.566800       0.403172
    10085.728700       0.407046
    10095.911200       0.410937
    10106.114200       0.414842
    10116.337900       0.418761
    10126.582300       0.422695
    10136.847400       0.426643
    10147.133400       0.430604
    10157.440300       0.434579
    10167.768200       0.438568
    10178.117000       0.442569
    10188.487000       0.446583
    10198.878100       0.450609
    10209.290500       0.454647
    10219.724100       0.458697
    10230.179000       0.462759
    10240.655400       0.466831
    10251.153300       0.470914
    10261.672700       0.475008
    10272.213700       0.479111
    10282.776300       0.483224
    10293.360800       0.487347
    10303.967000       0.491478
    10314.595200       0.495618
    10325.245200       0.499767
    10335.917300       0.503923
    10346.611500       0.508086
    10357.327800       0.512257
    10368.066400       0.516434
    10378.827200       0.520618
    10389.610400       0.524808
    10400.416000       0.529003
    10411.244100       0.533203
    10422.094800       0.537408
    10432.968200       0.541617
    10443.864200       0.545830
    10454.783100       0.550046
    10465.724800       0.554266
    10476.689400       0.558487
    10487.677000       0.562712
    10498.687700       0.566938
    10509.721500       0.571165
    10520.778500       0.575393
    10531.858900       0.579621
    10542.962600       0.583850
    10554.089700       0.588077
    10565.240400       0.592304
    10576.414600       0.596530
    10587.612500       0.600754
    10598.834100       0.604976
    10610.079600       0.609195
    10621.348900       0.613410
    10632.642200       0.617622
    10643.959600       0.621831
    10655.301000       0.626034
    10666.666700       0.630233
    10678.056600       0.634426
    10689.470900       0.638613
    10700.909600       0.642794
    10712.372800       0.646969
    10723.860600       0.651136
    10735.373100       0.655295
    10746.910300       0.659446
    10758.472300       0.663589
    10770.059200       0.667722
    10781.671200       0.671846
    10793.308100       0.675960
    10804.970300       0.680064
    10816.657700       0.684156
    10828.370300       0.688238
    10840.108400       0.692307
    10851.871900       0.696365
    10863.661100       0.700410
    10875.475800       0.704441
    10887.316300       0.708459
    10899.182600       0.712464
    10911.074700       0.716454
    10922.992900       0.720429
    10934.937100       0.724388
    10946.907500       0.728332
    10958.904100       0.732260
    10970.927000       0.736171
    10982.976400       0.740066
    10995.052200       0.743942
    11007.154700       0.747801
    11019.283700       0.751642
    11031.439600       0.755465
    11043.622300       0.759268
    11055.832000       0.763051
    11068.068600       0.766815
    11080.332400       0.770559
    11092.623400       0.774282
    11104.941700       0.777983
    11117.287400       0.781664
    11129.660500       0.785323
    11142.061300       0.788959
    11154.489700       0.792573
    11166.945800       0.796164
    11179.429800       0.799732
    11191.941800       0.803276
    11204.481800       0.806796
    11217.049900       0.810291
    11229.646300       0.813762
    11242.270900       0.817208
    11254.924000       0.820629
    11267.605600       0.824023
    11280.315800       0.827392
    11293.054800       0.830734
    11305.822500       0.834049
    11318.619100       0.837338
    11331.444800       0.840599
    11344.299500       0.843832
    11357.183400       0.847038
    11370.096600       0.850215
    11383.039300       0.853364
    11396.011400       0.856484
    11409.013100       0.859575
    11422.044500       0.862636
    11435.105800       0.865668
    11448.196900       0.868670
    11461.318100       0.871641
    11474.469300       0.874582
    11487.650800       0.877493
    11500.862600       0.880373
    11514.104800       0.883221
    11527.377500       0.886038
    11540.680900       0.888824
    11554.015000       0.891577
    11567.380000       0.894299
    11580.775900       0.896988
    11594.202900       0.899645
    11607.661100       0.902269
    11621.150500       0.904861
    11634.671300       0.907419
    11648.223600       0.909944
    11661.807600       0.912436
    11675.423200       0.914894
    11689.070700       0.917319
    11702.750100       0.919709
    11716.461600       0.922066
    11730.205300       0.924389
    11743.981200       0.926677
    11757.789500       0.928931
    11771.630400       0.931150
    11785.503800       0.933335
    11799.410000       0.935484
    11813.349100       0.937599
    11827.321100       0.939679
    11841.326200       0.941724
    11855.364600       0.943734
    11869.436200       0.945708
    11883.541300       0.947647
    11897.680000       0.949551
    11911.852300       0.951419
    11926.058400       0.953252
    11940.298500       0.955049
    11954.572600       0.956810
    11968.880900       0.958536
    11983.223500       0.960226
    11997.600500       0.961880
    12012.012000       0.963499
    12026.458200       0.965082
    12040.939200       0.966629
    12055.455100       0.968140
    12070.006000       0.969615
    12084.592100       0.971054
    12099.213600       0.972458
    12113.870400       0.973826
    12128.562800       0.975158
    12143.290800       0.976455
    12158.054700       0.977715
    12172.854500       0.978940
    12187.690400       0.980129
    12202.562500       0.981283
    12217.471000       0.982401
    12232.415900       0.983484
    12247.397400       0.984531
    12262.415700       0.985543
    12277.470800       0.986520
    12292.563000       0.987462
    12307.692300       0.988368
    12322.858900       0.989239
    12338.062900       0.990076
    12353.304500       0.990877
    12368.583800       0.991644
    12383.900900       0.992376
    12399.256000       0.993074
    12414.649300       0.993737
    12430.080800       0.994366
    12445.550700       0.994961
    12461.059200       0.995522
    12476.606400       0.996049
    12492.192400       0.996542
    12507.817400       0.997002
    12523.481500       0.997428
    12539.185000       0.997821
    12554.927800       0.998181
    12570.710200       0.998508
    12586.532400       0.998802
    12602.394500       0.999063
    12618.296500       0.999292
    12634.238800       0.999489
    12650.221400       0.999653
    12666.244500       0.999785
    12682.308200       0.999886
    12698.412700       0.999955
    12714.558200       0.999993
    12730.744700       1.000000
    12746.972600       0.999976
    12763.241900       0.999921
    12779.552700       0.999835
    12795.905300       0.999719
    12812.299800       0.999573
    12828.736400       0.999397
    12845.215200       0.999192
    12861.736300       0.998956
    12878.300100       0.998692
    12894.906500       0.998399
    12911.555800       0.998077
    12928.248200       0.997726
    12944.983800       0.997347
    12961.762800       0.996940
    12978.585300       0.996505
    12995.451600       0.996043
    13012.361700       0.995553
    13029.316000       0.995036
    13046.314400       0.994492
    13063.357300       0.993922
    13080.444700       0.993325
    13097.576900       0.992702
    13114.754100       0.992053
    13131.976400       0.991379
    13149.243900       0.990679
    13166.556900       0.989955
    13183.915600       0.989205
    13201.320100       0.988431
    13218.770700       0.987633
    13236.267400       0.986811
    13253.810500       0.985965
    13271.400100       0.985095
    13289.036500       0.984203
    13306.719900       0.983287
    13324.450400       0.982349
    13342.228200       0.981388
    13360.053400       0.980405
    13377.926400       0.979401
    13395.847300       0.978374
    13413.816200       0.977327
    13431.833400       0.976258
    13449.899100       0.975169
    13468.013500       0.974059
    13486.176700       0.972929
    13504.388900       0.971779
    13522.650400       0.970610
    13540.961400       0.969421
    13559.322000       0.968213
    13577.732500       0.966986
    13596.193100       0.965740
    13614.703900       0.964476
    13633.265200       0.963194
    13651.877100       0.961895
    13670.540000       0.960578
    13689.253900       0.959243
    13708.019200       0.957892
    13726.836000       0.956524
    13745.704500       0.955140
    13764.624900       0.953739
    13783.597500       0.952323
    13802.622500       0.950891
    13821.700100       0.949444
    13840.830400       0.947981
    13860.013900       0.946504
    13879.250500       0.945012
    13898.540700       0.943506
    13917.884500       0.941985
    13937.282200       0.940451
    13956.734100       0.938904
    13976.240400       0.937343
    13995.801300       0.935769
    14015.417000       0.934182
    14035.087700       0.932583
    14054.813800       0.930971
    14074.595400       0.929347
    14094.432700       0.927712
    14114.326000       0.926064
    14134.275600       0.924406
    14154.281700       0.922736
    14174.344400       0.921055
    14194.464200       0.919364
    14214.641100       0.917662
    14234.875400       0.915950
    14255.167500       0.914228
    14275.517500       0.912496
    14295.925700       0.910755
    14316.392300       0.909004
    14336.917600       0.907244
    14357.501800       0.905475
    14378.145200       0.903698
    14398.848100       0.901912
    14419.610700       0.900117
    14440.433200       0.898314
    14461.316000       0.896504
    14482.259200       0.894685
    14503.263200       0.892859
    14524.328200       0.891026
    14545.454500       0.889186
    14566.642400       0.887338
    14587.892000       0.885484
    14609.203800       0.883622
    14630.577900       0.881755
    14652.014700       0.879881
    14673.514300       0.878001
    14695.077100       0.876114
    14716.703500       0.874222
    14738.393500       0.872324
    14760.147600       0.870421
    14781.966000       0.868512
    14803.849000       0.866598
    14825.796900       0.864679
    14847.809900       0.862754
    14869.888500       0.860825
    14892.032800       0.858891
    14914.243100       0.856953
    14936.519800       0.855010
    14958.863100       0.853062
    14981.273400       0.851111
    15003.750900       0.849155
    15026.296000       0.847195
    15048.909000       0.845231
    15071.590100       0.843263
    15094.339600       0.841291
    15117.158000       0.839316
    15140.045400       0.837337
    15163.002300       0.835355
    15186.028900       0.833369
    15209.125500       0.831380
    15232.292500       0.829388
    15255.530100       0.827392
    15278.838800       0.825393
    15302.218800       0.823392
    15325.670500       0.821387
    15349.194200       0.819379
    15372.790200       0.817369
    15396.458800       0.815355
    15420.200500       0.813339
    15444.015400       0.811320
    15467.904100       0.809298
    15491.866800       0.807274
    15515.903800       0.805247
    15540.015500       0.803217
    15564.202300       0.801185
    15588.464500       0.799150
    15612.802500       0.797113
    15637.216600       0.795073
    15661.707100       0.793031
    15686.274500       0.790986
    15710.919100       0.788938
    15735.641200       0.786888
    15760.441300       0.784836
    15785.319700       0.782781
    15810.276700       0.780723
    15835.312700       0.778663
    15860.428200       0.776600
    15885.623500       0.774535
    15910.899000       0.772467
    15936.255000       0.770396
    15961.691900       0.768323
    15987.210200       0.766248
    16012.810200       0.764169
    16038.492400       0.762088
    16064.257000       0.760004
    16090.104600       0.757917
    16116.035500       0.755827
    16142.050000       0.753734
    16168.148700       0.751639
    16194.332000       0.749540
    16220.600200       0.747438
    16246.953700       0.745333
    16273.393000       0.743225
    16299.918500       0.741114
    16326.530600       0.738999
    16353.229800       0.736881
    16380.016400       0.734760
    16406.890900       0.732635
    16433.853700       0.730506
    16460.905300       0.728374
    16488.046200       0.726238
    16515.276600       0.724098
    16542.597200       0.721954
    16570.008300       0.719807
    16597.510400       0.717655
    16625.103900       0.715499
    16652.789300       0.713339
    16680.567100       0.711174
    16708.437800       0.709005
    16736.401700       0.706832
    16764.459300       0.704653
    16792.611300       0.702470
    16820.857900       0.700283
    16849.199700       0.698090
    16877.637100       0.695893
    16906.170800       0.693690
    16934.801000       0.691482
    16963.528400       0.689269
    16992.353400       0.687050
    17021.276600       0.684826
    17050.298400       0.682597
    17079.419300       0.680361
    17108.639900       0.678120
    17137.960600       0.675873
    17167.382000       0.673619
    17196.904600       0.671360
    17226.528900       0.669094
    17256.255400       0.666822
    17286.084700       0.664544
    17316.017300       0.662259
    17346.053800       0.659967
    17376.194600       0.657669
    17406.440400       0.655364
    17436.791600       0.653051
    17467.248900       0.650732
    17497.812800       0.648405
    17528.483800       0.646071
    17559.262500       0.643730
    17590.149500       0.641381
    17621.145400       0.639024
    17652.250700       0.636660
    17683.466000       0.634288
    17714.791900       0.631908
    17746.228900       0.629520
    17777.777800       0.627124
    17809.439000       0.624720
    17841.213200       0.622308
    17873.101000       0.619887
    17905.103000       0.617457
    17937.219700       0.615019
    17969.451900       0.612573
    18001.800200       0.610117
    18034.265100       0.607653
    18066.847300       0.605180
    18099.547500       0.602698
    18132.366300       0.600207
    18165.304300       0.597706
    18198.362100       0.595197
    18231.540600       0.592678
    18264.840200       0.590150
    18298.261700       0.587612
    18331.805700       0.585065
    18365.472900       0.582509
    18399.264000       0.579942
    18433.179700       0.577367
    18467.220700       0.574781
    18501.387600       0.572185
    18535.681200       0.569580
    18570.102100       0.566965
    18604.651200       0.564341
    18639.329000       0.561706
    18674.136300       0.559061
    18709.073900       0.556406
    18744.142500       0.553741
    18779.342700       0.551067
    18814.675400       0.548382
    18850.141400       0.545687
    18885.741300       0.542982
    18921.475900       0.540267
    18957.346000       0.537541
    18993.352300       0.534806
    19029.495700       0.532061
    19065.776900       0.529305
    19102.196800       0.526540
    19138.756000       0.523764
    19175.455400       0.520978
    19212.295900       0.518183
    19249.278200       0.515377
    19286.403100       0.512562
    19323.671500       0.509736
    19361.084200       0.506901
    19398.642100       0.504056
    19436.346000       0.501201
    19474.196700       0.498336
    19512.195100       0.495462
    19550.342100       0.492578
    19588.638600       0.489684
    19627.085400       0.486781
    19665.683400       0.483869
    19704.433500       0.480948
    19743.336600       0.478017
    19782.393700       0.475077
    19821.605600       0.472128
    19860.973200       0.469171
    19900.497500       0.466204
    19940.179500       0.463229
    19980.020000       0.460245
    20020.020000       0.457253
    20060.180500       0.454253
    20100.502500       0.451244
    20140.986900       0.448228
    20181.634700       0.445203
    20222.446900       0.442171
    20263.424500       0.439131
    20304.568500       0.436084
    20345.880000       0.433030
    20387.359800       0.429968
    20429.009200       0.426900
    20470.829100       0.423825
    20512.820500       0.420743
    20554.984600       0.417655
    20597.322300       0.414561
    20639.834900       0.411461
    20682.523300       0.408356
    20725.388600       0.405244
    20768.432000       0.402128
    20811.654500       0.399006
    20855.057400       0.395880
    20898.641600       0.392749
    20942.408400       0.389613
    20986.358900       0.386473
    21030.494200       0.383330
    21074.815600       0.380183
    21119.324200       0.377032
    21164.021200       0.373878
    21208.907700       0.370722
    21253.985100       0.367562
    21299.254500       0.364401
    21344.717200       0.361237
    21390.374300       0.358072
    21436.227200       0.354905
    21482.277100       0.351737
    21528.525300       0.348568
    21574.973000       0.345398
    21621.621600       0.342228
    21668.472400       0.339058
    21715.526600       0.335889
    21762.785600       0.332720
    21810.250800       0.329552
    21857.923500       0.326385
    21905.805000       0.323220
    21953.896800       0.320057
    22002.200200       0.316895
    22050.716600       0.313737
    22099.447500       0.310581
    22148.394200       0.307429
    22197.558300       0.304280
    22246.941000       0.301135
    22296.544000       0.297994
    22346.368700       0.294858
    22396.416600       0.291727
    22446.689100       0.288601
    22497.187900       0.285481
    22547.914300       0.282367
    22598.870100       0.279259
    22650.056600       0.276158
    22701.475600       0.273064
    22753.128600       0.269977
    22805.017100       0.266898
    22857.142900       0.263827
    22909.507400       0.260765
    22962.112500       0.257711
    23014.959700       0.254667
    23068.050700       0.251632
    23121.387300       0.248607
    23174.971000       0.245593
    23228.803700       0.242589
    23282.887100       0.239596
    23337.222900       0.236614
    23391.812900       0.233644
    23446.658900       0.230685
    23501.762600       0.227739
    23557.126000       0.224806
    23612.750900       0.221886
    23668.639100       0.218979
    23724.792400       0.216085
    23781.212800       0.213206
    23837.902300       0.210341
    23894.862600       0.207490
    23952.095800       0.204654
    24009.603800       0.201834
    24067.388700       0.199029
    24125.452400       0.196240
    24183.796900       0.193467
    24242.424200       0.190710
    24301.336600       0.187970
    24360.535900       0.185246
    24420.024400       0.182540
    24479.804200       0.179851
    24539.877300       0.177180
    24600.246000       0.174527
    24660.912500       0.171892
    24721.878900       0.169275
    24783.147500       0.166676
    24844.720500       0.164097
    24906.600200       0.161536
    24968.789000       0.158994
    25031.289100       0.156471
    25094.102900       0.153968
    25157.232700       0.151484
    25220.681000       0.149019
    25284.450100       0.146575
    25348.542500       0.144150
    25412.960600       0.141745
    25477.707000       0.139360
