123,   123, MVIRI VIS channel from srf_MET7_2012348_2012349_1801-Release_S10EE_10.dat
Number of data points:
793
Wavenumber (cm-1)   Filter response
     8442.380800       0.000000
     8449.514200       0.000000
     8456.659600       0.000004
     8463.817200       0.000057
     8470.986900       0.000168
     8478.168700       0.000335
     8485.362700       0.000558
     8492.569000       0.000834
     8499.787500       0.001162
     8507.018300       0.001540
     8514.261400       0.001967
     8521.516800       0.002442
     8528.784600       0.002963
     8536.064900       0.003529
     8543.357500       0.004138
     8550.662700       0.004790
     8557.980300       0.005483
     8565.310500       0.006216
     8572.653200       0.006989
     8580.008600       0.007799
     8587.376600       0.008646
     8594.757200       0.009529
     8602.150500       0.010448
     8609.556600       0.011400
     8616.975400       0.012386
     8624.407100       0.013405
     8631.851500       0.014456
     8639.308900       0.015537
     8646.779100       0.016649
     8654.262200       0.017791
     8661.758300       0.018962
     8669.267400       0.020161
     8676.789600       0.021389
     8684.324800       0.022644
     8691.873100       0.023925
     8699.434500       0.025233
     8707.009100       0.026567
     8714.596900       0.027926
     8722.198000       0.029310
     8729.812300       0.030720
     8737.439900       0.032153
     8745.080900       0.033610
     8752.735200       0.035091
     8760.403000       0.036595
     8768.084200       0.038122
     8775.778900       0.039672
     8783.487000       0.041245
     8791.208800       0.042840
     8798.944100       0.044457
     8806.693100       0.046096
     8814.455700       0.047756
     8822.232000       0.049439
     8830.022100       0.051142
     8837.825900       0.052867
     8845.643500       0.054614
     8853.475000       0.056381
     8861.320300       0.058170
     8869.179600       0.059979
     8877.052800       0.061809
     8884.940000       0.063660
     8892.841300       0.065532
     8900.756600       0.067425
     8908.686000       0.069339
     8916.629500       0.071273
     8924.587200       0.073228
     8932.559200       0.075204
     8940.545400       0.077201
     8948.545900       0.079218
     8956.560700       0.081256
     8964.589900       0.083316
     8972.633500       0.085395
     8980.691500       0.087497
     8988.764000       0.089619
     8996.851100       0.091762
     9004.952700       0.093926
     9013.068900       0.096111
     9021.199800       0.098318
     9029.345400       0.100546
     9037.505600       0.102796
     9045.680700       0.105067
     9053.870500       0.107359
     9062.075200       0.109674
     9070.294800       0.112010
     9078.529300       0.114368
     9086.778700       0.116748
     9095.043200       0.119150
     9103.322700       0.121573
     9111.617300       0.124020
     9119.927000       0.126488
     9128.251900       0.128979
     9136.592100       0.131492
     9144.947400       0.134028
     9153.318100       0.136586
     9161.704100       0.139167
     9170.105500       0.141772
     9178.522300       0.144399
     9186.954500       0.147048
     9195.402300       0.149721
     9203.865600       0.152417
     9212.344500       0.155136
     9220.839100       0.157879
     9229.349300       0.160644
     9237.875300       0.163433
     9246.417000       0.166245
     9254.974500       0.169081
     9263.547900       0.171941
     9272.137200       0.174824
     9280.742500       0.177730
     9289.363700       0.180660
     9298.000900       0.183615
     9306.654300       0.186592
     9315.323700       0.189593
     9324.009300       0.192619
     9332.711200       0.195668
     9341.429200       0.198740
     9350.163600       0.201836
     9358.914400       0.204956
     9367.681500       0.208100
     9376.465100       0.211268
     9385.265100       0.214459
     9394.081700       0.217674
     9402.914900       0.220913
     9411.764700       0.224175
     9420.631200       0.227461
     9429.514400       0.230770
     9438.414300       0.234103
     9447.331100       0.237459
     9456.264800       0.240839
     9465.215300       0.244242
     9474.182900       0.247668
     9483.167400       0.251117
     9492.169000       0.254589
     9501.187600       0.258084
     9510.223500       0.261602
     9519.276500       0.265143
     9528.346800       0.268706
     9537.434400       0.272292
     9546.539400       0.275899
     9555.661700       0.279529
     9564.801500       0.283181
     9573.958800       0.286855
     9583.133700       0.290551
     9592.326100       0.294268
     9601.536200       0.298007
     9610.764100       0.301767
     9620.009600       0.305548
     9629.273000       0.309350
     9638.554200       0.313172
     9647.853400       0.317015
     9657.170400       0.320877
     9666.505600       0.324761
     9675.858700       0.328664
     9685.230000       0.332586
     9694.619500       0.336528
     9704.027200       0.340488
     9713.453100       0.344468
     9722.897400       0.348466
     9732.360100       0.352482
     9741.841200       0.356517
     9751.340800       0.360569
     9760.859000       0.364639
     9770.395700       0.368726
     9779.951100       0.372830
     9789.525200       0.376951
     9799.118100       0.381088
     9808.729800       0.385241
     9818.360300       0.389410
     9828.009800       0.393593
     9837.678300       0.397793
     9847.365800       0.402007
     9857.072400       0.406235
     9866.798200       0.410478
     9876.543200       0.414733
     9886.307500       0.419003
     9896.091000       0.423286
     9905.894000       0.427581
     9915.716400       0.431888
     9925.558300       0.436208
     9935.419800       0.440539
     9945.300800       0.444881
     9955.201600       0.449234
     9965.122100       0.453597
     9975.062300       0.457971
     9985.022500       0.462354
     9995.002500       0.466746
    10005.002500       0.471147
    10015.022500       0.475557
    10025.062700       0.479974
    10035.122900       0.484399
    10045.203400       0.488832
    10055.304200       0.493271
    10065.425300       0.497716
    10075.566800       0.502168
    10085.728700       0.506624
    10095.911200       0.511086
    10106.114200       0.515553
    10116.337900       0.520023
    10126.582300       0.524498
    10136.847400       0.528975
    10147.133400       0.533456
    10157.440300       0.537938
    10167.768200       0.542423
    10178.117000       0.546909
    10188.487000       0.551396
    10198.878100       0.555884
    10209.290500       0.560372
    10219.724100       0.564859
    10230.179000       0.569346
    10240.655400       0.573831
    10251.153300       0.578315
    10261.672700       0.582796
    10272.213700       0.587274
    10282.776300       0.591750
    10293.360800       0.596221
    10303.967000       0.600689
    10314.595200       0.605152
    10325.245200       0.609610
    10335.917300       0.614062
    10346.611500       0.618508
    10357.327800       0.622948
    10368.066400       0.627381
    10378.827200       0.631806
    10389.610400       0.636224
    10400.416000       0.640633
    10411.244100       0.645033
    10422.094800       0.649423
    10432.968200       0.653804
    10443.864200       0.658175
    10454.783100       0.662534
    10465.724800       0.666883
    10476.689400       0.671220
    10487.677000       0.675544
    10498.687700       0.679856
    10509.721500       0.684155
    10520.778500       0.688440
    10531.858900       0.692711
    10542.962600       0.696968
    10554.089700       0.701209
    10565.240400       0.705435
    10576.414600       0.709645
    10587.612500       0.713839
    10598.834100       0.718016
    10610.079600       0.722175
    10621.348900       0.726317
    10632.642200       0.730441
    10643.959600       0.734546
    10655.301000       0.738632
    10666.666700       0.742698
    10678.056600       0.746744
    10689.470900       0.750770
    10700.909600       0.754776
    10712.372800       0.758760
    10723.860600       0.762722
    10735.373100       0.766662
    10746.910300       0.770580
    10758.472300       0.774474
    10770.059200       0.778345
    10781.671200       0.782193
    10793.308100       0.786016
    10804.970300       0.789815
    10816.657700       0.793589
    10828.370300       0.797337
    10840.108400       0.801060
    10851.871900       0.804756
    10863.661100       0.808426
    10875.475800       0.812069
    10887.316300       0.815685
    10899.182600       0.819273
    10911.074700       0.822833
    10922.992900       0.826365
    10934.937100       0.829867
    10946.907500       0.833341
    10958.904100       0.836786
    10970.927000       0.840200
    10982.976400       0.843585
    10995.052200       0.846939
    11007.154700       0.850262
    11019.283700       0.853555
    11031.439600       0.856816
    11043.622300       0.860045
    11055.832000       0.863242
    11068.068600       0.866407
    11080.332400       0.869539
    11092.623400       0.872638
    11104.941700       0.875705
    11117.287400       0.878737
    11129.660500       0.881736
    11142.061300       0.884701
    11154.489700       0.887632
    11166.945800       0.890528
    11179.429800       0.893390
    11191.941800       0.896216
    11204.481800       0.899008
    11217.049900       0.901763
    11229.646300       0.904484
    11242.270900       0.907168
    11254.924000       0.909816
    11267.605600       0.912428
    11280.315800       0.915003
    11293.054800       0.917542
    11305.822500       0.920043
    11318.619100       0.922508
    11331.444800       0.924935
    11344.299500       0.927325
    11357.183400       0.929678
    11370.096600       0.931992
    11383.039300       0.934269
    11396.011400       0.936508
    11409.013100       0.938708
    11422.044500       0.940871
    11435.105800       0.942995
    11448.196900       0.945080
    11461.318100       0.947127
    11474.469300       0.949135
    11487.650800       0.951104
    11500.862600       0.953034
    11514.104800       0.954926
    11527.377500       0.956778
    11540.680900       0.958591
    11554.015000       0.960365
    11567.380000       0.962100
    11580.775900       0.963795
    11594.202900       0.965451
    11607.661100       0.967068
    11621.150500       0.968646
    11634.671300       0.970183
    11648.223600       0.971682
    11661.807600       0.973141
    11675.423200       0.974561
    11689.070700       0.975941
    11702.750100       0.977282
    11716.461600       0.978583
    11730.205300       0.979846
    11743.981200       0.981068
    11757.789500       0.982252
    11771.630400       0.983396
    11785.503800       0.984502
    11799.410000       0.985568
    11813.349100       0.986595
    11827.321100       0.987583
    11841.326200       0.988532
    11855.364600       0.989442
    11869.436200       0.990314
    11883.541300       0.991147
    11897.680000       0.991942
    11911.852300       0.992698
    11926.058400       0.993416
    11940.298500       0.994096
    11954.572600       0.994738
    11968.880900       0.995342
    11983.223500       0.995908
    11997.600500       0.996437
    12012.012000       0.996929
    12026.458200       0.997383
    12040.939200       0.997800
    12055.455100       0.998180
    12070.006000       0.998524
    12084.592100       0.998831
    12099.213600       0.999102
    12113.870400       0.999337
    12128.562800       0.999536
    12143.290800       0.999699
    12158.054700       0.999827
    12172.854500       0.999919
    12187.690400       0.999977
    12202.562500       1.000000
    12217.471000       0.999988
    12232.415900       0.999943
    12247.397400       0.999863
    12262.415700       0.999749
    12277.470800       0.999602
    12292.563000       0.999422
    12307.692300       0.999209
    12322.858900       0.998963
    12338.062900       0.998685
    12353.304500       0.998375
    12368.583800       0.998033
    12383.900900       0.997660
    12399.256000       0.997256
    12414.649300       0.996821
    12430.080800       0.996355
    12445.550700       0.995859
    12461.059200       0.995333
    12476.606400       0.994778
    12492.192400       0.994194
    12507.817400       0.993580
    12523.481500       0.992939
    12539.185000       0.992269
    12554.927800       0.991571
    12570.710200       0.990846
    12586.532400       0.990094
    12602.394500       0.989315
    12618.296500       0.988510
    12634.238800       0.987679
    12650.221400       0.986822
    12666.244500       0.985940
    12682.308200       0.985033
    12698.412700       0.984102
    12714.558200       0.983147
    12730.744700       0.982168
    12746.972600       0.981166
    12763.241900       0.980141
    12779.552700       0.979094
    12795.905300       0.978025
    12812.299800       0.976934
    12828.736400       0.975822
    12845.215200       0.974689
    12861.736300       0.973536
    12878.300100       0.972362
    12894.906500       0.971170
    12911.555800       0.969958
    12928.248200       0.968728
    12944.983800       0.967479
    12961.762800       0.966213
    12978.585300       0.964929
    12995.451600       0.963628
    13012.361700       0.962311
    13029.316000       0.960978
    13046.314400       0.959629
    13063.357300       0.958265
    13080.444700       0.956886
    13097.576900       0.955493
    13114.754100       0.954087
    13131.976400       0.952667
    13149.243900       0.951234
    13166.556900       0.949788
    13183.915600       0.948331
    13201.320100       0.946862
    13218.770700       0.945381
    13236.267400       0.943890
    13253.810500       0.942389
    13271.400100       0.940878
    13289.036500       0.939358
    13306.719900       0.937829
    13324.450400       0.936292
    13342.228200       0.934747
    13360.053400       0.933194
    13377.926400       0.931634
    13395.847300       0.930067
    13413.816200       0.928495
    13431.833400       0.926916
    13449.899100       0.925333
    13468.013500       0.923744
    13486.176700       0.922152
    13504.388900       0.920555
    13522.650400       0.918955
    13540.961400       0.917352
    13559.322000       0.915746
    13577.732500       0.914138
    13596.193100       0.912528
    13614.703900       0.910917
    13633.265200       0.909306
    13651.877100       0.907694
    13670.540000       0.906082
    13689.253900       0.904470
    13708.019200       0.902859
    13726.836000       0.901250
    13745.704500       0.899642
    13764.624900       0.898037
    13783.597500       0.896434
    13802.622500       0.894834
    13821.700100       0.893237
    13840.830400       0.891644
    13860.013900       0.890056
    13879.250500       0.888472
    13898.540700       0.886893
    13917.884500       0.885319
    13937.282200       0.883751
    13956.734100       0.882189
    13976.240400       0.880634
    13995.801300       0.879086
    14015.417000       0.877544
    14035.087700       0.876011
    14054.813800       0.874486
    14074.595400       0.872969
    14094.432700       0.871460
    14114.326000       0.869961
    14134.275600       0.868471
    14154.281700       0.866991
    14174.344400       0.865521
    14194.464200       0.864062
    14214.641100       0.862613
    14234.875400       0.861175
    14255.167500       0.859749
    14275.517500       0.858334
    14295.925700       0.856932
    14316.392300       0.855542
    14336.917600       0.854164
    14357.501800       0.852799
    14378.145200       0.851448
    14398.848100       0.850110
    14419.610700       0.848786
    14440.433200       0.847475
    14461.316000       0.846179
    14482.259200       0.844898
    14503.263200       0.843631
    14524.328200       0.842379
    14545.454500       0.841143
    14566.642400       0.839922
    14587.892000       0.838716
    14609.203800       0.837527
    14630.577900       0.836353
    14652.014700       0.835196
    14673.514300       0.834055
    14695.077100       0.832931
    14716.703500       0.831824
    14738.393500       0.830734
    14760.147600       0.829661
    14781.966000       0.828606
    14803.849000       0.827568
    14825.796900       0.826547
    14847.809900       0.825545
    14869.888500       0.824560
    14892.032800       0.823593
    14914.243100       0.822644
    14936.519800       0.821714
    14958.863100       0.820802
    14981.273400       0.819908
    15003.750900       0.819033
    15026.296000       0.818176
    15048.909000       0.817338
    15071.590100       0.816519
    15094.339600       0.815718
    15117.158000       0.814937
    15140.045400       0.814173
    15163.002300       0.813429
    15186.028900       0.812704
    15209.125500       0.811997
    15232.292500       0.811309
    15255.530100       0.810640
    15278.838800       0.809990
    15302.218800       0.809359
    15325.670500       0.808746
    15349.194200       0.808152
    15372.790200       0.807577
    15396.458800       0.807020
    15420.200500       0.806481
    15444.015400       0.805961
    15467.904100       0.805460
    15491.866800       0.804976
    15515.903800       0.804511
    15540.015500       0.804063
    15564.202300       0.803634
    15588.464500       0.803222
    15612.802500       0.802828
    15637.216600       0.802451
    15661.707100       0.802091
    15686.274500       0.801748
    15710.919100       0.801423
    15735.641200       0.801114
    15760.441300       0.800821
    15785.319700       0.800545
    15810.276700       0.800285
    15835.312700       0.800040
    15860.428200       0.799812
    15885.623500       0.799598
    15910.899000       0.799400
    15936.255000       0.799216
    15961.691900       0.799048
    15987.210200       0.798893
    16012.810200       0.798752
    16038.492400       0.798625
    16064.257000       0.798512
    16090.104600       0.798411
    16116.035500       0.798324
    16142.050000       0.798248
    16168.148700       0.798185
    16194.332000       0.798133
    16220.600200       0.798093
    16246.953700       0.798064
    16273.393000       0.798045
    16299.918500       0.798037
    16326.530600       0.798038
    16353.229800       0.798049
    16380.016400       0.798068
    16406.890900       0.798097
    16433.853700       0.798133
    16460.905300       0.798177
    16488.046200       0.798228
    16515.276600       0.798286
    16542.597200       0.798351
    16570.008300       0.798421
    16597.510400       0.798496
    16625.103900       0.798577
    16652.789300       0.798662
    16680.567100       0.798750
    16708.437800       0.798842
    16736.401700       0.798937
    16764.459300       0.799034
    16792.611300       0.799133
    16820.857900       0.799233
    16849.199700       0.799334
    16877.637100       0.799435
    16906.170800       0.799535
    16934.801000       0.799634
    16963.528400       0.799732
    16992.353400       0.799828
    17021.276600       0.799920
    17050.298400       0.800010
    17079.419300       0.800095
    17108.639900       0.800176
    17137.960600       0.800251
    17167.382000       0.800321
    17196.904600       0.800384
    17226.528900       0.800440
    17256.255400       0.800489
    17286.084700       0.800528
    17316.017300       0.800559
    17346.053800       0.800580
    17376.194600       0.800591
    17406.440400       0.800590
    17436.791600       0.800578
    17467.248900       0.800554
    17497.812800       0.800516
    17528.483800       0.800464
    17559.262500       0.800398
    17590.149500       0.800317
    17621.145400       0.800220
    17652.250700       0.800106
    17683.466000       0.799975
    17714.791900       0.799826
    17746.228900       0.799658
    17777.777800       0.799471
    17809.439000       0.799263
    17841.213200       0.799035
    17873.101000       0.798784
    17905.103000       0.798512
    17937.219700       0.798216
    17969.451900       0.797897
    18001.800200       0.797553
    18034.265100       0.797183
    18066.847300       0.796788
    18099.547500       0.796365
    18132.366300       0.795916
    18165.304300       0.795437
    18198.362100       0.794930
    18231.540600       0.794393
    18264.840200       0.793826
    18298.261700       0.793227
    18331.805700       0.792596
    18365.472900       0.791932
    18399.264000       0.791235
    18433.179700       0.790504
    18467.220700       0.789738
    18501.387600       0.788935
    18535.681200       0.788097
    18570.102100       0.787221
    18604.651200       0.786307
    18639.329000       0.785355
    18674.136300       0.784363
    18709.073900       0.783331
    18744.142500       0.782258
    18779.342700       0.781144
    18814.675400       0.779987
    18850.141400       0.778787
    18885.741300       0.777544
    18921.475900       0.776256
    18957.346000       0.774923
    18993.352300       0.773545
    19029.495700       0.772120
    19065.776900       0.770647
    19102.196800       0.769127
    19138.756000       0.767558
    19175.455400       0.765941
    19212.295900       0.764273
    19249.278200       0.762555
    19286.403100       0.760786
    19323.671500       0.758965
    19361.084200       0.757092
    19398.642100       0.755166
    19436.346000       0.753186
    19474.196700       0.751152
    19512.195100       0.749064
    19550.342100       0.746920
    19588.638600       0.744720
    19627.085400       0.742464
    19665.683400       0.740150
    19704.433500       0.737780
    19743.336600       0.735351
    19782.393700       0.732864
    19821.605600       0.730317
    19860.973200       0.727712
    19900.497500       0.725046
    19940.179500       0.722320
    19980.020000       0.719533
    20020.020000       0.716684
    20060.180500       0.713774
    20100.502500       0.710802
    20140.986900       0.707767
    20181.634700       0.704670
    20222.446900       0.701509
    20263.424500       0.698284
    20304.568500       0.694996
    20345.880000       0.691644
    20387.359800       0.688227
    20429.009200       0.684746
    20470.829100       0.681199
    20512.820500       0.677588
    20554.984600       0.673911
    20597.322300       0.670169
    20639.834900       0.666360
    20682.523300       0.662486
    20725.388600       0.658546
    20768.432000       0.654540
    20811.654500       0.650468
    20855.057400       0.646329
    20898.641600       0.642124
    20942.408400       0.637853
    20986.358900       0.633516
    21030.494200       0.629112
    21074.815600       0.624643
    21119.324200       0.620107
    21164.021200       0.615505
    21208.907700       0.610838
    21253.985100       0.606104
    21299.254500       0.601306
    21344.717200       0.596442
    21390.374300       0.591513
    21436.227200       0.586519
    21482.277100       0.581461
    21528.525300       0.576339
    21574.973000       0.571153
    21621.621600       0.565904
    21668.472400       0.560591
    21715.526600       0.555217
    21762.785600       0.549780
    21810.250800       0.544282
    21857.923500       0.538723
    21905.805000       0.533104
    21953.896800       0.527425
    22002.200200       0.521687
    22050.716600       0.515891
    22099.447500       0.510037
    22148.394200       0.504126
    22197.558300       0.498159
    22246.941000       0.492137
    22296.544000       0.486061
    22346.368700       0.479931
    22396.416600       0.473748
    22446.689100       0.467514
    22497.187900       0.461230
    22547.914300       0.454896
    22598.870100       0.448513
    22650.056600       0.442084
    22701.475600       0.435608
    22753.128600       0.429088
    22805.017100       0.422523
    22857.142900       0.415917
    22909.507400       0.409270
    22962.112500       0.402584
    23014.959700       0.395859
    23068.050700       0.389098
    23121.387300       0.382302
    23174.971000       0.375472
    23228.803700       0.368611
    23282.887100       0.361720
    23337.222900       0.354800
    23391.812900       0.347854
    23446.658900       0.340882
    23501.762600       0.333888
    23557.126000       0.326873
    23612.750900       0.319839
    23668.639100       0.312788
    23724.792400       0.305721
    23781.212800       0.298642
    23837.902300       0.291553
    23894.862600       0.284455
    23952.095800       0.277350
    24009.603800       0.270243
    24067.388700       0.263133
    24125.452400       0.256025
    24183.796900       0.248920
    24242.424200       0.241822
    24301.336600       0.234732
    24360.535900       0.227654
    24420.024400       0.220589
    24479.804200       0.213542
    24539.877300       0.206515
    24600.246000       0.199510
    24660.912500       0.192531
    24721.878900       0.185581
    24783.147500       0.178663
    24844.720500       0.171780
    24906.600200       0.164935
    24968.789000       0.158132
    25031.289100       0.151374
    25094.102900       0.144663
    25157.232700       0.138005
    25220.681000       0.131402
    25284.450100       0.124859
    25348.542500       0.118377
    25412.960600       0.111963
    25477.707000       0.105618
