05, NOAA-N AVHRR CHANNEL 05
Number of data points:
1061
Wavenumber (cm-1)   Filter response
      782.000000       0.000000
      782.100000       0.000000
      782.200000       0.000000
      782.300000       0.000000
      782.400000       0.000000
      782.500000       0.000000
      782.600000       0.000000
      782.700000       0.000000
      782.800000       0.000000
      782.900000       0.000000
      783.000000       0.000000
      783.100000       0.000000
      783.200000       0.000000
      783.300000       0.000000
      783.400000       0.000000
      783.500000       0.000000
      783.600000       0.000000
      783.700000       0.000000
      783.800000       0.000000
      783.900000       0.000000
      784.000000       0.000000
      784.100000       0.000000
      784.200000       0.000000
      784.300000       0.000000
      784.400000       0.000000
      784.500000       0.000000
      784.600000       0.000000
      784.700000       0.000000
      784.800000       0.000000
      784.900000       0.001000
      785.000000       0.001000
      785.100000       0.001000
      785.200000       0.001000
      785.300000       0.001000
      785.400000       0.001000
      785.500000       0.001000
      785.600000       0.001000
      785.700000       0.001000
      785.800000       0.001000
      785.900000       0.001000
      786.000000       0.001000
      786.100000       0.001000
      786.200000       0.001000
      786.300000       0.002000
      786.400000       0.002000
      786.500000       0.002000
      786.600000       0.002000
      786.700000       0.002000
      786.800000       0.002000
      786.900000       0.002000
      787.000000       0.003000
      787.100000       0.003000
      787.200000       0.003000
      787.300000       0.003000
      787.400000       0.003000
      787.500000       0.003000
      787.600000       0.004000
      787.700000       0.004000
      787.800000       0.004000
      787.900000       0.004000
      788.000000       0.004000
      788.100000       0.004000
      788.200000       0.005000
      788.300000       0.005000
      788.400000       0.005000
      788.500000       0.005000
      788.600000       0.005000
      788.700000       0.006000
      788.800000       0.006000
      788.900000       0.006000
      789.000000       0.007000
      789.100000       0.007000
      789.200000       0.007000
      789.300000       0.008000
      789.400000       0.008000
      789.500000       0.008000
      789.600000       0.009000
      789.700000       0.009000
      789.800000       0.010000
      789.900000       0.010000
      790.000000       0.011000
      790.100000       0.011000
      790.200000       0.012000
      790.300000       0.012000
      790.400000       0.013000
      790.500000       0.013000
      790.600000       0.014000
      790.700000       0.015000
      790.800000       0.015000
      790.900000       0.016000
      791.000000       0.016000
      791.100000       0.017000
      791.200000       0.018000
      791.300000       0.018000
      791.400000       0.019000
      791.500000       0.020000
      791.600000       0.020000
      791.700000       0.021000
      791.800000       0.022000
      791.900000       0.023000
      792.000000       0.024000
      792.100000       0.025000
      792.200000       0.026000
      792.300000       0.027000
      792.400000       0.028000
      792.500000       0.029000
      792.600000       0.030000
      792.700000       0.032000
      792.800000       0.033000
      792.900000       0.035000
      793.000000       0.036000
      793.100000       0.038000
      793.200000       0.040000
      793.300000       0.042000
      793.400000       0.044000
      793.500000       0.046000
      793.600000       0.048000
      793.700000       0.050000
      793.800000       0.053000
      793.900000       0.055000
      794.000000       0.058000
      794.100000       0.060000
      794.200000       0.063000
      794.300000       0.066000
      794.400000       0.069000
      794.500000       0.072000
      794.600000       0.075000
      794.700000       0.079000
      794.800000       0.082000
      794.900000       0.086000
      795.000000       0.089000
      795.100000       0.093000
      795.200000       0.097000
      795.300000       0.101000
      795.400000       0.106000
      795.500000       0.110000
      795.600000       0.115000
      795.700000       0.120000
      795.800000       0.125000
      795.900000       0.131000
      796.000000       0.136000
      796.100000       0.143000
      796.200000       0.149000
      796.300000       0.156000
      796.400000       0.164000
      796.500000       0.171000
      796.600000       0.179000
      796.700000       0.188000
      796.800000       0.197000
      796.900000       0.206000
      797.000000       0.215000
      797.100000       0.225000
      797.200000       0.235000
      797.300000       0.245000
      797.400000       0.256000
      797.500000       0.267000
      797.600000       0.278000
      797.700000       0.290000
      797.800000       0.302000
      797.900000       0.314000
      798.000000       0.326000
      798.100000       0.339000
      798.200000       0.352000
      798.300000       0.366000
      798.400000       0.379000
      798.500000       0.393000
      798.600000       0.408000
      798.700000       0.422000
      798.800000       0.437000
      798.900000       0.452000
      799.000000       0.468000
      799.100000       0.484000
      799.200000       0.500000
      799.300000       0.516000
      799.400000       0.532000
      799.500000       0.549000
      799.600000       0.565000
      799.700000       0.582000
      799.800000       0.598000
      799.900000       0.615000
      800.000000       0.632000
      800.100000       0.648000
      800.200000       0.664000
      800.300000       0.681000
      800.400000       0.697000
      800.500000       0.713000
      800.600000       0.728000
      800.700000       0.743000
      800.800000       0.758000
      800.900000       0.773000
      801.000000       0.787000
      801.100000       0.801000
      801.200000       0.814000
      801.300000       0.826000
      801.400000       0.838000
      801.500000       0.849000
      801.600000       0.860000
      801.700000       0.870000
      801.800000       0.879000
      801.900000       0.888000
      802.000000       0.897000
      802.100000       0.905000
      802.200000       0.913000
      802.300000       0.920000
      802.400000       0.927000
      802.500000       0.933000
      802.600000       0.939000
      802.700000       0.945000
      802.800000       0.950000
      802.900000       0.954000
      803.000000       0.959000
      803.100000       0.963000
      803.200000       0.966000
      803.300000       0.969000
      803.400000       0.972000
      803.500000       0.974000
      803.600000       0.975000
      803.700000       0.976000
      803.800000       0.976000
      803.900000       0.976000
      804.000000       0.975000
      804.100000       0.974000
      804.200000       0.972000
      804.300000       0.970000
      804.400000       0.967000
      804.500000       0.965000
      804.600000       0.962000
      804.700000       0.960000
      804.800000       0.958000
      804.900000       0.956000
      805.000000       0.955000
      805.100000       0.954000
      805.200000       0.953000
      805.300000       0.954000
      805.400000       0.954000
      805.500000       0.956000
      805.600000       0.957000
      805.700000       0.959000
      805.800000       0.961000
      805.900000       0.962000
      806.000000       0.964000
      806.100000       0.965000
      806.200000       0.966000
      806.300000       0.966000
      806.400000       0.966000
      806.500000       0.965000
      806.600000       0.963000
      806.700000       0.960000
      806.800000       0.957000
      806.900000       0.953000
      807.000000       0.949000
      807.100000       0.945000
      807.200000       0.941000
      807.300000       0.937000
      807.400000       0.933000
      807.500000       0.930000
      807.600000       0.927000
      807.700000       0.924000
      807.800000       0.923000
      807.900000       0.922000
      808.000000       0.922000
      808.100000       0.922000
      808.200000       0.923000
      808.300000       0.925000
      808.400000       0.927000
      808.500000       0.929000
      808.600000       0.931000
      808.700000       0.933000
      808.800000       0.936000
      808.900000       0.938000
      809.000000       0.940000
      809.100000       0.941000
      809.200000       0.943000
      809.300000       0.944000
      809.400000       0.945000
      809.500000       0.945000
      809.600000       0.945000
      809.700000       0.945000
      809.800000       0.945000
      809.900000       0.945000
      810.000000       0.945000
      810.100000       0.944000
      810.200000       0.943000
      810.300000       0.943000
      810.400000       0.942000
      810.500000       0.941000
      810.600000       0.941000
      810.700000       0.940000
      810.800000       0.939000
      810.900000       0.938000
      811.000000       0.938000
      811.100000       0.937000
      811.200000       0.936000
      811.300000       0.935000
      811.400000       0.934000
      811.500000       0.933000
      811.600000       0.932000
      811.700000       0.931000
      811.800000       0.930000
      811.900000       0.929000
      812.000000       0.928000
      812.100000       0.927000
      812.200000       0.926000
      812.300000       0.925000
      812.400000       0.923000
      812.500000       0.922000
      812.600000       0.921000
      812.700000       0.920000
      812.800000       0.919000
      812.900000       0.917000
      813.000000       0.916000
      813.100000       0.915000
      813.200000       0.913000
      813.300000       0.912000
      813.400000       0.911000
      813.500000       0.909000
      813.600000       0.908000
      813.700000       0.907000
      813.800000       0.905000
      813.900000       0.904000
      814.000000       0.903000
      814.100000       0.902000
      814.200000       0.901000
      814.300000       0.900000
      814.400000       0.899000
      814.500000       0.898000
      814.600000       0.897000
      814.700000       0.897000
      814.800000       0.896000
      814.900000       0.895000
      815.000000       0.895000
      815.100000       0.894000
      815.200000       0.894000
      815.300000       0.894000
      815.400000       0.893000
      815.500000       0.893000
      815.600000       0.893000
      815.700000       0.892000
      815.800000       0.892000
      815.900000       0.892000
      816.000000       0.891000
      816.100000       0.891000
      816.200000       0.891000
      816.300000       0.890000
      816.400000       0.889000
      816.500000       0.889000
      816.600000       0.888000
      816.700000       0.887000
      816.800000       0.886000
      816.900000       0.885000
      817.000000       0.883000
      817.100000       0.882000
      817.200000       0.880000
      817.300000       0.878000
      817.400000       0.876000
      817.500000       0.874000
      817.600000       0.872000
      817.700000       0.870000
      817.800000       0.868000
      817.900000       0.867000
      818.000000       0.865000
      818.100000       0.864000
      818.200000       0.864000
      818.300000       0.864000
      818.400000       0.864000
      818.500000       0.865000
      818.600000       0.866000
      818.700000       0.867000
      818.800000       0.869000
      818.900000       0.871000
      819.000000       0.873000
      819.100000       0.876000
      819.200000       0.878000
      819.300000       0.880000
      819.400000       0.882000
      819.500000       0.884000
      819.600000       0.885000
      819.700000       0.887000
      819.800000       0.888000
      819.900000       0.888000
      820.000000       0.888000
      820.100000       0.888000
      820.200000       0.888000
      820.300000       0.887000
      820.400000       0.887000
      820.500000       0.886000
      820.600000       0.885000
      820.700000       0.885000
      820.800000       0.884000
      820.900000       0.883000
      821.000000       0.883000
      821.100000       0.883000
      821.200000       0.883000
      821.300000       0.883000
      821.400000       0.883000
      821.500000       0.884000
      821.600000       0.885000
      821.700000       0.885000
      821.800000       0.886000
      821.900000       0.887000
      822.000000       0.888000
      822.100000       0.890000
      822.200000       0.891000
      822.300000       0.892000
      822.400000       0.893000
      822.500000       0.895000
      822.600000       0.896000
      822.700000       0.898000
      822.800000       0.899000
      822.900000       0.900000
      823.000000       0.902000
      823.100000       0.903000
      823.200000       0.904000
      823.300000       0.905000
      823.400000       0.906000
      823.500000       0.907000
      823.600000       0.907000
      823.700000       0.908000
      823.800000       0.908000
      823.900000       0.908000
      824.000000       0.908000
      824.100000       0.908000
      824.200000       0.908000
      824.300000       0.907000
      824.400000       0.907000
      824.500000       0.907000
      824.600000       0.906000
      824.700000       0.906000
      824.800000       0.906000
      824.900000       0.907000
      825.000000       0.907000
      825.100000       0.908000
      825.200000       0.908000
      825.300000       0.910000
      825.400000       0.911000
      825.500000       0.913000
      825.600000       0.914000
      825.700000       0.916000
      825.800000       0.918000
      825.900000       0.920000
      826.000000       0.922000
      826.100000       0.923000
      826.200000       0.925000
      826.300000       0.927000
      826.400000       0.928000
      826.500000       0.929000
      826.600000       0.931000
      826.700000       0.931000
      826.800000       0.932000
      826.900000       0.933000
      827.000000       0.933000
      827.100000       0.933000
      827.200000       0.934000
      827.300000       0.934000
      827.400000       0.934000
      827.500000       0.934000
      827.600000       0.934000
      827.700000       0.935000
      827.800000       0.935000
      827.900000       0.935000
      828.000000       0.936000
      828.100000       0.936000
      828.200000       0.937000
      828.300000       0.937000
      828.400000       0.938000
      828.500000       0.939000
      828.600000       0.940000
      828.700000       0.941000
      828.800000       0.943000
      828.900000       0.944000
      829.000000       0.946000
      829.100000       0.948000
      829.200000       0.950000
      829.300000       0.952000
      829.400000       0.955000
      829.500000       0.958000
      829.600000       0.960000
      829.700000       0.963000
      829.800000       0.966000
      829.900000       0.969000
      830.000000       0.971000
      830.100000       0.974000
      830.200000       0.976000
      830.300000       0.979000
      830.400000       0.981000
      830.500000       0.983000
      830.600000       0.984000
      830.700000       0.985000
      830.800000       0.986000
      830.900000       0.987000
      831.000000       0.987000
      831.100000       0.987000
      831.200000       0.987000
      831.300000       0.987000
      831.400000       0.986000
      831.500000       0.986000
      831.600000       0.986000
      831.700000       0.985000
      831.800000       0.985000
      831.900000       0.985000
      832.000000       0.984000
      832.100000       0.984000
      832.200000       0.984000
      832.300000       0.985000
      832.400000       0.985000
      832.500000       0.985000
      832.600000       0.986000
      832.700000       0.986000
      832.800000       0.987000
      832.900000       0.988000
      833.000000       0.988000
      833.100000       0.989000
      833.200000       0.990000
      833.300000       0.991000
      833.400000       0.991000
      833.500000       0.992000
      833.600000       0.993000
      833.700000       0.994000
      833.800000       0.994000
      833.900000       0.995000
      834.000000       0.996000
      834.100000       0.997000
      834.200000       0.997000
      834.300000       0.998000
      834.400000       0.998000
      834.500000       0.999000
      834.600000       0.999000
      834.700000       0.999000
      834.800000       1.000000
      834.900000       1.000000
      835.000000       1.000000
      835.100000       1.000000
      835.200000       1.000000
      835.300000       1.000000
      835.400000       1.000000
      835.500000       1.000000
      835.600000       0.999000
      835.700000       0.999000
      835.800000       0.999000
      835.900000       0.999000
      836.000000       0.998000
      836.100000       0.998000
      836.200000       0.998000
      836.300000       0.997000
      836.400000       0.997000
      836.500000       0.997000
      836.600000       0.997000
      836.700000       0.996000
      836.800000       0.996000
      836.900000       0.996000
      837.000000       0.996000
      837.100000       0.995000
      837.200000       0.995000
      837.300000       0.995000
      837.400000       0.995000
      837.500000       0.995000
      837.600000       0.995000
      837.700000       0.995000
      837.800000       0.996000
      837.900000       0.996000
      838.000000       0.996000
      838.100000       0.996000
      838.200000       0.996000
      838.300000       0.996000
      838.400000       0.996000
      838.500000       0.996000
      838.600000       0.996000
      838.700000       0.996000
      838.800000       0.995000
      838.900000       0.995000
      839.000000       0.994000
      839.100000       0.993000
      839.200000       0.992000
      839.300000       0.990000
      839.400000       0.989000
      839.500000       0.987000
      839.600000       0.986000
      839.700000       0.985000
      839.800000       0.983000
      839.900000       0.982000
      840.000000       0.981000
      840.100000       0.980000
      840.200000       0.980000
      840.300000       0.979000
      840.400000       0.979000
      840.500000       0.980000
      840.600000       0.980000
      840.700000       0.981000
      840.800000       0.982000
      840.900000       0.983000
      841.000000       0.984000
      841.100000       0.985000
      841.200000       0.986000
      841.300000       0.987000
      841.400000       0.988000
      841.500000       0.989000
      841.600000       0.990000
      841.700000       0.990000
      841.800000       0.990000
      841.900000       0.990000
      842.000000       0.990000
      842.100000       0.989000
      842.200000       0.988000
      842.300000       0.987000
      842.400000       0.986000
      842.500000       0.985000
      842.600000       0.983000
      842.700000       0.982000
      842.800000       0.981000
      842.900000       0.980000
      843.000000       0.979000
      843.100000       0.978000
      843.200000       0.977000
      843.300000       0.977000
      843.400000       0.977000
      843.500000       0.977000
      843.600000       0.977000
      843.700000       0.978000
      843.800000       0.978000
      843.900000       0.979000
      844.000000       0.979000
      844.100000       0.980000
      844.200000       0.980000
      844.300000       0.980000
      844.400000       0.980000
      844.500000       0.980000
      844.600000       0.980000
      844.700000       0.979000
      844.800000       0.979000
      844.900000       0.978000
      845.000000       0.976000
      845.100000       0.975000
      845.200000       0.973000
      845.300000       0.972000
      845.400000       0.970000
      845.500000       0.968000
      845.600000       0.966000
      845.700000       0.964000
      845.800000       0.962000
      845.900000       0.960000
      846.000000       0.958000
      846.100000       0.956000
      846.200000       0.954000
      846.300000       0.952000
      846.400000       0.951000
      846.500000       0.949000
      846.600000       0.948000
      846.700000       0.946000
      846.800000       0.945000
      846.900000       0.943000
      847.000000       0.942000
      847.100000       0.941000
      847.200000       0.940000
      847.300000       0.938000
      847.400000       0.938000
      847.500000       0.937000
      847.600000       0.936000
      847.700000       0.935000
      847.800000       0.934000
      847.900000       0.934000
      848.000000       0.933000
      848.100000       0.933000
      848.200000       0.932000
      848.300000       0.932000
      848.400000       0.932000
      848.500000       0.932000
      848.600000       0.931000
      848.700000       0.931000
      848.800000       0.931000
      848.900000       0.931000
      849.000000       0.931000
      849.100000       0.931000
      849.200000       0.931000
      849.300000       0.931000
      849.400000       0.931000
      849.500000       0.931000
      849.600000       0.931000
      849.700000       0.931000
      849.800000       0.931000
      849.900000       0.930000
      850.000000       0.930000
      850.100000       0.930000
      850.200000       0.929000
      850.300000       0.928000
      850.400000       0.927000
      850.500000       0.926000
      850.600000       0.925000
      850.700000       0.923000
      850.800000       0.922000
      850.900000       0.920000
      851.000000       0.918000
      851.100000       0.916000
      851.200000       0.915000
      851.300000       0.913000
      851.400000       0.911000
      851.500000       0.909000
      851.600000       0.907000
      851.700000       0.905000
      851.800000       0.904000
      851.900000       0.902000
      852.000000       0.900000
      852.100000       0.899000
      852.200000       0.897000
      852.300000       0.896000
      852.400000       0.895000
      852.500000       0.893000
      852.600000       0.892000
      852.700000       0.891000
      852.800000       0.890000
      852.900000       0.889000
      853.000000       0.887000
      853.100000       0.886000
      853.200000       0.885000
      853.300000       0.884000
      853.400000       0.883000
      853.500000       0.882000
      853.600000       0.881000
      853.700000       0.880000
      853.800000       0.879000
      853.900000       0.878000
      854.000000       0.877000
      854.100000       0.875000
      854.200000       0.874000
      854.300000       0.873000
      854.400000       0.872000
      854.500000       0.871000
      854.600000       0.870000
      854.700000       0.869000
      854.800000       0.868000
      854.900000       0.867000
      855.000000       0.867000
      855.100000       0.866000
      855.200000       0.865000
      855.300000       0.864000
      855.400000       0.863000
      855.500000       0.862000
      855.600000       0.861000
      855.700000       0.860000
      855.800000       0.859000
      855.900000       0.857000
      856.000000       0.856000
      856.100000       0.855000
      856.200000       0.854000
      856.300000       0.852000
      856.400000       0.851000
      856.500000       0.849000
      856.600000       0.847000
      856.700000       0.846000
      856.800000       0.844000
      856.900000       0.843000
      857.000000       0.841000
      857.100000       0.840000
      857.200000       0.838000
      857.300000       0.837000
      857.400000       0.836000
      857.500000       0.834000
      857.600000       0.833000
      857.700000       0.832000
      857.800000       0.832000
      857.900000       0.831000
      858.000000       0.831000
      858.100000       0.830000
      858.200000       0.830000
      858.300000       0.829000
      858.400000       0.829000
      858.500000       0.829000
      858.600000       0.828000
      858.700000       0.828000
      858.800000       0.827000
      858.900000       0.827000
      859.000000       0.826000
      859.100000       0.825000
      859.200000       0.824000
      859.300000       0.822000
      859.400000       0.821000
      859.500000       0.819000
      859.600000       0.817000
      859.700000       0.816000
      859.800000       0.814000
      859.900000       0.812000
      860.000000       0.810000
      860.100000       0.808000
      860.200000       0.806000
      860.300000       0.804000
      860.400000       0.802000
      860.500000       0.800000
      860.600000       0.798000
      860.700000       0.797000
      860.800000       0.796000
      860.900000       0.794000
      861.000000       0.793000
      861.100000       0.792000
      861.200000       0.791000
      861.300000       0.790000
      861.400000       0.788000
      861.500000       0.787000
      861.600000       0.786000
      861.700000       0.785000
      861.800000       0.783000
      861.900000       0.782000
      862.000000       0.780000
      862.100000       0.778000
      862.200000       0.776000
      862.300000       0.774000
      862.400000       0.772000
      862.500000       0.769000
      862.600000       0.766000
      862.700000       0.763000
      862.800000       0.760000
      862.900000       0.757000
      863.000000       0.754000
      863.100000       0.751000
      863.200000       0.748000
      863.300000       0.744000
      863.400000       0.741000
      863.500000       0.738000
      863.600000       0.734000
      863.700000       0.731000
      863.800000       0.727000
      863.900000       0.724000
      864.000000       0.720000
      864.100000       0.717000
      864.200000       0.713000
      864.300000       0.710000
      864.400000       0.706000
      864.500000       0.702000
      864.600000       0.698000
      864.700000       0.694000
      864.800000       0.690000
      864.900000       0.685000
      865.000000       0.681000
      865.100000       0.676000
      865.200000       0.671000
      865.300000       0.666000
      865.400000       0.660000
      865.500000       0.655000
      865.600000       0.649000
      865.700000       0.644000
      865.800000       0.638000
      865.900000       0.632000
      866.000000       0.626000
      866.100000       0.620000
      866.200000       0.613000
      866.300000       0.607000
      866.400000       0.600000
      866.500000       0.594000
      866.600000       0.588000
      866.700000       0.581000
      866.800000       0.574000
      866.900000       0.568000
      867.000000       0.561000
      867.100000       0.554000
      867.200000       0.547000
      867.300000       0.540000
      867.400000       0.533000
      867.500000       0.526000
      867.600000       0.519000
      867.700000       0.512000
      867.800000       0.505000
      867.900000       0.497000
      868.000000       0.490000
      868.100000       0.482000
      868.200000       0.475000
      868.300000       0.467000
      868.400000       0.459000
      868.500000       0.451000
      868.600000       0.443000
      868.700000       0.435000
      868.800000       0.427000
      868.900000       0.419000
      869.000000       0.411000
      869.100000       0.403000
      869.200000       0.394000
      869.300000       0.386000
      869.400000       0.378000
      869.500000       0.370000
      869.600000       0.362000
      869.700000       0.354000
      869.800000       0.346000
      869.900000       0.338000
      870.000000       0.330000
      870.100000       0.322000
      870.200000       0.314000
      870.300000       0.307000
      870.400000       0.299000
      870.500000       0.291000
      870.600000       0.284000
      870.700000       0.276000
      870.800000       0.269000
      870.900000       0.262000
      871.000000       0.255000
      871.100000       0.248000
      871.200000       0.241000
      871.300000       0.234000
      871.400000       0.227000
      871.500000       0.221000
      871.600000       0.214000
      871.700000       0.208000
      871.800000       0.201000
      871.900000       0.195000
      872.000000       0.189000
      872.100000       0.183000
      872.200000       0.177000
      872.300000       0.172000
      872.400000       0.166000
      872.500000       0.160000
      872.600000       0.155000
      872.700000       0.150000
      872.800000       0.145000
      872.900000       0.140000
      873.000000       0.135000
      873.100000       0.131000
      873.200000       0.126000
      873.300000       0.122000
      873.400000       0.117000
      873.500000       0.113000
      873.600000       0.109000
      873.700000       0.106000
      873.800000       0.102000
      873.900000       0.098000
      874.000000       0.095000
      874.100000       0.091000
      874.200000       0.088000
      874.300000       0.085000
      874.400000       0.082000
      874.500000       0.079000
      874.600000       0.077000
      874.700000       0.074000
      874.800000       0.071000
      874.900000       0.069000
      875.000000       0.067000
      875.100000       0.064000
      875.200000       0.062000
      875.300000       0.060000
      875.400000       0.058000
      875.500000       0.056000
      875.600000       0.054000
      875.700000       0.052000
      875.800000       0.050000
      875.900000       0.049000
      876.000000       0.047000
      876.100000       0.045000
      876.200000       0.043000
      876.300000       0.042000
      876.400000       0.040000
      876.500000       0.039000
      876.600000       0.037000
      876.700000       0.036000
      876.800000       0.034000
      876.900000       0.033000
      877.000000       0.032000
      877.100000       0.030000
      877.200000       0.029000
      877.300000       0.028000
      877.400000       0.027000
      877.500000       0.026000
      877.600000       0.025000
      877.700000       0.024000
      877.800000       0.023000
      877.900000       0.022000
      878.000000       0.021000
      878.100000       0.020000
      878.200000       0.020000
      878.300000       0.019000
      878.400000       0.018000
      878.500000       0.018000
      878.600000       0.017000
      878.700000       0.016000
      878.800000       0.016000
      878.900000       0.015000
      879.000000       0.014000
      879.100000       0.014000
      879.200000       0.013000
      879.300000       0.013000
      879.400000       0.012000
      879.500000       0.012000
      879.600000       0.011000
      879.700000       0.011000
      879.800000       0.010000
      879.900000       0.010000
      880.000000       0.009000
      880.100000       0.009000
      880.200000       0.008000
      880.300000       0.008000
      880.400000       0.008000
      880.500000       0.007000
      880.600000       0.007000
      880.700000       0.007000
      880.800000       0.006000
      880.900000       0.006000
      881.000000       0.006000
      881.100000       0.005000
      881.200000       0.005000
      881.300000       0.005000
      881.400000       0.005000
      881.500000       0.004000
      881.600000       0.004000
      881.700000       0.004000
      881.800000       0.004000
      881.900000       0.004000
      882.000000       0.004000
      882.100000       0.003000
      882.200000       0.003000
      882.300000       0.003000
      882.400000       0.003000
      882.500000       0.003000
      882.600000       0.003000
      882.700000       0.003000
      882.800000       0.003000
      882.900000       0.002000
      883.000000       0.002000
      883.100000       0.002000
      883.200000       0.002000
      883.300000       0.002000
      883.400000       0.002000
      883.500000       0.002000
      883.600000       0.002000
      883.700000       0.002000
      883.800000       0.002000
      883.900000       0.002000
      884.000000       0.002000
      884.100000       0.001000
      884.200000       0.001000
      884.300000       0.001000
      884.400000       0.001000
      884.500000       0.001000
      884.600000       0.001000
      884.700000       0.001000
      884.800000       0.001000
      884.900000       0.001000
      885.000000       0.001000
      885.100000       0.001000
      885.200000       0.001000
      885.300000       0.001000
      885.400000       0.001000
      885.500000       0.001000
      885.600000       0.001000
      885.700000       0.001000
      885.800000       0.001000
      885.900000       0.001000
      886.000000       0.001000
      886.100000       0.000000
      886.200000       0.000000
      886.300000       0.000000
      886.400000       0.000000
      886.500000       0.000000
      886.600000       0.000000
      886.700000       0.000000
      886.800000       0.000000
      886.900000       0.000000
      887.000000       0.000000
      887.100000       0.000000
      887.200000       0.000000
      887.300000       0.000000
      887.400000       0.000000
      887.500000       0.000000
      887.600000       0.000000
      887.700000       0.000000
      887.800000       0.000000
      887.900000       0.000000
      888.000000       0.000000
