76,   76, MVIRI VIS channel from srf_MET2_1991213_1991214_1801-Release_S10EL_10.dat
Number of data points:
730
Wavenumber (cm-1)   Filter response
     8916.629500       0.000000
     8924.587200       0.000000
     8932.559200       0.000002
     8940.545400       0.000012
     8948.545900       0.000033
     8956.560700       0.000070
     8964.589900       0.000128
     8972.633500       0.000211
     8980.691500       0.000324
     8988.764000       0.000469
     8996.851100       0.000651
     9004.952700       0.000873
     9013.068900       0.001138
     9021.199800       0.001450
     9029.345400       0.001813
     9037.505600       0.002228
     9045.680700       0.002699
     9053.870500       0.003228
     9062.075200       0.003818
     9070.294800       0.004472
     9078.529300       0.005190
     9086.778700       0.005977
     9095.043200       0.006833
     9103.322700       0.007761
     9111.617300       0.008762
     9119.927000       0.009838
     9128.251900       0.010990
     9136.592100       0.012221
     9144.947400       0.013530
     9153.318100       0.014920
     9161.704100       0.016392
     9170.105500       0.017946
     9178.522300       0.019584
     9186.954500       0.021305
     9195.402300       0.023112
     9203.865600       0.025005
     9212.344500       0.026983
     9220.839100       0.029049
     9229.349300       0.031201
     9237.875300       0.033441
     9246.417000       0.035769
     9254.974500       0.038184
     9263.547900       0.040687
     9272.137200       0.043278
     9280.742500       0.045957
     9289.363700       0.048723
     9298.000900       0.051577
     9306.654300       0.054518
     9315.323700       0.057546
     9324.009300       0.060661
     9332.711200       0.063862
     9341.429200       0.067148
     9350.163600       0.070520
     9358.914400       0.073975
     9367.681500       0.077516
     9376.465100       0.081139
     9385.265100       0.084845
     9394.081700       0.088632
     9402.914900       0.092501
     9411.764700       0.096449
     9420.631200       0.100477
     9429.514400       0.104583
     9438.414300       0.108767
     9447.331100       0.113026
     9456.264800       0.117361
     9465.215300       0.121771
     9474.182900       0.126253
     9483.167400       0.130807
     9492.169000       0.135432
     9501.187600       0.140128
     9510.223500       0.144891
     9519.276500       0.149722
     9528.346800       0.154619
     9537.434400       0.159581
     9546.539400       0.164606
     9555.661700       0.169693
     9564.801500       0.174841
     9573.958800       0.180049
     9583.133700       0.185316
     9592.326100       0.190638
     9601.536200       0.196017
     9610.764100       0.201449
     9620.009600       0.206934
     9629.273000       0.212471
     9638.554200       0.218057
     9647.853400       0.223692
     9657.170400       0.229373
     9666.505600       0.235101
     9675.858700       0.240873
     9685.230000       0.246687
     9694.619500       0.252542
     9704.027200       0.258437
     9713.453100       0.264371
     9722.897400       0.270342
     9732.360100       0.276347
     9741.841200       0.282387
     9751.340800       0.288459
     9760.859000       0.294562
     9770.395700       0.300696
     9779.951100       0.306856
     9789.525200       0.313044
     9799.118100       0.319257
     9808.729800       0.325493
     9818.360300       0.331753
     9828.009800       0.338032
     9837.678300       0.344332
     9847.365800       0.350650
     9857.072400       0.356984
     9866.798200       0.363334
     9876.543200       0.369697
     9886.307500       0.376073
     9896.091000       0.382460
     9905.894000       0.388857
     9915.716400       0.395262
     9925.558300       0.401674
     9935.419800       0.408092
     9945.300800       0.414515
     9955.201600       0.420940
     9965.122100       0.427368
     9975.062300       0.433795
     9985.022500       0.440223
     9995.002500       0.446648
    10005.002500       0.453070
    10015.022500       0.459487
    10025.062700       0.465899
    10035.122900       0.472304
    10045.203400       0.478700
    10055.304200       0.485088
    10065.425300       0.491465
    10075.566800       0.497830
    10085.728700       0.504183
    10095.911200       0.510522
    10106.114200       0.516845
    10116.337900       0.523153
    10126.582300       0.529443
    10136.847400       0.535716
    10147.133400       0.541969
    10157.440300       0.548202
    10167.768200       0.554414
    10178.117000       0.560603
    10188.487000       0.566770
    10198.878100       0.572912
    10209.290500       0.579029
    10219.724100       0.585120
    10230.179000       0.591184
    10240.655400       0.597221
    10251.153300       0.603228
    10261.672700       0.609206
    10272.213700       0.615154
    10282.776300       0.621070
    10293.360800       0.626955
    10303.967000       0.632806
    10314.595200       0.638624
    10325.245200       0.644408
    10335.917300       0.650156
    10346.611500       0.655869
    10357.327800       0.661545
    10368.066400       0.667184
    10378.827200       0.672785
    10389.610400       0.678348
    10400.416000       0.683872
    10411.244100       0.689356
    10422.094800       0.694799
    10432.968200       0.700201
    10443.864200       0.705563
    10454.783100       0.710881
    10465.724800       0.716157
    10476.689400       0.721391
    10487.677000       0.726580
    10498.687700       0.731726
    10509.721500       0.736826
    10520.778500       0.741882
    10531.858900       0.746892
    10542.962600       0.751856
    10554.089700       0.756774
    10565.240400       0.761645
    10576.414600       0.766470
    10587.612500       0.771246
    10598.834100       0.775975
    10610.079600       0.780656
    10621.348900       0.785288
    10632.642200       0.789871
    10643.959600       0.794406
    10655.301000       0.798891
    10666.666700       0.803326
    10678.056600       0.807712
    10689.470900       0.812048
    10700.909600       0.816333
    10712.372800       0.820568
    10723.860600       0.824752
    10735.373100       0.828885
    10746.910300       0.832968
    10758.472300       0.836999
    10770.059200       0.840979
    10781.671200       0.844907
    10793.308100       0.848784
    10804.970300       0.852609
    10816.657700       0.856383
    10828.370300       0.860104
    10840.108400       0.863774
    10851.871900       0.867392
    10863.661100       0.870958
    10875.475800       0.874472
    10887.316300       0.877934
    10899.182600       0.881344
    10911.074700       0.884702
    10922.992900       0.888008
    10934.937100       0.891262
    10946.907500       0.894464
    10958.904100       0.897614
    10970.927000       0.900713
    10982.976400       0.903759
    10995.052200       0.906754
    11007.154700       0.909697
    11019.283700       0.912589
    11031.439600       0.915429
    11043.622300       0.918218
    11055.832000       0.920956
    11068.068600       0.923643
    11080.332400       0.926279
    11092.623400       0.928864
    11104.941700       0.931398
    11117.287400       0.933882
    11129.660500       0.936316
    11142.061300       0.938700
    11154.489700       0.941033
    11166.945800       0.943317
    11179.429800       0.945552
    11191.941800       0.947737
    11204.481800       0.949872
    11217.049900       0.951959
    11229.646300       0.953998
    11242.270900       0.955987
    11254.924000       0.957929
    11267.605600       0.959822
    11280.315800       0.961668
    11293.054800       0.963466
    11305.822500       0.965217
    11318.619100       0.966921
    11331.444800       0.968578
    11344.299500       0.970189
    11357.183400       0.971754
    11370.096600       0.973272
    11383.039300       0.974745
    11396.011400       0.976173
    11409.013100       0.977556
    11422.044500       0.978893
    11435.105800       0.980187
    11448.196900       0.981436
    11461.318100       0.982641
    11474.469300       0.983803
    11487.650800       0.984921
    11500.862600       0.985997
    11514.104800       0.987030
    11527.377500       0.988021
    11540.680900       0.988969
    11554.015000       0.989876
    11567.380000       0.990742
    11580.775900       0.991566
    11594.202900       0.992350
    11607.661100       0.993094
    11621.150500       0.993797
    11634.671300       0.994461
    11648.223600       0.995085
    11661.807600       0.995671
    11675.423200       0.996217
    11689.070700       0.996726
    11702.750100       0.997196
    11716.461600       0.997628
    11730.205300       0.998024
    11743.981200       0.998382
    11757.789500       0.998703
    11771.630400       0.998988
    11785.503800       0.999237
    11799.410000       0.999451
    11813.349100       0.999629
    11827.321100       0.999771
    11841.326200       0.999880
    11855.364600       0.999954
    11869.436200       0.999994
    11883.541300       1.000000
    11897.680000       0.999973
    11911.852300       0.999913
    11926.058400       0.999820
    11940.298500       0.999695
    11954.572600       0.999538
    11968.880900       0.999349
    11983.223500       0.999129
    11997.600500       0.998878
    12012.012000       0.998596
    12026.458200       0.998284
    12040.939200       0.997941
    12055.455100       0.997569
    12070.006000       0.997168
    12084.592100       0.996737
    12099.213600       0.996278
    12113.870400       0.995790
    12128.562800       0.995273
    12143.290800       0.994729
    12158.054700       0.994158
    12172.854500       0.993559
    12187.690400       0.992933
    12202.562500       0.992281
    12217.471000       0.991602
    12232.415900       0.990897
    12247.397400       0.990166
    12262.415700       0.989410
    12277.470800       0.988628
    12292.563000       0.987822
    12307.692300       0.986991
    12322.858900       0.986135
    12338.062900       0.985256
    12353.304500       0.984353
    12368.583800       0.983426
    12383.900900       0.982475
    12399.256000       0.981502
    12414.649300       0.980506
    12430.080800       0.979488
    12445.550700       0.978447
    12461.059200       0.977384
    12476.606400       0.976300
    12492.192400       0.975194
    12507.817400       0.974066
    12523.481500       0.972918
    12539.185000       0.971749
    12554.927800       0.970559
    12570.710200       0.969350
    12586.532400       0.968120
    12602.394500       0.966870
    12618.296500       0.965600
    12634.238800       0.964311
    12650.221400       0.963003
    12666.244500       0.961676
    12682.308200       0.960330
    12698.412700       0.958966
    12714.558200       0.957583
    12730.744700       0.956182
    12746.972600       0.954763
    12763.241900       0.953327
    12779.552700       0.951873
    12795.905300       0.950401
    12812.299800       0.948912
    12828.736400       0.947407
    12845.215200       0.945884
    12861.736300       0.944345
    12878.300100       0.942789
    12894.906500       0.941217
    12911.555800       0.939629
    12928.248200       0.938025
    12944.983800       0.936405
    12961.762800       0.934769
    12978.585300       0.933118
    12995.451600       0.931452
    13012.361700       0.929771
    13029.316000       0.928074
    13046.314400       0.926363
    13063.357300       0.924637
    13080.444700       0.922896
    13097.576900       0.921141
    13114.754100       0.919372
    13131.976400       0.917588
    13149.243900       0.915790
    13166.556900       0.913979
    13183.915600       0.912154
    13201.320100       0.910315
    13218.770700       0.908462
    13236.267400       0.906597
    13253.810500       0.904717
    13271.400100       0.902825
    13289.036500       0.900920
    13306.719900       0.899002
    13324.450400       0.897071
    13342.228200       0.895127
    13360.053400       0.893170
    13377.926400       0.891202
    13395.847300       0.889220
    13413.816200       0.887227
    13431.833400       0.885221
    13449.899100       0.883203
    13468.013500       0.881173
    13486.176700       0.879132
    13504.388900       0.877078
    13522.650400       0.875013
    13540.961400       0.872936
    13559.322000       0.870847
    13577.732500       0.868747
    13596.193100       0.866636
    13614.703900       0.864514
    13633.265200       0.862380
    13651.877100       0.860235
    13670.540000       0.858079
    13689.253900       0.855912
    13708.019200       0.853734
    13726.836000       0.851546
    13745.704500       0.849347
    13764.624900       0.847137
    13783.597500       0.844916
    13802.622500       0.842685
    13821.700100       0.840444
    13840.830400       0.838192
    13860.013900       0.835930
    13879.250500       0.833658
    13898.540700       0.831376
    13917.884500       0.829084
    13937.282200       0.826781
    13956.734100       0.824469
    13976.240400       0.822147
    13995.801300       0.819815
    14015.417000       0.817473
    14035.087700       0.815122
    14054.813800       0.812761
    14074.595400       0.810391
    14094.432700       0.808011
    14114.326000       0.805622
    14134.275600       0.803224
    14154.281700       0.800816
    14174.344400       0.798399
    14194.464200       0.795974
    14214.641100       0.793539
    14234.875400       0.791095
    14255.167500       0.788642
    14275.517500       0.786181
    14295.925700       0.783711
    14316.392300       0.781232
    14336.917600       0.778744
    14357.501800       0.776248
    14378.145200       0.773744
    14398.848100       0.771231
    14419.610700       0.768710
    14440.433200       0.766180
    14461.316000       0.763643
    14482.259200       0.761097
    14503.263200       0.758543
    14524.328200       0.755982
    14545.454500       0.753412
    14566.642400       0.750835
    14587.892000       0.748250
    14609.203800       0.745658
    14630.577900       0.743057
    14652.014700       0.740450
    14673.514300       0.737835
    14695.077100       0.735213
    14716.703500       0.732583
    14738.393500       0.729947
    14760.147600       0.727303
    14781.966000       0.724653
    14803.849000       0.721995
    14825.796900       0.719331
    14847.809900       0.716660
    14869.888500       0.713983
    14892.032800       0.711299
    14914.243100       0.708609
    14936.519800       0.705912
    14958.863100       0.703209
    14981.273400       0.700500
    15003.750900       0.697785
    15026.296000       0.695064
    15048.909000       0.692338
    15071.590100       0.689605
    15094.339600       0.686867
    15117.158000       0.684124
    15140.045400       0.681375
    15163.002300       0.678621
    15186.028900       0.675861
    15209.125500       0.673097
    15232.292500       0.670327
    15255.530100       0.667553
    15278.838800       0.664774
    15302.218800       0.661991
    15325.670500       0.659202
    15349.194200       0.656410
    15372.790200       0.653613
    15396.458800       0.650812
    15420.200500       0.648007
    15444.015400       0.645198
    15467.904100       0.642386
    15491.866800       0.639570
    15515.903800       0.636750
    15540.015500       0.633927
    15564.202300       0.631100
    15588.464500       0.628271
    15612.802500       0.625438
    15637.216600       0.622603
    15661.707100       0.619764
    15686.274500       0.616924
    15710.919100       0.614080
    15735.641200       0.611235
    15760.441300       0.608387
    15785.319700       0.605537
    15810.276700       0.602685
    15835.312700       0.599832
    15860.428200       0.596976
    15885.623500       0.594119
    15910.899000       0.591261
    15936.255000       0.588402
    15961.691900       0.585542
    15987.210200       0.582680
    16012.810200       0.579818
    16038.492400       0.576955
    16064.257000       0.574092
    16090.104600       0.571228
    16116.035500       0.568364
    16142.050000       0.565500
    16168.148700       0.562637
    16194.332000       0.559773
    16220.600200       0.556910
    16246.953700       0.554047
    16273.393000       0.551185
    16299.918500       0.548324
    16326.530600       0.545464
    16353.229800       0.542605
    16380.016400       0.539747
    16406.890900       0.536891
    16433.853700       0.534036
    16460.905300       0.531183
    16488.046200       0.528332
    16515.276600       0.525483
    16542.597200       0.522636
    16570.008300       0.519792
    16597.510400       0.516950
    16625.103900       0.514111
    16652.789300       0.511274
    16680.567100       0.508440
    16708.437800       0.505610
    16736.401700       0.502783
    16764.459300       0.499959
    16792.611300       0.497138
    16820.857900       0.494322
    16849.199700       0.491509
    16877.637100       0.488700
    16906.170800       0.485895
    16934.801000       0.483094
    16963.528400       0.480298
    16992.353400       0.477506
    17021.276600       0.474719
    17050.298400       0.471937
    17079.419300       0.469159
    17108.639900       0.466387
    17137.960600       0.463620
    17167.382000       0.460858
    17196.904600       0.458102
    17226.528900       0.455351
    17256.255400       0.452606
    17286.084700       0.449867
    17316.017300       0.447134
    17346.053800       0.444406
    17376.194600       0.441686
    17406.440400       0.438971
    17436.791600       0.436263
    17467.248900       0.433561
    17497.812800       0.430866
    17528.483800       0.428178
    17559.262500       0.425496
    17590.149500       0.422822
    17621.145400       0.420154
    17652.250700       0.417494
    17683.466000       0.414841
    17714.791900       0.412196
    17746.228900       0.409558
    17777.777800       0.406927
    17809.439000       0.404304
    17841.213200       0.401689
    17873.101000       0.399081
    17905.103000       0.396482
    17937.219700       0.393890
    17969.451900       0.391307
    18001.800200       0.388731
    18034.265100       0.386164
    18066.847300       0.383605
    18099.547500       0.381054
    18132.366300       0.378512
    18165.304300       0.375978
    18198.362100       0.373452
    18231.540600       0.370935
    18264.840200       0.368426
    18298.261700       0.365926
    18331.805700       0.363435
    18365.472900       0.360952
    18399.264000       0.358478
    18433.179700       0.356013
    18467.220700       0.353556
    18501.387600       0.351108
    18535.681200       0.348669
    18570.102100       0.346238
    18604.651200       0.343816
    18639.329000       0.341403
    18674.136300       0.338999
    18709.073900       0.336604
    18744.142500       0.334217
    18779.342700       0.331839
    18814.675400       0.329470
    18850.141400       0.327110
    18885.741300       0.324758
    18921.475900       0.322415
    18957.346000       0.320080
    18993.352300       0.317754
    19029.495700       0.315437
    19065.776900       0.313128
    19102.196800       0.310828
    19138.756000       0.308536
    19175.455400       0.306252
    19212.295900       0.303977
    19249.278200       0.301710
    19286.403100       0.299451
    19323.671500       0.297200
    19361.084200       0.294957
    19398.642100       0.292722
    19436.346000       0.290495
    19474.196700       0.288276
    19512.195100       0.286065
    19550.342100       0.283861
    19588.638600       0.281664
    19627.085400       0.279475
    19665.683400       0.277293
    19704.433500       0.275118
    19743.336600       0.272951
    19782.393700       0.270790
    19821.605600       0.268636
    19860.973200       0.266489
    19900.497500       0.264349
    19940.179500       0.262214
    19980.020000       0.260087
    20020.020000       0.257965
    20060.180500       0.255849
    20100.502500       0.253739
    20140.986900       0.251635
    20181.634700       0.249537
    20222.446900       0.247444
    20263.424500       0.245356
    20304.568500       0.243273
    20345.880000       0.241196
    20387.359800       0.239123
    20429.009200       0.237055
    20470.829100       0.234991
    20512.820500       0.232931
    20554.984600       0.230876
    20597.322300       0.228824
    20639.834900       0.226777
    20682.523300       0.224733
    20725.388600       0.222692
    20768.432000       0.220654
    20811.654500       0.218620
    20855.057400       0.216588
    20898.641600       0.214560
    20942.408400       0.212533
    20986.358900       0.210509
    21030.494200       0.208487
    21074.815600       0.206467
    21119.324200       0.204448
    21164.021200       0.202432
    21208.907700       0.200416
    21253.985100       0.198402
    21299.254500       0.196388
    21344.717200       0.194376
    21390.374300       0.192363
    21436.227200       0.190352
    21482.277100       0.188340
    21528.525300       0.186329
    21574.973000       0.184317
    21621.621600       0.182305
    21668.472400       0.180293
    21715.526600       0.178279
    21762.785600       0.176265
    21810.250800       0.174250
    21857.923500       0.172234
    21905.805000       0.170216
    21953.896800       0.168196
    22002.200200       0.166175
    22050.716600       0.164152
    22099.447500       0.162126
    22148.394200       0.160099
    22197.558300       0.158069
    22246.941000       0.156036
    22296.544000       0.154001
    22346.368700       0.151963
    22396.416600       0.149922
    22446.689100       0.147878
    22497.187900       0.145831
    22547.914300       0.143781
    22598.870100       0.141727
    22650.056600       0.139669
    22701.475600       0.137608
    22753.128600       0.135544
    22805.017100       0.133475
    22857.142900       0.131403
    22909.507400       0.129326
    22962.112500       0.127246
    23014.959700       0.125161
    23068.050700       0.123073
    23121.387300       0.120980
    23174.971000       0.118883
    23228.803700       0.116782
    23282.887100       0.114677
    23337.222900       0.112568
    23391.812900       0.110454
    23446.658900       0.108337
    23501.762600       0.106215
    23557.126000       0.104089
    23612.750900       0.101960
    23668.639100       0.099826
    23724.792400       0.097689
    23781.212800       0.095548
    23837.902300       0.093403
    23894.862600       0.091255
    23952.095800       0.089104
    24009.603800       0.086949
    24067.388700       0.084791
    24125.452400       0.082631
    24183.796900       0.080468
    24242.424200       0.078302
    24301.336600       0.076135
    24360.535900       0.073965
    24420.024400       0.071794
    24479.804200       0.069622
    24539.877300       0.067448
    24600.246000       0.065274
    24660.912500       0.063099
    24721.878900       0.060924
    24783.147500       0.058750
    24844.720500       0.056576
    24906.600200       0.054403
    24968.789000       0.052232
    25031.289100       0.050063
    25094.102900       0.047897
    25157.232700       0.045733
    25220.681000       0.043573
    25284.450100       0.041417
    25348.542500       0.039266
    25412.960600       0.037119
    25477.707000       0.034979
