58,   58, MVIRI VIS channel from srf_MET2_1989123_1989124_1801-Release_S10EL_10.dat
Number of data points:
730
Wavenumber (cm-1)   Filter response
     8916.629500       0.000000
     8924.587200       0.000000
     8932.559200       0.000002
     8940.545400       0.000012
     8948.545900       0.000032
     8956.560700       0.000070
     8964.589900       0.000127
     8972.633500       0.000210
     8980.691500       0.000321
     8988.764000       0.000465
     8996.851100       0.000645
     9004.952700       0.000866
     9013.068900       0.001129
     9021.199800       0.001439
     9029.345400       0.001799
     9037.505600       0.002211
     9045.680700       0.002678
     9053.870500       0.003203
     9062.075200       0.003789
     9070.294800       0.004437
     9078.529300       0.005151
     9086.778700       0.005931
     9095.043200       0.006781
     9103.322700       0.007702
     9111.617300       0.008695
     9119.927000       0.009763
     9128.251900       0.010907
     9136.592100       0.012128
     9144.947400       0.013428
     9153.318100       0.014808
     9161.704100       0.016269
     9170.105500       0.017811
     9178.522300       0.019437
     9186.954500       0.021146
     9195.402300       0.022940
     9203.865600       0.024819
     9212.344500       0.026783
     9220.839100       0.028834
     9229.349300       0.030971
     9237.875300       0.033195
     9246.417000       0.035506
     9254.974500       0.037904
     9263.547900       0.040389
     9272.137200       0.042962
     9280.742500       0.045622
     9289.363700       0.048369
     9298.000900       0.051203
     9306.654300       0.054124
     9315.323700       0.057131
     9324.009300       0.060224
     9332.711200       0.063403
     9341.429200       0.066667
     9350.163600       0.070015
     9358.914400       0.073448
     9367.681500       0.076964
     9376.465100       0.080563
     9385.265100       0.084244
     9394.081700       0.088006
     9402.914900       0.091849
     9411.764700       0.095771
     9420.631200       0.099773
     9429.514400       0.103852
     9438.414300       0.108008
     9447.331100       0.112240
     9456.264800       0.116547
     9465.215300       0.120928
     9474.182900       0.125381
     9483.167400       0.129907
     9492.169000       0.134503
     9501.187600       0.139168
     9510.223500       0.143902
     9519.276500       0.148702
     9528.346800       0.153569
     9537.434400       0.158500
     9546.539400       0.163494
     9555.661700       0.168551
     9564.801500       0.173667
     9573.958800       0.178844
     9583.133700       0.184079
     9592.326100       0.189369
     9601.536200       0.194716
     9610.764100       0.200116
     9620.009600       0.205569
     9629.273000       0.211074
     9638.554200       0.216628
     9647.853400       0.222230
     9657.170400       0.227879
     9666.505600       0.233574
     9675.858700       0.239313
     9685.230000       0.245095
     9694.619500       0.250918
     9704.027200       0.256780
     9713.453100       0.262681
     9722.897400       0.268620
     9732.360100       0.274592
     9741.841200       0.280600
     9751.340800       0.286640
     9760.859000       0.292711
     9770.395700       0.298812
     9779.951100       0.304941
     9789.525200       0.311097
     9799.118100       0.317278
     9808.729800       0.323483
     9818.360300       0.329711
     9828.009800       0.335959
     9837.678300       0.342228
     9847.365800       0.348515
     9857.072400       0.354818
     9866.798200       0.361138
     9876.543200       0.367470
     9886.307500       0.373817
     9896.091000       0.380175
     9905.894000       0.386542
     9915.716400       0.392918
     9925.558300       0.399301
     9935.419800       0.405691
     9945.300800       0.412086
     9955.201600       0.418483
     9965.122100       0.424884
     9975.062300       0.431284
     9985.022500       0.437685
     9995.002500       0.444084
    10005.002500       0.450480
    10015.022500       0.456871
    10025.062700       0.463258
    10035.122900       0.469638
    10045.203400       0.476010
    10055.304200       0.482374
    10065.425300       0.488727
    10075.566800       0.495069
    10085.728700       0.501399
    10095.911200       0.507716
    10106.114200       0.514018
    10116.337900       0.520304
    10126.582300       0.526574
    10136.847400       0.532826
    10147.133400       0.539060
    10157.440300       0.545273
    10167.768200       0.551466
    10178.117000       0.557637
    10188.487000       0.563786
    10198.878100       0.569911
    10209.290500       0.576011
    10219.724100       0.582086
    10230.179000       0.588134
    10240.655400       0.594156
    10251.153300       0.600149
    10261.672700       0.606113
    10272.213700       0.612047
    10282.776300       0.617950
    10293.360800       0.623823
    10303.967000       0.629662
    10314.595200       0.635469
    10325.245200       0.641242
    10335.917300       0.646981
    10346.611500       0.652684
    10357.327800       0.658351
    10368.066400       0.663982
    10378.827200       0.669576
    10389.610400       0.675132
    10400.416000       0.680649
    10411.244100       0.686126
    10422.094800       0.691565
    10432.968200       0.696962
    10443.864200       0.702319
    10454.783100       0.707635
    10465.724800       0.712908
    10476.689400       0.718139
    10487.677000       0.723327
    10498.687700       0.728471
    10509.721500       0.733572
    10520.778500       0.738627
    10531.858900       0.743638
    10542.962600       0.748604
    10554.089700       0.753524
    10565.240400       0.758398
    10576.414600       0.763225
    10587.612500       0.768006
    10598.834100       0.772740
    10610.079600       0.777425
    10621.348900       0.782063
    10632.642200       0.786653
    10643.959600       0.791195
    10655.301000       0.795687
    10666.666700       0.800131
    10678.056600       0.804525
    10689.470900       0.808870
    10700.909600       0.813166
    10712.372800       0.817411
    10723.860600       0.821607
    10735.373100       0.825752
    10746.910300       0.829847
    10758.472300       0.833891
    10770.059200       0.837884
    10781.671200       0.841827
    10793.308100       0.845718
    10804.970300       0.849559
    10816.657700       0.853349
    10828.370300       0.857087
    10840.108400       0.860774
    10851.871900       0.864409
    10863.661100       0.867994
    10875.475800       0.871527
    10887.316300       0.875008
    10899.182600       0.878438
    10911.074700       0.881817
    10922.992900       0.885144
    10934.937100       0.888419
    10946.907500       0.891644
    10958.904100       0.894817
    10970.927000       0.897938
    10982.976400       0.901009
    10995.052200       0.904028
    11007.154700       0.906996
    11019.283700       0.909914
    11031.439600       0.912780
    11043.622300       0.915596
    11055.832000       0.918360
    11068.068600       0.921075
    11080.332400       0.923739
    11092.623400       0.926353
    11104.941700       0.928916
    11117.287400       0.931430
    11129.660500       0.933894
    11142.061300       0.936308
    11154.489700       0.938673
    11166.945800       0.940988
    11179.429800       0.943254
    11191.941800       0.945472
    11204.481800       0.947641
    11217.049900       0.949761
    11229.646300       0.951833
    11242.270900       0.953858
    11254.924000       0.955834
    11267.605600       0.957763
    11280.315800       0.959644
    11293.054800       0.961479
    11305.822500       0.963266
    11318.619100       0.965007
    11331.444800       0.966702
    11344.299500       0.968351
    11357.183400       0.969954
    11370.096600       0.971511
    11383.039300       0.973023
    11396.011400       0.974490
    11409.013100       0.975913
    11422.044500       0.977291
    11435.105800       0.978625
    11448.196900       0.979916
    11461.318100       0.981163
    11474.469300       0.982366
    11487.650800       0.983527
    11500.862600       0.984645
    11514.104800       0.985721
    11527.377500       0.986755
    11540.680900       0.987748
    11554.015000       0.988699
    11567.380000       0.989609
    11580.775900       0.990478
    11594.202900       0.991307
    11607.661100       0.992096
    11621.150500       0.992846
    11634.671300       0.993555
    11648.223600       0.994226
    11661.807600       0.994858
    11675.423200       0.995452
    11689.070700       0.996008
    11702.750100       0.996526
    11716.461600       0.997006
    11730.205300       0.997450
    11743.981200       0.997856
    11757.789500       0.998227
    11771.630400       0.998561
    11785.503800       0.998859
    11799.410000       0.999122
    11813.349100       0.999350
    11827.321100       0.999543
    11841.326200       0.999702
    11855.364600       0.999827
    11869.436200       0.999918
    11883.541300       0.999976
    11897.680000       1.000000
    11911.852300       0.999992
    11926.058400       0.999951
    11940.298500       0.999878
    11954.572600       0.999774
    11968.880900       0.999637
    11983.223500       0.999470
    11997.600500       0.999272
    12012.012000       0.999044
    12026.458200       0.998785
    12040.939200       0.998496
    12055.455100       0.998178
    12070.006000       0.997831
    12084.592100       0.997455
    12099.213600       0.997050
    12113.870400       0.996616
    12128.562800       0.996155
    12143.290800       0.995666
    12158.054700       0.995150
    12172.854500       0.994607
    12187.690400       0.994037
    12202.562500       0.993440
    12217.471000       0.992817
    12232.415900       0.992168
    12247.397400       0.991494
    12262.415700       0.990794
    12277.470800       0.990069
    12292.563000       0.989320
    12307.692300       0.988545
    12322.858900       0.987747
    12338.062900       0.986925
    12353.304500       0.986079
    12368.583800       0.985209
    12383.900900       0.984317
    12399.256000       0.983401
    12414.649300       0.982463
    12430.080800       0.981502
    12445.550700       0.980520
    12461.059200       0.979515
    12476.606400       0.978489
    12492.192400       0.977441
    12507.817400       0.976373
    12523.481500       0.975283
    12539.185000       0.974173
    12554.927800       0.973042
    12570.710200       0.971891
    12586.532400       0.970720
    12602.394500       0.969529
    12618.296500       0.968319
    12634.238800       0.967089
    12650.221400       0.965841
    12666.244500       0.964573
    12682.308200       0.963287
    12698.412700       0.961982
    12714.558200       0.960659
    12730.744700       0.959318
    12746.972600       0.957958
    12763.241900       0.956582
    12779.552700       0.955187
    12795.905300       0.953776
    12812.299800       0.952347
    12828.736400       0.950901
    12845.215200       0.949439
    12861.736300       0.947960
    12878.300100       0.946464
    12894.906500       0.944952
    12911.555800       0.943424
    12928.248200       0.941881
    12944.983800       0.940321
    12961.762800       0.938746
    12978.585300       0.937155
    12995.451600       0.935549
    13012.361700       0.933928
    13029.316000       0.932292
    13046.314400       0.930641
    13063.357300       0.928975
    13080.444700       0.927295
    13097.576900       0.925600
    13114.754100       0.923891
    13131.976400       0.922168
    13149.243900       0.920431
    13166.556900       0.918680
    13183.915600       0.916915
    13201.320100       0.915137
    13218.770700       0.913344
    13236.267400       0.911539
    13253.810500       0.909720
    13271.400100       0.907888
    13289.036500       0.906043
    13306.719900       0.904185
    13324.450400       0.902314
    13342.228200       0.900431
    13360.053400       0.898534
    13377.926400       0.896626
    13395.847300       0.894704
    13413.816200       0.892771
    13431.833400       0.890825
    13449.899100       0.888867
    13468.013500       0.886897
    13486.176700       0.884915
    13504.388900       0.882921
    13522.650400       0.880915
    13540.961400       0.878898
    13559.322000       0.876869
    13577.732500       0.874828
    13596.193100       0.872776
    13614.703900       0.870713
    13633.265200       0.868638
    13651.877100       0.866553
    13670.540000       0.864456
    13689.253900       0.862348
    13708.019200       0.860229
    13726.836000       0.858099
    13745.704500       0.855958
    13764.624900       0.853807
    13783.597500       0.851645
    13802.622500       0.849472
    13821.700100       0.847289
    13840.830400       0.845095
    13860.013900       0.842891
    13879.250500       0.840676
    13898.540700       0.838452
    13917.884500       0.836217
    13937.282200       0.833972
    13956.734100       0.831716
    13976.240400       0.829451
    13995.801300       0.827176
    14015.417000       0.824892
    14035.087700       0.822597
    14054.813800       0.820293
    14074.595400       0.817978
    14094.432700       0.815655
    14114.326000       0.813322
    14134.275600       0.810979
    14154.281700       0.808627
    14174.344400       0.806266
    14194.464200       0.803895
    14214.641100       0.801515
    14234.875400       0.799126
    14255.167500       0.796728
    14275.517500       0.794321
    14295.925700       0.791905
    14316.392300       0.789480
    14336.917600       0.787046
    14357.501800       0.784604
    14378.145200       0.782153
    14398.848100       0.779693
    14419.610700       0.777225
    14440.433200       0.774748
    14461.316000       0.772263
    14482.259200       0.769769
    14503.263200       0.767267
    14524.328200       0.764758
    14545.454500       0.762240
    14566.642400       0.759714
    14587.892000       0.757180
    14609.203800       0.754638
    14630.577900       0.752088
    14652.014700       0.749531
    14673.514300       0.746966
    14695.077100       0.744393
    14716.703500       0.741813
    14738.393500       0.739226
    14760.147600       0.736631
    14781.966000       0.734029
    14803.849000       0.731420
    14825.796900       0.728803
    14847.809900       0.726180
    14869.888500       0.723550
    14892.032800       0.720913
    14914.243100       0.718269
    14936.519800       0.715619
    14958.863100       0.712962
    14981.273400       0.710299
    15003.750900       0.707630
    15026.296000       0.704954
    15048.909000       0.702272
    15071.590100       0.699584
    15094.339600       0.696890
    15117.158000       0.694190
    15140.045400       0.691485
    15163.002300       0.688774
    15186.028900       0.686057
    15209.125500       0.683335
    15232.292500       0.680607
    15255.530100       0.677875
    15278.838800       0.675137
    15302.218800       0.672394
    15325.670500       0.669647
    15349.194200       0.666894
    15372.790200       0.664138
    15396.458800       0.661376
    15420.200500       0.658610
    15444.015400       0.655840
    15467.904100       0.653066
    15491.866800       0.650287
    15515.903800       0.647505
    15540.015500       0.644719
    15564.202300       0.641929
    15588.464500       0.639136
    15612.802500       0.636339
    15637.216600       0.633539
    15661.707100       0.630736
    15686.274500       0.627930
    15710.919100       0.625121
    15735.641200       0.622309
    15760.441300       0.619495
    15785.319700       0.616678
    15810.276700       0.613858
    15835.312700       0.611037
    15860.428200       0.608213
    15885.623500       0.605388
    15910.899000       0.602561
    15936.255000       0.599732
    15961.691900       0.596901
    15987.210200       0.594070
    16012.810200       0.591236
    16038.492400       0.588402
    16064.257000       0.585567
    16090.104600       0.582732
    16116.035500       0.579895
    16142.050000       0.577058
    16168.148700       0.574221
    16194.332000       0.571383
    16220.600200       0.568546
    16246.953700       0.565708
    16273.393000       0.562871
    16299.918500       0.560034
    16326.530600       0.557198
    16353.229800       0.554362
    16380.016400       0.551527
    16406.890900       0.548693
    16433.853700       0.545861
    16460.905300       0.543029
    16488.046200       0.540200
    16515.276600       0.537371
    16542.597200       0.534544
    16570.008300       0.531720
    16597.510400       0.528897
    16625.103900       0.526077
    16652.789300       0.523258
    16680.567100       0.520443
    16708.437800       0.517630
    16736.401700       0.514819
    16764.459300       0.512012
    16792.611300       0.509208
    16820.857900       0.506407
    16849.199700       0.503609
    16877.637100       0.500815
    16906.170800       0.498024
    16934.801000       0.495237
    16963.528400       0.492455
    16992.353400       0.489676
    17021.276600       0.486901
    17050.298400       0.484131
    17079.419300       0.481365
    17108.639900       0.478604
    17137.960600       0.475848
    17167.382000       0.473096
    17196.904600       0.470350
    17226.528900       0.467609
    17256.255400       0.464872
    17286.084700       0.462142
    17316.017300       0.459417
    17346.053800       0.456697
    17376.194600       0.453983
    17406.440400       0.451276
    17436.791600       0.448574
    17467.248900       0.445878
    17497.812800       0.443188
    17528.483800       0.440505
    17559.262500       0.437828
    17590.149500       0.435158
    17621.145400       0.432494
    17652.250700       0.429838
    17683.466000       0.427188
    17714.791900       0.424545
    17746.228900       0.421909
    17777.777800       0.419280
    17809.439000       0.416658
    17841.213200       0.414044
    17873.101000       0.411437
    17905.103000       0.408837
    17937.219700       0.406246
    17969.451900       0.403661
    18001.800200       0.401085
    18034.265100       0.398516
    18066.847300       0.395955
    18099.547500       0.393401
    18132.366300       0.390856
    18165.304300       0.388319
    18198.362100       0.385790
    18231.540600       0.383269
    18264.840200       0.380756
    18298.261700       0.378251
    18331.805700       0.375754
    18365.472900       0.373266
    18399.264000       0.370786
    18433.179700       0.368314
    18467.220700       0.365850
    18501.387600       0.363395
    18535.681200       0.360948
    18570.102100       0.358510
    18604.651200       0.356080
    18639.329000       0.353658
    18674.136300       0.351245
    18709.073900       0.348840
    18744.142500       0.346444
    18779.342700       0.344055
    18814.675400       0.341676
    18850.141400       0.339304
    18885.741300       0.336941
    18921.475900       0.334586
    18957.346000       0.332239
    18993.352300       0.329900
    19029.495700       0.327570
    19065.776900       0.325248
    19102.196800       0.322933
    19138.756000       0.320627
    19175.455400       0.318329
    19212.295900       0.316038
    19249.278200       0.313756
    19286.403100       0.311481
    19323.671500       0.309213
    19361.084200       0.306954
    19398.642100       0.304702
    19436.346000       0.302457
    19474.196700       0.300220
    19512.195100       0.297989
    19550.342100       0.295766
    19588.638600       0.293550
    19627.085400       0.291341
    19665.683400       0.289139
    19704.433500       0.286944
    19743.336600       0.284755
    19782.393700       0.282572
    19821.605600       0.280396
    19860.973200       0.278226
    19900.497500       0.276062
    19940.179500       0.273904
    19980.020000       0.271752
    20020.020000       0.269605
    20060.180500       0.267464
    20100.502500       0.265329
    20140.986900       0.263198
    20181.634700       0.261073
    20222.446900       0.258952
    20263.424500       0.256836
    20304.568500       0.254725
    20345.880000       0.252617
    20387.359800       0.250515
    20429.009200       0.248416
    20470.829100       0.246321
    20512.820500       0.244229
    20554.984600       0.242141
    20597.322300       0.240057
    20639.834900       0.237975
    20682.523300       0.235897
    20725.388600       0.233821
    20768.432000       0.231747
    20811.654500       0.229676
    20855.057400       0.227607
    20898.641600       0.225540
    20942.408400       0.223474
    20986.358900       0.221410
    21030.494200       0.219348
    21074.815600       0.217286
    21119.324200       0.215226
    21164.021200       0.213166
    21208.907700       0.211106
    21253.985100       0.209047
    21299.254500       0.206988
    21344.717200       0.204928
    21390.374300       0.202869
    21436.227200       0.200808
    21482.277100       0.198747
    21528.525300       0.196685
    21574.973000       0.194622
    21621.621600       0.192557
    21668.472400       0.190491
    21715.526600       0.188423
    21762.785600       0.186353
    21810.250800       0.184281
    21857.923500       0.182206
    21905.805000       0.180129
    21953.896800       0.178049
    22002.200200       0.175966
    22050.716600       0.173880
    22099.447500       0.171791
    22148.394200       0.169698
    22197.558300       0.167602
    22246.941000       0.165502
    22296.544000       0.163397
    22346.368700       0.161289
    22396.416600       0.159176
    22446.689100       0.157059
    22497.187900       0.154937
    22547.914300       0.152811
    22598.870100       0.150679
    22650.056600       0.148543
    22701.475600       0.146401
    22753.128600       0.144255
    22805.017100       0.142103
    22857.142900       0.139945
    22909.507400       0.137782
    22962.112500       0.135614
    23014.959700       0.133440
    23068.050700       0.131260
    23121.387300       0.129074
    23174.971000       0.126883
    23228.803700       0.124686
    23282.887100       0.122483
    23337.222900       0.120274
    23391.812900       0.118059
    23446.658900       0.115838
    23501.762600       0.113612
    23557.126000       0.111380
    23612.750900       0.109142
    23668.639100       0.106898
    23724.792400       0.104649
    23781.212800       0.102394
    23837.902300       0.100134
    23894.862600       0.097869
    23952.095800       0.095598
    24009.603800       0.093323
    24067.388700       0.091042
    24125.452400       0.088757
    24183.796900       0.086468
    24242.424200       0.084174
    24301.336600       0.081876
    24360.535900       0.079575
    24420.024400       0.077270
    24479.804200       0.074962
    24539.877300       0.072651
    24600.246000       0.070337
    24660.912500       0.068022
    24721.878900       0.065704
    24783.147500       0.063385
    24844.720500       0.061065
    24906.600200       0.058744
    24968.789000       0.056424
    25031.289100       0.054103
    25094.102900       0.051784
    25157.232700       0.049466
    25220.681000       0.047149
    25284.450100       0.044835
    25348.542500       0.042525
    25412.960600       0.040218
    25477.707000       0.037915
