  12  ,metop_02_hirs_12.flt
Number of data points:
862
Wavenumber (cm-1)   Filter response
     1486.900000       0.000000
     1487.000000       0.003603
     1487.100000       0.003674
     1487.200000       0.003755
     1487.300000       0.003848
     1487.400000       0.003949
     1487.500000       0.004060
     1487.600000       0.004178
     1487.700000       0.004302
     1487.800000       0.004431
     1487.900000       0.004563
     1488.000000       0.004696
     1488.100000       0.004829
     1488.200000       0.004959
     1488.300000       0.005086
     1488.400000       0.005209
     1488.500000       0.005325
     1488.600000       0.005434
     1488.700000       0.005535
     1488.800000       0.005627
     1488.900000       0.005709
     1489.000000       0.005783
     1489.100000       0.005847
     1489.200000       0.005903
     1489.300000       0.005951
     1489.400000       0.005992
     1489.500000       0.006028
     1489.600000       0.006059
     1489.700000       0.006088
     1489.800000       0.006116
     1489.900000       0.006144
     1490.000000       0.006174
     1490.100000       0.006208
     1490.200000       0.006248
     1490.300000       0.006294
     1490.400000       0.006349
     1490.500000       0.006414
     1490.600000       0.006490
     1490.700000       0.006579
     1490.800000       0.006680
     1490.900000       0.006795
     1491.000000       0.006924
     1491.100000       0.007067
     1491.200000       0.007225
     1491.300000       0.007397
     1491.400000       0.007582
     1491.500000       0.007780
     1491.600000       0.007990
     1491.700000       0.008210
     1491.800000       0.008440
     1491.900000       0.008678
     1492.000000       0.008924
     1492.100000       0.009177
     1492.200000       0.009435
     1492.300000       0.009697
     1492.400000       0.009962
     1492.500000       0.010229
     1492.600000       0.010497
     1492.700000       0.010767
     1492.800000       0.011039
     1492.900000       0.011312
     1493.000000       0.011588
     1493.100000       0.011869
     1493.200000       0.012155
     1493.300000       0.012447
     1493.400000       0.012746
     1493.500000       0.013055
     1493.600000       0.013375
     1493.700000       0.013708
     1493.800000       0.014057
     1493.900000       0.014425
     1494.000000       0.014814
     1494.100000       0.015217
     1494.200000       0.015646
     1494.300000       0.016102
     1494.400000       0.016590
     1494.500000       0.017111
     1494.600000       0.017668
     1494.700000       0.018262
     1494.800000       0.018895
     1494.900000       0.019570
     1495.000000       0.020290
     1495.100000       0.021056
     1495.200000       0.021867
     1495.300000       0.022725
     1495.400000       0.023629
     1495.500000       0.024582
     1495.600000       0.025584
     1495.700000       0.026634
     1495.800000       0.027734
     1495.900000       0.028884
     1496.000000       0.030084
     1496.100000       0.031340
     1496.200000       0.032648
     1496.300000       0.034009
     1496.400000       0.035425
     1496.500000       0.036896
     1496.600000       0.038424
     1496.700000       0.040012
     1496.800000       0.041661
     1496.900000       0.043371
     1497.000000       0.045141
     1497.100000       0.046981
     1497.200000       0.048893
     1497.300000       0.050880
     1497.400000       0.052947
     1497.500000       0.055098
     1497.600000       0.057336
     1497.700000       0.059666
     1497.800000       0.062093
     1497.900000       0.064620
     1498.000000       0.067254
     1498.100000       0.070019
     1498.200000       0.072277
     1498.300000       0.075257
     1498.400000       0.078364
     1498.500000       0.081602
     1498.600000       0.084976
     1498.700000       0.088491
     1498.800000       0.092142
     1498.900000       0.095904
     1499.000000       0.099816
     1499.100000       0.103880
     1499.200000       0.108100
     1499.300000       0.112480
     1499.400000       0.117020
     1499.500000       0.121730
     1499.600000       0.126610
     1499.700000       0.131670
     1499.800000       0.136900
     1499.900000       0.142310
     1500.000000       0.147900
     1500.100000       0.153680
     1500.200000       0.159640
     1500.300000       0.165800
     1500.400000       0.172160
     1500.500000       0.178720
     1500.600000       0.185480
     1500.700000       0.192450
     1500.800000       0.199600
     1500.900000       0.206950
     1501.000000       0.214510
     1501.100000       0.222300
     1501.200000       0.230300
     1501.300000       0.238530
     1501.400000       0.246980
     1501.500000       0.255650
     1501.600000       0.264550
     1501.700000       0.273670
     1501.800000       0.283010
     1501.900000       0.292570
     1502.000000       0.302340
     1502.100000       0.312300
     1502.200000       0.322450
     1502.300000       0.332800
     1502.400000       0.343340
     1502.500000       0.354040
     1502.600000       0.364910
     1502.700000       0.375940
     1502.800000       0.387120
     1502.900000       0.398420
     1503.000000       0.409830
     1503.100000       0.421340
     1503.200000       0.432930
     1503.300000       0.444570
     1503.400000       0.456260
     1503.500000       0.467970
     1503.600000       0.479700
     1503.700000       0.491430
     1503.800000       0.503130
     1503.900000       0.514790
     1504.000000       0.526410
     1504.100000       0.537850
     1504.200000       0.549200
     1504.300000       0.560460
     1504.400000       0.571610
     1504.500000       0.582640
     1504.600000       0.593590
     1504.700000       0.604520
     1504.800000       0.615310
     1504.900000       0.625950
     1505.000000       0.636430
     1505.100000       0.646760
     1505.200000       0.656920
     1505.300000       0.666900
     1505.400000       0.676720
     1505.500000       0.686350
     1505.600000       0.695800
     1505.700000       0.705070
     1505.800000       0.714150
     1505.900000       0.723030
     1506.000000       0.731720
     1506.100000       0.740380
     1506.200000       0.748850
     1506.300000       0.757110
     1506.400000       0.765160
     1506.500000       0.773010
     1506.600000       0.780950
     1506.700000       0.788680
     1506.800000       0.796180
     1506.900000       0.803470
     1507.000000       0.810530
     1507.100000       0.817340
     1507.200000       0.823920
     1507.300000       0.830260
     1507.400000       0.836360
     1507.500000       0.842200
     1507.600000       0.847800
     1507.700000       0.853160
     1507.800000       0.858250
     1507.900000       0.863100
     1508.000000       0.867700
     1508.100000       0.872160
     1508.200000       0.876380
     1508.300000       0.880370
     1508.400000       0.884120
     1508.500000       0.888030
     1508.600000       0.891890
     1508.700000       0.895540
     1508.800000       0.899000
     1508.900000       0.902260
     1509.000000       0.905350
     1509.100000       0.908270
     1509.200000       0.911020
     1509.300000       0.913630
     1509.400000       0.916090
     1509.500000       0.918420
     1509.600000       0.920630
     1509.700000       0.922720
     1509.800000       0.924700
     1509.900000       0.926580
     1510.000000       0.928370
     1510.100000       0.929970
     1510.200000       0.931470
     1510.300000       0.932900
     1510.400000       0.934390
     1510.500000       0.936010
     1510.600000       0.937560
     1510.700000       0.939050
     1510.800000       0.940480
     1510.900000       0.941840
     1511.000000       0.943140
     1511.100000       0.944390
     1511.200000       0.945580
     1511.300000       0.946710
     1511.400000       0.947790
     1511.500000       0.948810
     1511.600000       0.949780
     1511.700000       0.950700
     1511.800000       0.951570
     1511.900000       0.952400
     1512.000000       0.953180
     1512.100000       0.954030
     1512.200000       0.954840
     1512.300000       0.955590
     1512.400000       0.955970
     1512.500000       0.956330
     1512.600000       0.956680
     1512.700000       0.957020
     1512.800000       0.957350
     1512.900000       0.957680
     1513.000000       0.958020
     1513.100000       0.958360
     1513.200000       0.958700
     1513.300000       0.959060
     1513.400000       0.959430
     1513.500000       0.959810
     1513.600000       0.960200
     1513.700000       0.960600
     1513.800000       0.961020
     1513.900000       0.961430
     1514.000000       0.961850
     1514.100000       0.962450
     1514.200000       0.963040
     1514.300000       0.963030
     1514.400000       0.962850
     1514.500000       0.962650
     1514.600000       0.962410
     1514.700000       0.962140
     1514.800000       0.961830
     1514.900000       0.961470
     1515.000000       0.961070
     1515.100000       0.960610
     1515.200000       0.960090
     1515.300000       0.959520
     1515.400000       0.958900
     1515.500000       0.958230
     1515.600000       0.957520
     1515.700000       0.956760
     1515.800000       0.955970
     1515.900000       0.955150
     1516.000000       0.954300
     1516.100000       0.953350
     1516.200000       0.952210
     1516.300000       0.950900
     1516.400000       0.949590
     1516.500000       0.948300
     1516.600000       0.947040
     1516.700000       0.945820
     1516.800000       0.944630
     1516.900000       0.943490
     1517.000000       0.942400
     1517.100000       0.941370
     1517.200000       0.940390
     1517.300000       0.939470
     1517.400000       0.938600
     1517.500000       0.937770
     1517.600000       0.936990
     1517.700000       0.936240
     1517.800000       0.935510
     1517.900000       0.934810
     1518.000000       0.934110
     1518.100000       0.933680
     1518.200000       0.933340
     1518.300000       0.932960
     1518.400000       0.932550
     1518.500000       0.932090
     1518.600000       0.931570
     1518.700000       0.930980
     1518.800000       0.930310
     1518.900000       0.929550
     1519.000000       0.928710
     1519.100000       0.927770
     1519.200000       0.926730
     1519.300000       0.925590
     1519.400000       0.924350
     1519.500000       0.923030
     1519.600000       0.921620
     1519.700000       0.920130
     1519.800000       0.918580
     1519.900000       0.916960
     1520.000000       0.915310
     1520.100000       0.914090
     1520.200000       0.912860
     1520.300000       0.911620
     1520.400000       0.910400
     1520.500000       0.909200
     1520.600000       0.908050
     1520.700000       0.906950
     1520.800000       0.905920
     1520.900000       0.904970
     1521.000000       0.904120
     1521.100000       0.903350
     1521.200000       0.902690
     1521.300000       0.902140
     1521.400000       0.901700
     1521.500000       0.901380
     1521.600000       0.901170
     1521.700000       0.901070
     1521.800000       0.901070
     1521.900000       0.901170
     1522.000000       0.901660
     1522.100000       0.902660
     1522.200000       0.903720
     1522.300000       0.904830
     1522.400000       0.905980
     1522.500000       0.907150
     1522.600000       0.908340
     1522.700000       0.909520
     1522.800000       0.910690
     1522.900000       0.911830
     1523.000000       0.912930
     1523.100000       0.913980
     1523.200000       0.914990
     1523.300000       0.915930
     1523.400000       0.916800
     1523.500000       0.917610
     1523.600000       0.918350
     1523.700000       0.919020
     1523.800000       0.919630
     1523.900000       0.920290
     1524.000000       0.921060
     1524.100000       0.921680
     1524.200000       0.922260
     1524.300000       0.922810
     1524.400000       0.923340
     1524.500000       0.923870
     1524.600000       0.924390
     1524.700000       0.924920
     1524.800000       0.925480
     1524.900000       0.926060
     1525.000000       0.926680
     1525.100000       0.927350
     1525.200000       0.928070
     1525.300000       0.928850
     1525.400000       0.929690
     1525.500000       0.930590
     1525.600000       0.931560
     1525.700000       0.932600
     1525.800000       0.933700
     1525.900000       0.934830
     1526.000000       0.936030
     1526.100000       0.937370
     1526.200000       0.938760
     1526.300000       0.940190
     1526.400000       0.941650
     1526.500000       0.943140
     1526.600000       0.944650
     1526.700000       0.946170
     1526.800000       0.947690
     1526.900000       0.949220
     1527.000000       0.950740
     1527.100000       0.952230
     1527.200000       0.953710
     1527.300000       0.955160
     1527.400000       0.956590
     1527.500000       0.958000
     1527.600000       0.959380
     1527.700000       0.960740
     1527.800000       0.961890
     1527.900000       0.962960
     1528.000000       0.964020
     1528.100000       0.965160
     1528.200000       0.966300
     1528.300000       0.967420
     1528.400000       0.968540
     1528.500000       0.969670
     1528.600000       0.970790
     1528.700000       0.971930
     1528.800000       0.973070
     1528.900000       0.974240
     1529.000000       0.975420
     1529.100000       0.976610
     1529.200000       0.977830
     1529.300000       0.979070
     1529.400000       0.980330
     1529.500000       0.981620
     1529.600000       0.982920
     1529.700000       0.984040
     1529.800000       0.984970
     1529.900000       0.985900
     1530.000000       0.986850
     1530.100000       0.987850
     1530.200000       0.988840
     1530.300000       0.989830
     1530.400000       0.990810
     1530.500000       0.991770
     1530.600000       0.992710
     1530.700000       0.993620
     1530.800000       0.994510
     1530.900000       0.995360
     1531.000000       0.996170
     1531.100000       0.996940
     1531.200000       0.997670
     1531.300000       0.998360
     1531.400000       0.998990
     1531.500000       0.999590
     1531.600000       1.000000
     1531.700000       0.999840
     1531.800000       0.999640
     1531.900000       0.999390
     1532.000000       0.999110
     1532.100000       0.999050
     1532.200000       0.998960
     1532.300000       0.998830
     1532.400000       0.998680
     1532.500000       0.998500
     1532.600000       0.998290
     1532.700000       0.998070
     1532.800000       0.997840
     1532.900000       0.997590
     1533.000000       0.997350
     1533.100000       0.997100
     1533.200000       0.996860
     1533.300000       0.996620
     1533.400000       0.996400
     1533.500000       0.996190
     1533.600000       0.995470
     1533.700000       0.994720
     1533.800000       0.993980
     1533.900000       0.993270
     1534.000000       0.992590
     1534.100000       0.991510
     1534.200000       0.990460
     1534.300000       0.989440
     1534.400000       0.988450
     1534.500000       0.987480
     1534.600000       0.986530
     1534.700000       0.985600
     1534.800000       0.984680
     1534.900000       0.983770
     1535.000000       0.982870
     1535.100000       0.981970
     1535.200000       0.981050
     1535.300000       0.980130
     1535.400000       0.979180
     1535.500000       0.978150
     1535.600000       0.977050
     1535.700000       0.975910
     1535.800000       0.974710
     1535.900000       0.973470
     1536.000000       0.972150
     1536.100000       0.971070
     1536.200000       0.969910
     1536.300000       0.968660
     1536.400000       0.967330
     1536.500000       0.965900
     1536.600000       0.964380
     1536.700000       0.962760
     1536.800000       0.961040
     1536.900000       0.959230
     1537.000000       0.957320
     1537.100000       0.955330
     1537.200000       0.953250
     1537.300000       0.951070
     1537.400000       0.949020
     1537.500000       0.947180
     1537.600000       0.945280
     1537.700000       0.943320
     1537.800000       0.941310
     1537.900000       0.939260
     1538.000000       0.937180
     1538.100000       0.934970
     1538.200000       0.932750
     1538.300000       0.930530
     1538.400000       0.928320
     1538.500000       0.926120
     1538.600000       0.923950
     1538.700000       0.921820
     1538.800000       0.919720
     1538.900000       0.917660
     1539.000000       0.915650
     1539.100000       0.913700
     1539.200000       0.911790
     1539.300000       0.910010
     1539.400000       0.908870
     1539.500000       0.907790
     1539.600000       0.906760
     1539.700000       0.905780
     1539.800000       0.904830
     1539.900000       0.903920
     1540.000000       0.903050
     1540.100000       0.902240
     1540.200000       0.901450
     1540.300000       0.900680
     1540.400000       0.899910
     1540.500000       0.899150
     1540.600000       0.898380
     1540.700000       0.897600
     1540.800000       0.896800
     1540.900000       0.895970
     1541.000000       0.895120
     1541.100000       0.894240
     1541.200000       0.893310
     1541.300000       0.892890
     1541.400000       0.892560
     1541.500000       0.892170
     1541.600000       0.891740
     1541.700000       0.891250
     1541.800000       0.890710
     1541.900000       0.890110
     1542.000000       0.889450
     1542.100000       0.888730
     1542.200000       0.887940
     1542.300000       0.887090
     1542.400000       0.886170
     1542.500000       0.885200
     1542.600000       0.884160
     1542.700000       0.883050
     1542.800000       0.881880
     1542.900000       0.880650
     1543.000000       0.879340
     1543.100000       0.877970
     1543.200000       0.876820
     1543.300000       0.875880
     1543.400000       0.874870
     1543.500000       0.873780
     1543.600000       0.872630
     1543.700000       0.871400
     1543.800000       0.870100
     1543.900000       0.868730
     1544.000000       0.867300
     1544.100000       0.865650
     1544.200000       0.863950
     1544.300000       0.862200
     1544.400000       0.860390
     1544.500000       0.858530
     1544.600000       0.856640
     1544.700000       0.854710
     1544.800000       0.852770
     1544.900000       0.850800
     1545.000000       0.848830
     1545.100000       0.846870
     1545.200000       0.845000
     1545.300000       0.843140
     1545.400000       0.841300
     1545.500000       0.839490
     1545.600000       0.837700
     1545.700000       0.835960
     1545.800000       0.834250
     1545.900000       0.832590
     1546.000000       0.830980
     1546.100000       0.829320
     1546.200000       0.827710
     1546.300000       0.826150
     1546.400000       0.824640
     1546.500000       0.823170
     1546.600000       0.821740
     1546.700000       0.820360
     1546.800000       0.819010
     1546.900000       0.817690
     1547.000000       0.816390
     1547.100000       0.814730
     1547.200000       0.813050
     1547.300000       0.811390
     1547.400000       0.809730
     1547.500000       0.808080
     1547.600000       0.806450
     1547.700000       0.804820
     1547.800000       0.803200
     1547.900000       0.801590
     1548.000000       0.799990
     1548.100000       0.798390
     1548.200000       0.796820
     1548.300000       0.795280
     1548.400000       0.793780
     1548.500000       0.792330
     1548.600000       0.790940
     1548.700000       0.789630
     1548.800000       0.788400
     1548.900000       0.787270
     1549.000000       0.785810
     1549.100000       0.784180
     1549.200000       0.782690
     1549.300000       0.781350
     1549.400000       0.780170
     1549.500000       0.779160
     1549.600000       0.778320
     1549.700000       0.777660
     1549.800000       0.777190
     1549.900000       0.776920
     1550.000000       0.776830
     1550.100000       0.776820
     1550.200000       0.777000
     1550.300000       0.777370
     1550.400000       0.777930
     1550.500000       0.778670
     1550.600000       0.779580
     1550.700000       0.780660
     1550.800000       0.781900
     1550.900000       0.783070
     1551.000000       0.783860
     1551.100000       0.784780
     1551.200000       0.785800
     1551.300000       0.786930
     1551.400000       0.788150
     1551.500000       0.789450
     1551.600000       0.790820
     1551.700000       0.792240
     1551.800000       0.793710
     1551.900000       0.795220
     1552.000000       0.796750
     1552.100000       0.798390
     1552.200000       0.800040
     1552.300000       0.801700
     1552.400000       0.803340
     1552.500000       0.804970
     1552.600000       0.806570
     1552.700000       0.808130
     1552.800000       0.809600
     1552.900000       0.810670
     1553.000000       0.811660
     1553.100000       0.812550
     1553.200000       0.813340
     1553.300000       0.814000
     1553.400000       0.814520
     1553.500000       0.814870
     1553.600000       0.815030
     1553.700000       0.814990
     1553.800000       0.814720
     1553.900000       0.814180
     1554.000000       0.813360
     1554.100000       0.812150
     1554.200000       0.810610
     1554.300000       0.808690
     1554.400000       0.806390
     1554.500000       0.803660
     1554.600000       0.800500
     1554.700000       0.796870
     1554.800000       0.792920
     1554.900000       0.788500
     1555.000000       0.783560
     1555.100000       0.778090
     1555.200000       0.772080
     1555.300000       0.765510
     1555.400000       0.758380
     1555.500000       0.750690
     1555.600000       0.742450
     1555.700000       0.733660
     1555.800000       0.724340
     1555.900000       0.714500
     1556.000000       0.704160
     1556.100000       0.693230
     1556.200000       0.681850
     1556.300000       0.670050
     1556.400000       0.657860
     1556.500000       0.645300
     1556.600000       0.632410
     1556.700000       0.619530
     1556.800000       0.606680
     1556.900000       0.593580
     1557.000000       0.580270
     1557.100000       0.566800
     1557.200000       0.553190
     1557.300000       0.539480
     1557.400000       0.525700
     1557.500000       0.511900
     1557.600000       0.498090
     1557.700000       0.484310
     1557.800000       0.470580
     1557.900000       0.456940
     1558.000000       0.443400
     1558.100000       0.430020
     1558.200000       0.416790
     1558.300000       0.403710
     1558.400000       0.390810
     1558.500000       0.378100
     1558.600000       0.365670
     1558.700000       0.353730
     1558.800000       0.341990
     1558.900000       0.330450
     1559.000000       0.319120
     1559.100000       0.308010
     1559.200000       0.297120
     1559.300000       0.286460
     1559.400000       0.276040
     1559.500000       0.265850
     1559.600000       0.255890
     1559.700000       0.246190
     1559.800000       0.236730
     1559.900000       0.227520
     1560.000000       0.218560
     1560.100000       0.209820
     1560.200000       0.201330
     1560.300000       0.193110
     1560.400000       0.185140
     1560.500000       0.177440
     1560.600000       0.170090
     1560.700000       0.163000
     1560.800000       0.156160
     1560.900000       0.149560
     1561.000000       0.143210
     1561.100000       0.137110
     1561.200000       0.131230
     1561.300000       0.125600
     1561.400000       0.120190
     1561.500000       0.115000
     1561.600000       0.110020
     1561.700000       0.105260
     1561.800000       0.100690
     1561.900000       0.096313
     1562.000000       0.092121
     1562.100000       0.088109
     1562.200000       0.084263
     1562.300000       0.080577
     1562.400000       0.077042
     1562.500000       0.073663
     1562.600000       0.070426
     1562.700000       0.067319
     1562.800000       0.064334
     1562.900000       0.061467
     1563.000000       0.058714
     1563.100000       0.056631
     1563.200000       0.054080
     1563.300000       0.051636
     1563.400000       0.049297
     1563.500000       0.047061
     1563.600000       0.044928
     1563.700000       0.042895
     1563.800000       0.040962
     1563.900000       0.039129
     1564.000000       0.037394
     1564.100000       0.035761
     1564.200000       0.034223
     1564.300000       0.032781
     1564.400000       0.031431
     1564.500000       0.030168
     1564.600000       0.028995
     1564.700000       0.027907
     1564.800000       0.026901
     1564.900000       0.025973
     1565.000000       0.025117
     1565.100000       0.024329
     1565.200000       0.023602
     1565.300000       0.022931
     1565.400000       0.022308
     1565.500000       0.021727
     1565.600000       0.021180
     1565.700000       0.020662
     1565.800000       0.020166
     1565.900000       0.019684
     1566.000000       0.019211
     1566.100000       0.018739
     1566.200000       0.018265
     1566.300000       0.017785
     1566.400000       0.017283
     1566.500000       0.016769
     1566.600000       0.016242
     1566.700000       0.015700
     1566.800000       0.015144
     1566.900000       0.014573
     1567.000000       0.013991
     1567.100000       0.013398
     1567.200000       0.012799
     1567.300000       0.012196
     1567.400000       0.011595
     1567.500000       0.010999
     1567.600000       0.010414
     1567.700000       0.009844
     1567.800000       0.009293
     1567.900000       0.008768
     1568.000000       0.008271
     1568.100000       0.007809
     1568.200000       0.007382
     1568.300000       0.006990
     1568.400000       0.006638
     1568.500000       0.006328
     1568.600000       0.006062
     1568.700000       0.005837
     1568.800000       0.005654
     1568.900000       0.005510
     1569.000000       0.005404
     1569.100000       0.005331
     1569.200000       0.005288
     1569.300000       0.005271
     1569.400000       0.005275
     1569.500000       0.005296
     1569.600000       0.005328
     1569.700000       0.005366
     1569.800000       0.005405
     1569.900000       0.005442
     1570.000000       0.005470
     1570.100000       0.005485
     1570.200000       0.005484
     1570.300000       0.005465
     1570.400000       0.005425
     1570.500000       0.005363
     1570.600000       0.005278
     1570.700000       0.005170
     1570.800000       0.005040
     1570.900000       0.004888
     1571.000000       0.004718
     1571.100000       0.004530
     1571.200000       0.004328
     1571.300000       0.004116
     1571.400000       0.003895
     1571.500000       0.003671
     1571.600000       0.003446
     1571.700000       0.003225
     1571.800000       0.003010
     1571.900000       0.002805
     1572.000000       0.002613
     1572.100000       0.002437
     1572.200000       0.002280
     1572.300000       0.002142
     1572.400000       0.002025
     1572.500000       0.001929
     1572.600000       0.001856
     1572.700000       0.001806
     1572.800000       0.001776
     1572.900000       0.001767
     1573.000000       0.000000
