2,   2, MVIRI VIS channel from srf_MET7_1997303_1997304_1801-Release_S10EE_10.dat
Number of data points:
793
Wavenumber (cm-1)   Filter response
     8442.380800       0.000000
     8449.514200       0.000000
     8456.659600       0.000004
     8463.817200       0.000051
     8470.986900       0.000151
     8478.168700       0.000303
     8485.362700       0.000504
     8492.569000       0.000754
     8499.787500       0.001051
     8507.018300       0.001393
     8514.261400       0.001780
     8521.516800       0.002210
     8528.784600       0.002682
     8536.064900       0.003195
     8543.357500       0.003747
     8550.662700       0.004338
     8557.980300       0.004967
     8565.310500       0.005632
     8572.653200       0.006333
     8580.008600       0.007068
     8587.376600       0.007837
     8594.757200       0.008639
     8602.150500       0.009474
     8609.556600       0.010339
     8616.975400       0.011236
     8624.407100       0.012162
     8631.851500       0.013117
     8639.308900       0.014101
     8646.779100       0.015114
     8654.262200       0.016153
     8661.758300       0.017219
     8669.267400       0.018312
     8676.789600       0.019430
     8684.324800       0.020574
     8691.873100       0.021742
     8699.434500       0.022935
     8707.009100       0.024152
     8714.596900       0.025392
     8722.198000       0.026656
     8729.812300       0.027943
     8737.439900       0.029252
     8745.080900       0.030584
     8752.735200       0.031937
     8760.403000       0.033313
     8768.084200       0.034709
     8775.778900       0.036127
     8783.487000       0.037567
     8791.208800       0.039027
     8798.944100       0.040508
     8806.693100       0.042009
     8814.455700       0.043531
     8822.232000       0.045073
     8830.022100       0.046635
     8837.825900       0.048218
     8845.643500       0.049820
     8853.475000       0.051442
     8861.320300       0.053085
     8869.179600       0.054746
     8877.052800       0.056428
     8884.940000       0.058130
     8892.841300       0.059851
     8900.756600       0.061592
     8908.686000       0.063353
     8916.629500       0.065133
     8924.587200       0.066933
     8932.559200       0.068752
     8940.545400       0.070592
     8948.545900       0.072451
     8956.560700       0.074330
     8964.589900       0.076229
     8972.633500       0.078148
     8980.691500       0.080087
     8988.764000       0.082046
     8996.851100       0.084025
     9004.952700       0.086025
     9013.068900       0.088044
     9021.199800       0.090084
     9029.345400       0.092145
     9037.505600       0.094225
     9045.680700       0.096327
     9053.870500       0.098449
     9062.075200       0.100592
     9070.294800       0.102756
     9078.529300       0.104941
     9086.778700       0.107147
     9095.043200       0.109375
     9103.322700       0.111623
     9111.617300       0.113893
     9119.927000       0.116184
     9128.251900       0.118497
     9136.592100       0.120832
     9144.947400       0.123188
     9153.318100       0.125567
     9161.704100       0.127967
     9170.105500       0.130389
     9178.522300       0.132834
     9186.954500       0.135300
     9195.402300       0.137789
     9203.865600       0.140301
     9212.344500       0.142834
     9220.839100       0.145391
     9229.349300       0.147970
     9237.875300       0.150572
     9246.417000       0.153196
     9254.974500       0.155844
     9263.547900       0.158514
     9272.137200       0.161207
     9280.742500       0.163924
     9289.363700       0.166663
     9298.000900       0.169426
     9306.654300       0.172211
     9315.323700       0.175020
     9324.009300       0.177853
     9332.711200       0.180708
     9341.429200       0.183587
     9350.163600       0.186489
     9358.914400       0.189414
     9367.681500       0.192363
     9376.465100       0.195336
     9385.265100       0.198331
     9394.081700       0.201350
     9402.914900       0.204392
     9411.764700       0.207458
     9420.631200       0.210547
     9429.514400       0.213659
     9438.414300       0.216795
     9447.331100       0.219954
     9456.264800       0.223136
     9465.215300       0.226341
     9474.182900       0.229569
     9483.167400       0.232821
     9492.169000       0.236095
     9501.187600       0.239392
     9510.223500       0.242712
     9519.276500       0.246054
     9528.346800       0.249420
     9537.434400       0.252808
     9546.539400       0.256218
     9555.661700       0.259651
     9564.801500       0.263105
     9573.958800       0.266583
     9583.133700       0.270082
     9592.326100       0.273602
     9601.536200       0.277145
     9610.764100       0.280709
     9620.009600       0.284295
     9629.273000       0.287902
     9638.554200       0.291529
     9647.853400       0.295178
     9657.170400       0.298848
     9666.505600       0.302538
     9675.858700       0.306249
     9685.230000       0.309979
     9694.619500       0.313730
     9704.027200       0.317501
     9713.453100       0.321291
     9722.897400       0.325101
     9732.360100       0.328929
     9741.841200       0.332777
     9751.340800       0.336643
     9760.859000       0.340528
     9770.395700       0.344431
     9779.951100       0.348352
     9789.525200       0.352291
     9799.118100       0.356247
     9808.729800       0.360220
     9818.360300       0.364210
     9828.009800       0.368217
     9837.678300       0.372240
     9847.365800       0.376279
     9857.072400       0.380334
     9866.798200       0.384405
     9876.543200       0.388490
     9886.307500       0.392590
     9896.091000       0.396706
     9905.894000       0.400834
     9915.716400       0.404978
     9925.558300       0.409134
     9935.419800       0.413304
     9945.300800       0.417487
     9955.201600       0.421682
     9965.122100       0.425889
     9975.062300       0.430109
     9985.022500       0.434340
     9995.002500       0.438582
    10005.002500       0.442834
    10015.022500       0.447098
    10025.062700       0.451371
    10035.122900       0.455654
    10045.203400       0.459946
    10055.304200       0.464247
    10065.425300       0.468557
    10075.566800       0.472874
    10085.728700       0.477200
    10095.911200       0.481533
    10106.114200       0.485873
    10116.337900       0.490219
    10126.582300       0.494572
    10136.847400       0.498930
    10147.133400       0.503294
    10157.440300       0.507662
    10167.768200       0.512035
    10178.117000       0.516412
    10188.487000       0.520793
    10198.878100       0.525177
    10209.290500       0.529564
    10219.724100       0.533953
    10230.179000       0.538344
    10240.655400       0.542737
    10251.153300       0.547131
    10261.672700       0.551525
    10272.213700       0.555920
    10282.776300       0.560314
    10293.360800       0.564708
    10303.967000       0.569101
    10314.595200       0.573492
    10325.245200       0.577881
    10335.917300       0.582268
    10346.611500       0.586652
    10357.327800       0.591032
    10368.066400       0.595409
    10378.827200       0.599781
    10389.610400       0.604149
    10400.416000       0.608512
    10411.244100       0.612869
    10422.094800       0.617221
    10432.968200       0.621565
    10443.864200       0.625903
    10454.783100       0.630234
    10465.724800       0.634557
    10476.689400       0.638871
    10487.677000       0.643177
    10498.687700       0.647474
    10509.721500       0.651761
    10520.778500       0.656038
    10531.858900       0.660304
    10542.962600       0.664560
    10554.089700       0.668805
    10565.240400       0.673037
    10576.414600       0.677257
    10587.612500       0.681465
    10598.834100       0.685659
    10610.079600       0.689840
    10621.348900       0.694007
    10632.642200       0.698160
    10643.959600       0.702297
    10655.301000       0.706420
    10666.666700       0.710526
    10678.056600       0.714617
    10689.470900       0.718690
    10700.909600       0.722748
    10712.372800       0.726787
    10723.860600       0.730809
    10735.373100       0.734812
    10746.910300       0.738797
    10758.472300       0.742763
    10770.059200       0.746709
    10781.671200       0.750635
    10793.308100       0.754541
    10804.970300       0.758427
    10816.657700       0.762291
    10828.370300       0.766134
    10840.108400       0.769955
    10851.871900       0.773754
    10863.661100       0.777531
    10875.475800       0.781284
    10887.316300       0.785014
    10899.182600       0.788720
    10911.074700       0.792403
    10922.992900       0.796060
    10934.937100       0.799693
    10946.907500       0.803301
    10958.904100       0.806883
    10970.927000       0.810440
    10982.976400       0.813970
    10995.052200       0.817474
    11007.154700       0.820951
    11019.283700       0.824400
    11031.439600       0.827823
    11043.622300       0.831217
    11055.832000       0.834583
    11068.068600       0.837921
    11080.332400       0.841230
    11092.623400       0.844509
    11104.941700       0.847760
    11117.287400       0.850981
    11129.660500       0.854172
    11142.061300       0.857332
    11154.489700       0.860463
    11166.945800       0.863562
    11179.429800       0.866630
    11191.941800       0.869668
    11204.481800       0.872673
    11217.049900       0.875647
    11229.646300       0.878589
    11242.270900       0.881498
    11254.924000       0.884375
    11267.605600       0.887220
    11280.315800       0.890031
    11293.054800       0.892809
    11305.822500       0.895554
    11318.619100       0.898265
    11331.444800       0.900943
    11344.299500       0.903586
    11357.183400       0.906196
    11370.096600       0.908771
    11383.039300       0.911311
    11396.011400       0.913817
    11409.013100       0.916288
    11422.044500       0.918724
    11435.105800       0.921125
    11448.196900       0.923491
    11461.318100       0.925821
    11474.469300       0.928116
    11487.650800       0.930375
    11500.862600       0.932598
    11514.104800       0.934786
    11527.377500       0.936937
    11540.680900       0.939052
    11554.015000       0.941131
    11567.380000       0.943174
    11580.775900       0.945181
    11594.202900       0.947151
    11607.661100       0.949084
    11621.150500       0.950981
    11634.671300       0.952841
    11648.223600       0.954665
    11661.807600       0.956452
    11675.423200       0.958202
    11689.070700       0.959916
    11702.750100       0.961592
    11716.461600       0.963232
    11730.205300       0.964835
    11743.981200       0.966402
    11757.789500       0.967931
    11771.630400       0.969424
    11785.503800       0.970880
    11799.410000       0.972299
    11813.349100       0.973681
    11827.321100       0.975027
    11841.326200       0.976336
    11855.364600       0.977608
    11869.436200       0.978844
    11883.541300       0.980044
    11897.680000       0.981207
    11911.852300       0.982333
    11926.058400       0.983424
    11940.298500       0.984478
    11954.572600       0.985496
    11968.880900       0.986479
    11983.223500       0.987425
    11997.600500       0.988336
    12012.012000       0.989211
    12026.458200       0.990050
    12040.939200       0.990855
    12055.455100       0.991624
    12070.006000       0.992357
    12084.592100       0.993056
    12099.213600       0.993721
    12113.870400       0.994350
    12128.562800       0.994945
    12143.290800       0.995506
    12158.054700       0.996033
    12172.854500       0.996526
    12187.690400       0.996985
    12202.562500       0.997411
    12217.471000       0.997804
    12232.415900       0.998163
    12247.397400       0.998490
    12262.415700       0.998784
    12277.470800       0.999045
    12292.563000       0.999275
    12307.692300       0.999472
    12322.858900       0.999638
    12338.062900       0.999772
    12353.304500       0.999875
    12368.583800       0.999947
    12383.900900       0.999989
    12399.256000       1.000000
    12414.649300       0.999981
    12430.080800       0.999932
    12445.550700       0.999854
    12461.059200       0.999747
    12476.606400       0.999610
    12492.192400       0.999445
    12507.817400       0.999252
    12523.481500       0.999030
    12539.185000       0.998781
    12554.927800       0.998505
    12570.710200       0.998201
    12586.532400       0.997871
    12602.394500       0.997514
    12618.296500       0.997131
    12634.238800       0.996723
    12650.221400       0.996289
    12666.244500       0.995831
    12682.308200       0.995347
    12698.412700       0.994840
    12714.558200       0.994308
    12730.744700       0.993753
    12746.972600       0.993175
    12763.241900       0.992574
    12779.552700       0.991950
    12795.905300       0.991305
    12812.299800       0.990638
    12828.736400       0.989949
    12845.215200       0.989240
    12861.736300       0.988510
    12878.300100       0.987760
    12894.906500       0.986991
    12911.555800       0.986202
    12928.248200       0.985395
    12944.983800       0.984569
    12961.762800       0.983725
    12978.585300       0.982863
    12995.451600       0.981985
    13012.361700       0.981089
    13029.316000       0.980177
    13046.314400       0.979250
    13063.357300       0.978306
    13080.444700       0.977348
    13097.576900       0.976375
    13114.754100       0.975388
    13131.976400       0.974388
    13149.243900       0.973374
    13166.556900       0.972347
    13183.915600       0.971307
    13201.320100       0.970256
    13218.770700       0.969193
    13236.267400       0.968119
    13253.810500       0.967035
    13271.400100       0.965940
    13289.036500       0.964836
    13306.719900       0.963722
    13324.450400       0.962599
    13342.228200       0.961468
    13360.053400       0.960329
    13377.926400       0.959183
    13395.847300       0.958029
    13413.816200       0.956869
    13431.833400       0.955703
    13449.899100       0.954531
    13468.013500       0.953354
    13486.176700       0.952173
    13504.388900       0.950986
    13522.650400       0.949796
    13540.961400       0.948603
    13559.322000       0.947406
    13577.732500       0.946207
    13596.193100       0.945006
    13614.703900       0.943804
    13633.265200       0.942600
    13651.877100       0.941395
    13670.540000       0.940190
    13689.253900       0.938986
    13708.019200       0.937781
    13726.836000       0.936578
    13745.704500       0.935377
    13764.624900       0.934177
    13783.597500       0.932979
    13802.622500       0.931785
    13821.700100       0.930593
    13840.830400       0.929405
    13860.013900       0.928221
    13879.250500       0.927042
    13898.540700       0.925867
    13917.884500       0.924698
    13937.282200       0.923534
    13956.734100       0.922376
    13976.240400       0.921225
    13995.801300       0.920081
    14015.417000       0.918945
    14035.087700       0.917815
    14054.813800       0.916694
    14074.595400       0.915582
    14094.432700       0.914478
    14114.326000       0.913384
    14134.275600       0.912299
    14154.281700       0.911224
    14174.344400       0.910160
    14194.464200       0.909106
    14214.641100       0.908064
    14234.875400       0.907033
    14255.167500       0.906013
    14275.517500       0.905006
    14295.925700       0.904011
    14316.392300       0.903029
    14336.917600       0.902061
    14357.501800       0.901105
    14378.145200       0.900164
    14398.848100       0.899237
    14419.610700       0.898323
    14440.433200       0.897425
    14461.316000       0.896542
    14482.259200       0.895674
    14503.263200       0.894822
    14524.328200       0.893985
    14545.454500       0.893165
    14566.642400       0.892361
    14587.892000       0.891573
    14609.203800       0.890803
    14630.577900       0.890050
    14652.014700       0.889314
    14673.514300       0.888596
    14695.077100       0.887895
    14716.703500       0.887213
    14738.393500       0.886549
    14760.147600       0.885904
    14781.966000       0.885277
    14803.849000       0.884669
    14825.796900       0.884080
    14847.809900       0.883511
    14869.888500       0.882960
    14892.032800       0.882430
    14914.243100       0.881919
    14936.519800       0.881428
    14958.863100       0.880957
    14981.273400       0.880506
    15003.750900       0.880075
    15026.296000       0.879665
    15048.909000       0.879275
    15071.590100       0.878906
    15094.339600       0.878557
    15117.158000       0.878229
    15140.045400       0.877922
    15163.002300       0.877636
    15186.028900       0.877370
    15209.125500       0.877126
    15232.292500       0.876902
    15255.530100       0.876700
    15278.838800       0.876518
    15302.218800       0.876358
    15325.670500       0.876218
    15349.194200       0.876100
    15372.790200       0.876002
    15396.458800       0.875925
    15420.200500       0.875870
    15444.015400       0.875835
    15467.904100       0.875821
    15491.866800       0.875827
    15515.903800       0.875855
    15540.015500       0.875903
    15564.202300       0.875971
    15588.464500       0.876059
    15612.802500       0.876168
    15637.216600       0.876297
    15661.707100       0.876446
    15686.274500       0.876614
    15710.919100       0.876803
    15735.641200       0.877010
    15760.441300       0.877237
    15785.319700       0.877483
    15810.276700       0.877748
    15835.312700       0.878032
    15860.428200       0.878334
    15885.623500       0.878654
    15910.899000       0.878992
    15936.255000       0.879348
    15961.691900       0.879721
    15987.210200       0.880112
    16012.810200       0.880519
    16038.492400       0.880943
    16064.257000       0.881383
    16090.104600       0.881839
    16116.035500       0.882311
    16142.050000       0.882798
    16168.148700       0.883300
    16194.332000       0.883817
    16220.600200       0.884348
    16246.953700       0.884892
    16273.393000       0.885451
    16299.918500       0.886022
    16326.530600       0.886606
    16353.229800       0.887201
    16380.016400       0.887809
    16406.890900       0.888428
    16433.853700       0.889058
    16460.905300       0.889698
    16488.046200       0.890349
    16515.276600       0.891008
    16542.597200       0.891677
    16570.008300       0.892354
    16597.510400       0.893039
    16625.103900       0.893731
    16652.789300       0.894430
    16680.567100       0.895136
    16708.437800       0.895847
    16736.401700       0.896563
    16764.459300       0.897284
    16792.611300       0.898009
    16820.857900       0.898737
    16849.199700       0.899468
    16877.637100       0.900201
    16906.170800       0.900936
    16934.801000       0.901672
    16963.528400       0.902407
    16992.353400       0.903143
    17021.276600       0.903877
    17050.298400       0.904610
    17079.419300       0.905340
    17108.639900       0.906067
    17137.960600       0.906790
    17167.382000       0.907508
    17196.904600       0.908221
    17226.528900       0.908929
    17256.255400       0.909629
    17286.084700       0.910322
    17316.017300       0.911006
    17346.053800       0.911682
    17376.194600       0.912348
    17406.440400       0.913003
    17436.791600       0.913647
    17467.248900       0.914278
    17497.812800       0.914897
    17528.483800       0.915501
    17559.262500       0.916091
    17590.149500       0.916666
    17621.145400       0.917224
    17652.250700       0.917765
    17683.466000       0.918289
    17714.791900       0.918793
    17746.228900       0.919277
    17777.777800       0.919741
    17809.439000       0.920184
    17841.213200       0.920604
    17873.101000       0.921001
    17905.103000       0.921374
    17937.219700       0.921721
    17969.451900       0.922043
    18001.800200       0.922338
    18034.265100       0.922605
    18066.847300       0.922844
    18099.547500       0.923053
    18132.366300       0.923231
    18165.304300       0.923378
    18198.362100       0.923492
    18231.540600       0.923573
    18264.840200       0.923620
    18298.261700       0.923632
    18331.805700       0.923607
    18365.472900       0.923545
    18399.264000       0.923446
    18433.179700       0.923307
    18467.220700       0.923128
    18501.387600       0.922908
    18535.681200       0.922646
    18570.102100       0.922342
    18604.651200       0.921993
    18639.329000       0.921600
    18674.136300       0.921161
    18709.073900       0.920675
    18744.142500       0.920142
    18779.342700       0.919560
    18814.675400       0.918928
    18850.141400       0.918246
    18885.741300       0.917512
    18921.475900       0.916726
    18957.346000       0.915886
    18993.352300       0.914992
    19029.495700       0.914043
    19065.776900       0.913038
    19102.196800       0.911975
    19138.756000       0.910854
    19175.455400       0.909674
    19212.295900       0.908434
    19249.278200       0.907133
    19286.403100       0.905770
    19323.671500       0.904345
    19361.084200       0.902856
    19398.642100       0.901302
    19436.346000       0.899683
    19474.196700       0.897998
    19512.195100       0.896245
    19550.342100       0.894425
    19588.638600       0.892535
    19627.085400       0.890576
    19665.683400       0.888546
    19704.433500       0.886445
    19743.336600       0.884272
    19782.393700       0.882026
    19821.605600       0.879706
    19860.973200       0.877311
    19900.497500       0.874841
    19940.179500       0.872296
    19980.020000       0.869673
    20020.020000       0.866972
    20060.180500       0.864194
    20100.502500       0.861336
    20140.986900       0.858399
    20181.634700       0.855382
    20222.446900       0.852284
    20263.424500       0.849104
    20304.568500       0.845842
    20345.880000       0.842497
    20387.359800       0.839069
    20429.009200       0.835557
    20470.829100       0.831961
    20512.820500       0.828279
    20554.984600       0.824513
    20597.322300       0.820660
    20639.834900       0.816721
    20682.523300       0.812696
    20725.388600       0.808583
    20768.432000       0.804383
    20811.654500       0.800094
    20855.057400       0.795718
    20898.641600       0.791253
    20942.408400       0.786700
    20986.358900       0.782057
    21030.494200       0.777325
    21074.815600       0.772504
    21119.324200       0.767593
    21164.021200       0.762593
    21208.907700       0.757503
    21253.985100       0.752322
    21299.254500       0.747053
    21344.717200       0.741693
    21390.374300       0.736243
    21436.227200       0.730704
    21482.277100       0.725075
    21528.525300       0.719356
    21574.973000       0.713548
    21621.621600       0.707651
    21668.472400       0.701666
    21715.526600       0.695591
    21762.785600       0.689429
    21810.250800       0.683178
    21857.923500       0.676840
    21905.805000       0.670416
    21953.896800       0.663904
    22002.200200       0.657307
    22050.716600       0.650625
    22099.447500       0.643858
    22148.394200       0.637007
    22197.558300       0.630072
    22246.941000       0.623055
    22296.544000       0.615957
    22346.368700       0.608778
    22396.416600       0.601519
    22446.689100       0.594181
    22497.187900       0.586766
    22547.914300       0.579273
    22598.870100       0.571706
    22650.056600       0.564064
    22701.475600       0.556348
    22753.128600       0.548561
    22805.017100       0.540704
    22857.142900       0.532778
    22909.507400       0.524784
    22962.112500       0.516725
    23014.959700       0.508601
    23068.050700       0.500414
    23121.387300       0.492167
    23174.971000       0.483861
    23228.803700       0.475498
    23282.887100       0.467080
    23337.222900       0.458608
    23391.812900       0.450086
    23446.658900       0.441515
    23501.762600       0.432897
    23557.126000       0.424235
    23612.750900       0.415531
    23668.639100       0.406787
    23724.792400       0.398007
    23781.212800       0.389192
    23837.902300       0.380346
    23894.862600       0.371471
    23952.095800       0.362570
    24009.603800       0.353646
    24067.388700       0.344702
    24125.452400       0.335741
    24183.796900       0.326767
    24242.424200       0.317782
    24301.336600       0.308790
    24360.535900       0.299795
    24420.024400       0.290800
    24479.804200       0.281808
    24539.877300       0.272825
    24600.246000       0.263852
    24660.912500       0.254895
    24721.878900       0.245957
    24783.147500       0.237042
    24844.720500       0.228155
    24906.600200       0.219300
    24968.789000       0.210482
    25031.289100       0.201705
    25094.102900       0.192973
    25157.232700       0.184292
    25220.681000       0.175666
    25284.450100       0.167101
    25348.542500       0.158600
    25412.960600       0.150171
    25477.707000       0.141818
