104,   104, MVIRI VIS channel from srf_MET7_2010213_2010214_1801-Release_S10EE_10.dat
Number of data points:
793
Wavenumber (cm-1)   Filter response
     8442.380800       0.000000
     8449.514200       0.000000
     8456.659600       0.000004
     8463.817200       0.000056
     8470.986900       0.000166
     8478.168700       0.000333
     8485.362700       0.000553
     8492.569000       0.000827
     8499.787500       0.001153
     8507.018300       0.001528
     8514.261400       0.001952
     8521.516800       0.002424
     8528.784600       0.002941
     8536.064900       0.003502
     8543.357500       0.004107
     8550.662700       0.004754
     8557.980300       0.005442
     8565.310500       0.006170
     8572.653200       0.006936
     8580.008600       0.007740
     8587.376600       0.008581
     8594.757200       0.009458
     8602.150500       0.010370
     8609.556600       0.011315
     8616.975400       0.012294
     8624.407100       0.013305
     8631.851500       0.014348
     8639.308900       0.015422
     8646.779100       0.016526
     8654.262200       0.017660
     8661.758300       0.018822
     8669.267400       0.020013
     8676.789600       0.021232
     8684.324800       0.022478
     8691.873100       0.023750
     8699.434500       0.025049
     8707.009100       0.026373
     8714.596900       0.027723
     8722.198000       0.029098
     8729.812300       0.030497
     8737.439900       0.031920
     8745.080900       0.033368
     8752.735200       0.034838
     8760.403000       0.036332
     8768.084200       0.037849
     8775.778900       0.039389
     8783.487000       0.040951
     8791.208800       0.042535
     8798.944100       0.044141
     8806.693100       0.045769
     8814.455700       0.047419
     8822.232000       0.049090
     8830.022100       0.050782
     8837.825900       0.052496
     8845.643500       0.054231
     8853.475000       0.055986
     8861.320300       0.057763
     8869.179600       0.059561
     8877.052800       0.061379
     8884.940000       0.063219
     8892.841300       0.065079
     8900.756600       0.066960
     8908.686000       0.068861
     8916.629500       0.070783
     8924.587200       0.072726
     8932.559200       0.074689
     8940.545400       0.076673
     8948.545900       0.078678
     8956.560700       0.080704
     8964.589900       0.082750
     8972.633500       0.084818
     8980.691500       0.086906
     8988.764000       0.089015
     8996.851100       0.091145
     9004.952700       0.093296
     9013.068900       0.095469
     9021.199800       0.097662
     9029.345400       0.099877
     9037.505600       0.102113
     9045.680700       0.104371
     9053.870500       0.106650
     9062.075200       0.108951
     9070.294800       0.111273
     9078.529300       0.113618
     9086.778700       0.115984
     9095.043200       0.118372
     9103.322700       0.120782
     9111.617300       0.123214
     9119.927000       0.125669
     9128.251900       0.128146
     9136.592100       0.130645
     9144.947400       0.133167
     9153.318100       0.135711
     9161.704100       0.138278
     9170.105500       0.140867
     9178.522300       0.143480
     9186.954500       0.146115
     9195.402300       0.148774
     9203.865600       0.151455
     9212.344500       0.154160
     9220.839100       0.156888
     9229.349300       0.159639
     9237.875300       0.162413
     9246.417000       0.165211
     9254.974500       0.168032
     9263.547900       0.170877
     9272.137200       0.173744
     9280.742500       0.176636
     9289.363700       0.179551
     9298.000900       0.182491
     9306.654300       0.185453
     9315.323700       0.188439
     9324.009300       0.191450
     9332.711200       0.194483
     9341.429200       0.197541
     9350.163600       0.200622
     9358.914400       0.203727
     9367.681500       0.206855
     9376.465100       0.210008
     9385.265100       0.213184
     9394.081700       0.216384
     9402.914900       0.219607
     9411.764700       0.222854
     9420.631200       0.226125
     9429.514400       0.229419
     9438.414300       0.232736
     9447.331100       0.236077
     9456.264800       0.239441
     9465.215300       0.242829
     9474.182900       0.246240
     9483.167400       0.249674
     9492.169000       0.253130
     9501.187600       0.256610
     9510.223500       0.260113
     9519.276500       0.263638
     9528.346800       0.267186
     9537.434400       0.270756
     9546.539400       0.274349
     9555.661700       0.277964
     9564.801500       0.281600
     9573.958800       0.285259
     9583.133700       0.288940
     9592.326100       0.292642
     9601.536200       0.296366
     9610.764100       0.300110
     9620.009600       0.303876
     9629.273000       0.307663
     9638.554200       0.311470
     9647.853400       0.315299
     9657.170400       0.319146
     9666.505600       0.323015
     9675.858700       0.326903
     9685.230000       0.330811
     9694.619500       0.334738
     9704.027200       0.338684
     9713.453100       0.342649
     9722.897400       0.346633
     9732.360100       0.350635
     9741.841200       0.354656
     9751.340800       0.358694
     9760.859000       0.362750
     9770.395700       0.366823
     9779.951100       0.370913
     9789.525200       0.375020
     9799.118100       0.379143
     9808.729800       0.383282
     9818.360300       0.387438
     9828.009800       0.391608
     9837.678300       0.395794
     9847.365800       0.399995
     9857.072400       0.404210
     9866.798200       0.408440
     9876.543200       0.412683
     9886.307500       0.416940
     9896.091000       0.421210
     9905.894000       0.425493
     9915.716400       0.429788
     9925.558300       0.434095
     9935.419800       0.438414
     9945.300800       0.442745
     9955.201600       0.447086
     9965.122100       0.451438
     9975.062300       0.455799
     9985.022500       0.460171
     9995.002500       0.464553
    10005.002500       0.468943
    10015.022500       0.473342
    10025.062700       0.477749
    10035.122900       0.482163
    10045.203400       0.486585
    10055.304200       0.491015
    10065.425300       0.495450
    10075.566800       0.499892
    10085.728700       0.504339
    10095.911200       0.508792
    10106.114200       0.513249
    10116.337900       0.517711
    10126.582300       0.522176
    10136.847400       0.526645
    10147.133400       0.531117
    10157.440300       0.535592
    10167.768200       0.540069
    10178.117000       0.544547
    10188.487000       0.549027
    10198.878100       0.553507
    10209.290500       0.557988
    10219.724100       0.562469
    10230.179000       0.566949
    10240.655400       0.571428
    10251.153300       0.575905
    10261.672700       0.580380
    10272.213700       0.584853
    10282.776300       0.589323
    10293.360800       0.593790
    10303.967000       0.598253
    10314.595200       0.602711
    10325.245200       0.607164
    10335.917300       0.611613
    10346.611500       0.616055
    10357.327800       0.620491
    10368.066400       0.624920
    10378.827200       0.629343
    10389.610400       0.633757
    10400.416000       0.638164
    10411.244100       0.642561
    10422.094800       0.646950
    10432.968200       0.651329
    10443.864200       0.655698
    10454.783100       0.660057
    10465.724800       0.664404
    10476.689400       0.668740
    10487.677000       0.673065
    10498.687700       0.677377
    10509.721500       0.681676
    10520.778500       0.685961
    10531.858900       0.690233
    10542.962600       0.694491
    10554.089700       0.698733
    10565.240400       0.702961
    10576.414600       0.707173
    10587.612500       0.711369
    10598.834100       0.715549
    10610.079600       0.719711
    10621.348900       0.723856
    10632.642200       0.727983
    10643.959600       0.732092
    10655.301000       0.736182
    10666.666700       0.740252
    10678.056600       0.744303
    10689.470900       0.748334
    10700.909600       0.752345
    10712.372800       0.756334
    10723.860600       0.760302
    10735.373100       0.764248
    10746.910300       0.768173
    10758.472300       0.772074
    10770.059200       0.775952
    10781.671200       0.779807
    10793.308100       0.783638
    10804.970300       0.787445
    10816.657700       0.791227
    10828.370300       0.794984
    10840.108400       0.798715
    10851.871900       0.802421
    10863.661100       0.806101
    10875.475800       0.809754
    10887.316300       0.813379
    10899.182600       0.816978
    10911.074700       0.820549
    10922.992900       0.824092
    10934.937100       0.827606
    10946.907500       0.831092
    10958.904100       0.834548
    10970.927000       0.837975
    10982.976400       0.841372
    10995.052200       0.844739
    11007.154700       0.848076
    11019.283700       0.851382
    11031.439600       0.854656
    11043.622300       0.857900
    11055.832000       0.861111
    11068.068600       0.864291
    11080.332400       0.867438
    11092.623400       0.870553
    11104.941700       0.873635
    11117.287400       0.876683
    11129.660500       0.879698
    11142.061300       0.882680
    11154.489700       0.885628
    11166.945800       0.888541
    11179.429800       0.891420
    11191.941800       0.894264
    11204.481800       0.897073
    11217.049900       0.899847
    11229.646300       0.902586
    11242.270900       0.905289
    11254.924000       0.907956
    11267.605600       0.910587
    11280.315800       0.913182
    11293.054800       0.915740
    11305.822500       0.918262
    11318.619100       0.920747
    11331.444800       0.923195
    11344.299500       0.925606
    11357.183400       0.927980
    11370.096600       0.930316
    11383.039300       0.932614
    11396.011400       0.934875
    11409.013100       0.937098
    11422.044500       0.939282
    11435.105800       0.941429
    11448.196900       0.943537
    11461.318100       0.945607
    11474.469300       0.947639
    11487.650800       0.949632
    11500.862600       0.951586
    11514.104800       0.953501
    11527.377500       0.955378
    11540.680900       0.957216
    11554.015000       0.959015
    11567.380000       0.960774
    11580.775900       0.962495
    11594.202900       0.964177
    11607.661100       0.965819
    11621.150500       0.967422
    11634.671300       0.968986
    11648.223600       0.970511
    11661.807600       0.971997
    11675.423200       0.973443
    11689.070700       0.974850
    11702.750100       0.976218
    11716.461600       0.977547
    11730.205300       0.978837
    11743.981200       0.980087
    11757.789500       0.981298
    11771.630400       0.982471
    11785.503800       0.983604
    11799.410000       0.984698
    11813.349100       0.985754
    11827.321100       0.986771
    11841.326200       0.987749
    11855.364600       0.988688
    11869.436200       0.989589
    11883.541300       0.990451
    11897.680000       0.991275
    11911.852300       0.992061
    11926.058400       0.992809
    11940.298500       0.993519
    11954.572600       0.994190
    11968.880900       0.994825
    11983.223500       0.995421
    11997.600500       0.995980
    12012.012000       0.996502
    12026.458200       0.996987
    12040.939200       0.997435
    12055.455100       0.997846
    12070.006000       0.998221
    12084.592100       0.998559
    12099.213600       0.998861
    12113.870400       0.999127
    12128.562800       0.999357
    12143.290800       0.999552
    12158.054700       0.999711
    12172.854500       0.999836
    12187.690400       0.999925
    12202.562500       0.999980
    12217.471000       1.000000
    12232.415900       0.999986
    12247.397400       0.999938
    12262.415700       0.999857
    12277.470800       0.999742
    12292.563000       0.999594
    12307.692300       0.999413
    12322.858900       0.999200
    12338.062900       0.998954
    12353.304500       0.998676
    12368.583800       0.998367
    12383.900900       0.998026
    12399.256000       0.997654
    12414.649300       0.997252
    12430.080800       0.996819
    12445.550700       0.996355
    12461.059200       0.995862
    12476.606400       0.995340
    12492.192400       0.994788
    12507.817400       0.994208
    12523.481500       0.993599
    12539.185000       0.992962
    12554.927800       0.992297
    12570.710200       0.991604
    12586.532400       0.990885
    12602.394500       0.990139
    12618.296500       0.989367
    12634.238800       0.988568
    12650.221400       0.987744
    12666.244500       0.986895
    12682.308200       0.986021
    12698.412700       0.985123
    12714.558200       0.984201
    12730.744700       0.983255
    12746.972600       0.982285
    12763.241900       0.981293
    12779.552700       0.980279
    12795.905300       0.979242
    12812.299800       0.978184
    12828.736400       0.977105
    12845.215200       0.976004
    12861.736300       0.974884
    12878.300100       0.973743
    12894.906500       0.972583
    12911.555800       0.971404
    12928.248200       0.970206
    12944.983800       0.968990
    12961.762800       0.967756
    12978.585300       0.966505
    12995.451600       0.965236
    13012.361700       0.963951
    13029.316000       0.962650
    13046.314400       0.961334
    13063.357300       0.960002
    13080.444700       0.958656
    13097.576900       0.957295
    13114.754100       0.955920
    13131.976400       0.954532
    13149.243900       0.953131
    13166.556900       0.951718
    13183.915600       0.950292
    13201.320100       0.948855
    13218.770700       0.947406
    13236.267400       0.945947
    13253.810500       0.944478
    13271.400100       0.942998
    13289.036500       0.941510
    13306.719900       0.940012
    13324.450400       0.938506
    13342.228200       0.936992
    13360.053400       0.935471
    13377.926400       0.933942
    13395.847300       0.932407
    13413.816200       0.930866
    13431.833400       0.929319
    13449.899100       0.927766
    13468.013500       0.926209
    13486.176700       0.924647
    13504.388900       0.923081
    13522.650400       0.921512
    13540.961400       0.919940
    13559.322000       0.918365
    13577.732500       0.916788
    13596.193100       0.915209
    13614.703900       0.913629
    13633.265200       0.912048
    13651.877100       0.910467
    13670.540000       0.908885
    13689.253900       0.907304
    13708.019200       0.905724
    13726.836000       0.904145
    13745.704500       0.902568
    13764.624900       0.900993
    13783.597500       0.899420
    13802.622500       0.897850
    13821.700100       0.896284
    13840.830400       0.894721
    13860.013900       0.893163
    13879.250500       0.891609
    13898.540700       0.890060
    13917.884500       0.888517
    13937.282200       0.886979
    13956.734100       0.885447
    13976.240400       0.883922
    13995.801300       0.882404
    14015.417000       0.880893
    14035.087700       0.879389
    14054.813800       0.877894
    14074.595400       0.876407
    14094.432700       0.874929
    14114.326000       0.873460
    14134.275600       0.872000
    14154.281700       0.870550
    14174.344400       0.869110
    14194.464200       0.867681
    14214.641100       0.866262
    14234.875400       0.864854
    14255.167500       0.863458
    14275.517500       0.862074
    14295.925700       0.860701
    14316.392300       0.859341
    14336.917600       0.857994
    14357.501800       0.856659
    14378.145200       0.855338
    14398.848100       0.854030
    14419.610700       0.852736
    14440.433200       0.851456
    14461.316000       0.850191
    14482.259200       0.848940
    14503.263200       0.847703
    14524.328200       0.846482
    14545.454500       0.845276
    14566.642400       0.844086
    14587.892000       0.842911
    14609.203800       0.841752
    14630.577900       0.840610
    14652.014700       0.839483
    14673.514300       0.838374
    14695.077100       0.837281
    14716.703500       0.836205
    14738.393500       0.835146
    14760.147600       0.834104
    14781.966000       0.833080
    14803.849000       0.832074
    14825.796900       0.831085
    14847.809900       0.830114
    14869.888500       0.829161
    14892.032800       0.828226
    14914.243100       0.827309
    14936.519800       0.826411
    14958.863100       0.825531
    14981.273400       0.824669
    15003.750900       0.823827
    15026.296000       0.823003
    15048.909000       0.822197
    15071.590100       0.821411
    15094.339600       0.820643
    15117.158000       0.819894
    15140.045400       0.819164
    15163.002300       0.818453
    15186.028900       0.817761
    15209.125500       0.817088
    15232.292500       0.816434
    15255.530100       0.815799
    15278.838800       0.815183
    15302.218800       0.814586
    15325.670500       0.814007
    15349.194200       0.813448
    15372.790200       0.812907
    15396.458800       0.812385
    15420.200500       0.811881
    15444.015400       0.811397
    15467.904100       0.810930
    15491.866800       0.810482
    15515.903800       0.810052
    15540.015500       0.809641
    15564.202300       0.809247
    15588.464500       0.808871
    15612.802500       0.808513
    15637.216600       0.808173
    15661.707100       0.807850
    15686.274500       0.807544
    15710.919100       0.807256
    15735.641200       0.806984
    15760.441300       0.806729
    15785.319700       0.806490
    15810.276700       0.806268
    15835.312700       0.806061
    15860.428200       0.805871
    15885.623500       0.805696
    15910.899000       0.805536
    15936.255000       0.805391
    15961.691900       0.805262
    15987.210200       0.805146
    16012.810200       0.805045
    16038.492400       0.804957
    16064.257000       0.804884
    16090.104600       0.804823
    16116.035500       0.804775
    16142.050000       0.804740
    16168.148700       0.804718
    16194.332000       0.804707
    16220.600200       0.804707
    16246.953700       0.804719
    16273.393000       0.804742
    16299.918500       0.804774
    16326.530600       0.804817
    16353.229800       0.804870
    16380.016400       0.804931
    16406.890900       0.805002
    16433.853700       0.805080
    16460.905300       0.805167
    16488.046200       0.805261
    16515.276600       0.805362
    16542.597200       0.805469
    16570.008300       0.805582
    16597.510400       0.805701
    16625.103900       0.805825
    16652.789300       0.805953
    16680.567100       0.806086
    16708.437800       0.806222
    16736.401700       0.806360
    16764.459300       0.806502
    16792.611300       0.806645
    16820.857900       0.806789
    16849.199700       0.806935
    16877.637100       0.807080
    16906.170800       0.807225
    16934.801000       0.807369
    16963.528400       0.807512
    16992.353400       0.807653
    17021.276600       0.807791
    17050.298400       0.807925
    17079.419300       0.808056
    17108.639900       0.808182
    17137.960600       0.808303
    17167.382000       0.808418
    17196.904600       0.808527
    17226.528900       0.808629
    17256.255400       0.808723
    17286.084700       0.808808
    17316.017300       0.808885
    17346.053800       0.808951
    17376.194600       0.809008
    17406.440400       0.809053
    17436.791600       0.809086
    17467.248900       0.809107
    17497.812800       0.809115
    17528.483800       0.809109
    17559.262500       0.809089
    17590.149500       0.809053
    17621.145400       0.809001
    17652.250700       0.808933
    17683.466000       0.808847
    17714.791900       0.808743
    17746.228900       0.808620
    17777.777800       0.808478
    17809.439000       0.808315
    17841.213200       0.808131
    17873.101000       0.807925
    17905.103000       0.807697
    17937.219700       0.807445
    17969.451900       0.807170
    18001.800200       0.806869
    18034.265100       0.806543
    18066.847300       0.806191
    18099.547500       0.805812
    18132.366300       0.805404
    18165.304300       0.804969
    18198.362100       0.804504
    18231.540600       0.804008
    18264.840200       0.803482
    18298.261700       0.802925
    18331.805700       0.802335
    18365.472900       0.801711
    18399.264000       0.801054
    18433.179700       0.800363
    18467.220700       0.799636
    18501.387600       0.798872
    18535.681200       0.798072
    18570.102100       0.797234
    18604.651200       0.796358
    18639.329000       0.795442
    18674.136300       0.794487
    18709.073900       0.793491
    18744.142500       0.792453
    18779.342700       0.791374
    18814.675400       0.790251
    18850.141400       0.789085
    18885.741300       0.787875
    18921.475900       0.786620
    18957.346000       0.785318
    18993.352300       0.783971
    19029.495700       0.782576
    19065.776900       0.781133
    19102.196800       0.779642
    19138.756000       0.778102
    19175.455400       0.776512
    19212.295900       0.774871
    19249.278200       0.773178
    19286.403100       0.771434
    19323.671500       0.769638
    19361.084200       0.767788
    19398.642100       0.765884
    19436.346000       0.763926
    19474.196700       0.761913
    19512.195100       0.759844
    19550.342100       0.757719
    19588.638600       0.755537
    19627.085400       0.753297
    19665.683400       0.751000
    19704.433500       0.748644
    19743.336600       0.746229
    19782.393700       0.743754
    19821.605600       0.741219
    19860.973200       0.738624
    19900.497500       0.735967
    19940.179500       0.733249
    19980.020000       0.730469
    20020.020000       0.727627
    20060.180500       0.724721
    20100.502500       0.721752
    20140.986900       0.718719
    20181.634700       0.715623
    20222.446900       0.712461
    20263.424500       0.709235
    20304.568500       0.705944
    20345.880000       0.702587
    20387.359800       0.699164
    20429.009200       0.695675
    20470.829100       0.692120
    20512.820500       0.688498
    20554.984600       0.684810
    20597.322300       0.681054
    20639.834900       0.677231
    20682.523300       0.673341
    20725.388600       0.669384
    20768.432000       0.665358
    20811.654500       0.661265
    20855.057400       0.657104
    20898.641600       0.652876
    20942.408400       0.648579
    20986.358900       0.644215
    21030.494200       0.639782
    21074.815600       0.635282
    21119.324200       0.630714
    21164.021200       0.626079
    21208.907700       0.621376
    21253.985100       0.616605
    21299.254500       0.611768
    21344.717200       0.606863
    21390.374300       0.601892
    21436.227200       0.596854
    21482.277100       0.591750
    21528.525300       0.586580
    21574.973000       0.581344
    21621.621600       0.576044
    21668.472400       0.570678
    21715.526600       0.565249
    21762.785600       0.559756
    21810.250800       0.554199
    21857.923500       0.548580
    21905.805000       0.542898
    21953.896800       0.537155
    22002.200200       0.531351
    22050.716600       0.525487
    22099.447500       0.519563
    22148.394200       0.513580
    22197.558300       0.507540
    22246.941000       0.501442
    22296.544000       0.495289
    22346.368700       0.489079
    22396.416600       0.482816
    22446.689100       0.476499
    22497.187900       0.470130
    22547.914300       0.463709
    22598.870100       0.457238
    22650.056600       0.450718
    22701.475600       0.444150
    22753.128600       0.437536
    22805.017100       0.430876
    22857.142900       0.424173
    22909.507400       0.417426
    22962.112500       0.410639
    23014.959700       0.403811
    23068.050700       0.396945
    23121.387300       0.390043
    23174.971000       0.383106
    23228.803700       0.376135
    23282.887100       0.369132
    23337.222900       0.362099
    23391.812900       0.355038
    23446.658900       0.347951
    23501.762600       0.340839
    23557.126000       0.333704
    23612.750900       0.326549
    23668.639100       0.319376
    23724.792400       0.312186
    23781.212800       0.304982
    23837.902300       0.297766
    23894.862600       0.290541
    23952.095800       0.283308
    24009.603800       0.276070
    24067.388700       0.268829
    24125.452400       0.261589
    24183.796900       0.254350
    24242.424200       0.247117
    24301.336600       0.239892
    24360.535900       0.232678
    24420.024400       0.225476
    24479.804200       0.218291
    24539.877300       0.211125
    24600.246000       0.203981
    24660.912500       0.196863
    24721.878900       0.189772
    24783.147500       0.182713
    24844.720500       0.175689
    24906.600200       0.168702
    24968.789000       0.161758
    25031.289100       0.154858
    25094.102900       0.148006
    25157.232700       0.141206
    25220.681000       0.134461
    25284.450100       0.127776
    25348.542500       0.121154
    25412.960600       0.114599
    25477.707000       0.108114
