1,   channel 1 SRF (incl. blur) from file SRF_SIRS-D_Ch01.asc received July 2019 from Carsten Stanfuss
Number of data points:
281
Wavenumber (cm-1)   Filter response
      892.000000       0.000000
      892.050000       0.000056
      892.100000       0.000400
      892.150000       0.001056
      892.200000       0.002025
      892.250000       0.003306
      892.300000       0.004900
      892.350000       0.006806
      892.400000       0.009025
      892.450000       0.011556
      892.500000       0.014400
      892.550000       0.017556
      892.600000       0.021025
      892.650000       0.024806
      892.700000       0.028900
      892.750000       0.033306
      892.800000       0.038025
      892.850000       0.043056
      892.900000       0.048400
      892.950000       0.054056
      893.000000       0.060025
      893.050000       0.066306
      893.100000       0.072900
      893.150000       0.079806
      893.200000       0.087025
      893.250000       0.094556
      893.300000       0.102400
      893.350000       0.110556
      893.400000       0.119025
      893.450000       0.127806
      893.500000       0.136900
      893.550000       0.146306
      893.600000       0.156025
      893.650000       0.166000
      893.700000       0.176000
      893.750000       0.186000
      893.800000       0.196000
      893.850000       0.206000
      893.900000       0.216000
      893.950000       0.226000
      894.000000       0.236000
      894.050000       0.246000
      894.100000       0.256000
      894.150000       0.266000
      894.200000       0.276000
      894.250000       0.286000
      894.300000       0.296000
      894.350000       0.306000
      894.400000       0.316000
      894.450000       0.326000
      894.500000       0.336000
      894.550000       0.346000
      894.600000       0.356000
      894.650000       0.366000
      894.700000       0.376000
      894.750000       0.386000
      894.800000       0.396000
      894.850000       0.406000
      894.900000       0.416000
      894.950000       0.426000
      895.000000       0.436000
      895.050000       0.446000
      895.100000       0.456000
      895.150000       0.466000
      895.200000       0.476000
      895.250000       0.486000
      895.300000       0.496000
      895.350000       0.506000
      895.400000       0.516000
      895.450000       0.526000
      895.500000       0.536000
      895.550000       0.546000
      895.600000       0.556000
      895.650000       0.566000
      895.700000       0.576000
      895.750000       0.586000
      895.800000       0.596000
      895.850000       0.606000
      895.900000       0.616000
      895.950000       0.626000
      896.000000       0.636000
      896.050000       0.646000
      896.100000       0.656000
      896.150000       0.666000
      896.200000       0.676000
      896.250000       0.686000
      896.300000       0.696000
      896.350000       0.706000
      896.400000       0.716000
      896.450000       0.726000
      896.500000       0.736000
      896.550000       0.746000
      896.600000       0.756000
      896.650000       0.766000
      896.700000       0.776000
      896.750000       0.786000
      896.800000       0.796000
      896.850000       0.806000
      896.900000       0.816000
      896.950000       0.826000
      897.000000       0.836000
      897.050000       0.845944
      897.100000       0.855600
      897.150000       0.864944
      897.200000       0.873975
      897.250000       0.882694
      897.300000       0.891100
      897.350000       0.899194
      897.400000       0.906975
      897.450000       0.914444
      897.500000       0.921600
      897.550000       0.928444
      897.600000       0.934975
      897.650000       0.941194
      897.700000       0.947100
      897.750000       0.952694
      897.800000       0.957975
      897.850000       0.962944
      897.900000       0.967600
      897.950000       0.971944
      898.000000       0.975975
      898.050000       0.979694
      898.100000       0.983100
      898.150000       0.986194
      898.200000       0.988975
      898.250000       0.991444
      898.300000       0.993600
      898.350000       0.995444
      898.400000       0.996975
      898.450000       0.998194
      898.500000       0.999100
      898.550000       0.999694
      898.600000       0.999975
      898.650000       1.000000
      898.700000       1.000000
      898.750000       1.000000
      898.800000       1.000000
      898.850000       1.000000
      898.900000       1.000000
      898.950000       1.000000
      899.000000       1.000000
      899.050000       1.000000
      899.100000       1.000000
      899.150000       1.000000
      899.200000       1.000000
      899.250000       1.000000
      899.300000       1.000000
      899.350000       1.000000
      899.400000       0.999975
      899.450000       0.999694
      899.500000       0.999100
      899.550000       0.998194
      899.600000       0.996975
      899.650000       0.995444
      899.700000       0.993600
      899.750000       0.991444
      899.800000       0.988975
      899.850000       0.986194
      899.900000       0.983100
      899.950000       0.979694
      900.000000       0.975975
      900.050000       0.971944
      900.100000       0.967600
      900.150000       0.962944
      900.200000       0.957975
      900.250000       0.952694
      900.300000       0.947100
      900.350000       0.941194
      900.400000       0.934975
      900.450000       0.928444
      900.500000       0.921600
      900.550000       0.914444
      900.600000       0.906975
      900.650000       0.899194
      900.700000       0.891100
      900.750000       0.882694
      900.800000       0.873975
      900.850000       0.864944
      900.900000       0.855600
      900.950000       0.845944
      901.000000       0.836000
      901.050000       0.826000
      901.100000       0.816000
      901.150000       0.806000
      901.200000       0.796000
      901.250000       0.786000
      901.300000       0.776000
      901.350000       0.766000
      901.400000       0.756000
      901.450000       0.746000
      901.500000       0.736000
      901.550000       0.726000
      901.600000       0.716000
      901.650000       0.706000
      901.700000       0.696000
      901.750000       0.686000
      901.800000       0.676000
      901.850000       0.666000
      901.900000       0.656000
      901.950000       0.646000
      902.000000       0.636000
      902.050000       0.626000
      902.100000       0.616000
      902.150000       0.606000
      902.200000       0.596000
      902.250000       0.586000
      902.300000       0.576000
      902.350000       0.566000
      902.400000       0.556000
      902.450000       0.546000
      902.500000       0.536000
      902.550000       0.526000
      902.600000       0.516000
      902.650000       0.506000
      902.700000       0.496000
      902.750000       0.486000
      902.800000       0.476000
      902.850000       0.466000
      902.900000       0.456000
      902.950000       0.446000
      903.000000       0.436000
      903.050000       0.426000
      903.100000       0.416000
      903.150000       0.406000
      903.200000       0.396000
      903.250000       0.386000
      903.300000       0.376000
      903.350000       0.366000
      903.400000       0.356000
      903.450000       0.346000
      903.500000       0.336000
      903.550000       0.326000
      903.600000       0.316000
      903.650000       0.306000
      903.700000       0.296000
      903.750000       0.286000
      903.800000       0.276000
      903.850000       0.266000
      903.900000       0.256000
      903.950000       0.246000
      904.000000       0.236000
      904.050000       0.226000
      904.100000       0.216000
      904.150000       0.206000
      904.200000       0.196000
      904.250000       0.186000
      904.300000       0.176000
      904.350000       0.166000
      904.400000       0.156025
      904.450000       0.146306
      904.500000       0.136900
      904.550000       0.127806
      904.600000       0.119025
      904.650000       0.110556
      904.700000       0.102400
      904.750000       0.094556
      904.800000       0.087025
      904.850000       0.079806
      904.900000       0.072900
      904.950000       0.066306
      905.000000       0.060025
      905.050000       0.054056
      905.100000       0.048400
      905.150000       0.043056
      905.200000       0.038025
      905.250000       0.033306
      905.300000       0.028900
      905.350000       0.024806
      905.400000       0.021025
      905.450000       0.017556
      905.500000       0.014400
      905.550000       0.011556
      905.600000       0.009025
      905.650000       0.006806
      905.700000       0.004900
      905.750000       0.003306
      905.800000       0.002025
      905.850000       0.001056
      905.900000       0.000400
      905.950000       0.000056
      906.000000       0.000000
