5,   5, MVIRI VIS channel from srf_MET6_1997213_1997214_1801-Release_S10EL_10.dat
Number of data points:
750
Wavenumber (cm-1)   Filter response
     8760.403000       0.000000
     8768.084200       0.000000
     8775.778900       0.000000
     8783.487000       0.000002
     8791.208800       0.000005
     8798.944100       0.000010
     8806.693100       0.000018
     8814.455700       0.000031
     8822.232000       0.000048
     8830.022100       0.000070
     8837.825900       0.000099
     8845.643500       0.000134
     8853.475000       0.000177
     8861.320300       0.000229
     8869.179600       0.000289
     8877.052800       0.000360
     8884.940000       0.000442
     8892.841300       0.000535
     8900.756600       0.000641
     8908.686000       0.000760
     8916.629500       0.000893
     8924.587200       0.001041
     8932.559200       0.001205
     8940.545400       0.001385
     8948.545900       0.001583
     8956.560700       0.001799
     8964.589900       0.002034
     8972.633500       0.002289
     8980.691500       0.002564
     8988.764000       0.002861
     8996.851100       0.003180
     9004.952700       0.003523
     9013.068900       0.003889
     9021.199800       0.004280
     9029.345400       0.004696
     9037.505600       0.005138
     9045.680700       0.005608
     9053.870500       0.006106
     9062.075200       0.006632
     9070.294800       0.007187
     9078.529300       0.007772
     9086.778700       0.008389
     9095.043200       0.009037
     9103.322700       0.009717
     9111.617300       0.010430
     9119.927000       0.011177
     9128.251900       0.011958
     9136.592100       0.012774
     9144.947400       0.013626
     9153.318100       0.014515
     9161.704100       0.015440
     9170.105500       0.016403
     9178.522300       0.017405
     9186.954500       0.018445
     9195.402300       0.019525
     9203.865600       0.020645
     9212.344500       0.021806
     9220.839100       0.023008
     9229.349300       0.024251
     9237.875300       0.025537
     9246.417000       0.026866
     9254.974500       0.028238
     9263.547900       0.029653
     9272.137200       0.031113
     9280.742500       0.032617
     9289.363700       0.034167
     9298.000900       0.035762
     9306.654300       0.037402
     9315.323700       0.039089
     9324.009300       0.040823
     9332.711200       0.042604
     9341.429200       0.044431
     9350.163600       0.046307
     9358.914400       0.048230
     9367.681500       0.050201
     9376.465100       0.052221
     9385.265100       0.054289
     9394.081700       0.056406
     9402.914900       0.058573
     9411.764700       0.060788
     9420.631200       0.063053
     9429.514400       0.065367
     9438.414300       0.067732
     9447.331100       0.070145
     9456.264800       0.072609
     9465.215300       0.075123
     9474.182900       0.077687
     9483.167400       0.080301
     9492.169000       0.082964
     9501.187600       0.085679
     9510.223500       0.088443
     9519.276500       0.091257
     9528.346800       0.094121
     9537.434400       0.097036
     9546.539400       0.099999
     9555.661700       0.103013
     9564.801500       0.106077
     9573.958800       0.109190
     9583.133700       0.112352
     9592.326100       0.115564
     9601.536200       0.118824
     9610.764100       0.122134
     9620.009600       0.125492
     9629.273000       0.128899
     9638.554200       0.132353
     9647.853400       0.135856
     9657.170400       0.139405
     9666.505600       0.143003
     9675.858700       0.146648
     9685.230000       0.150338
     9694.619500       0.154076
     9704.027200       0.157859
     9713.453100       0.161688
     9722.897400       0.165563
     9732.360100       0.169482
     9741.841200       0.173445
     9751.340800       0.177453
     9760.859000       0.181504
     9770.395700       0.185598
     9779.951100       0.189735
     9789.525200       0.193914
     9799.118100       0.198135
     9808.729800       0.202397
     9818.360300       0.206699
     9828.009800       0.211042
     9837.678300       0.215424
     9847.365800       0.219846
     9857.072400       0.224305
     9866.798200       0.228803
     9876.543200       0.233338
     9886.307500       0.237910
     9896.091000       0.242518
     9905.894000       0.247162
     9915.716400       0.251840
     9925.558300       0.256553
     9935.419800       0.261299
     9945.300800       0.266079
     9955.201600       0.270891
     9965.122100       0.275734
     9975.062300       0.280608
     9985.022500       0.285513
     9995.002500       0.290448
    10005.002500       0.295411
    10015.022500       0.300403
    10025.062700       0.305422
    10035.122900       0.310468
    10045.203400       0.315540
    10055.304200       0.320637
    10065.425300       0.325759
    10075.566800       0.330905
    10085.728700       0.336074
    10095.911200       0.341266
    10106.114200       0.346479
    10116.337900       0.351713
    10126.582300       0.356967
    10136.847400       0.362240
    10147.133400       0.367532
    10157.440300       0.372842
    10167.768200       0.378169
    10178.117000       0.383512
    10188.487000       0.388870
    10198.878100       0.394243
    10209.290500       0.399630
    10219.724100       0.405031
    10230.179000       0.410443
    10240.655400       0.415867
    10251.153300       0.421302
    10261.672700       0.426746
    10272.213700       0.432200
    10282.776300       0.437662
    10293.360800       0.443132
    10303.967000       0.448608
    10314.595200       0.454091
    10325.245200       0.459578
    10335.917300       0.465070
    10346.611500       0.470565
    10357.327800       0.476064
    10368.066400       0.481564
    10378.827200       0.487065
    10389.610400       0.492567
    10400.416000       0.498068
    10411.244100       0.503568
    10422.094800       0.509066
    10432.968200       0.514562
    10443.864200       0.520054
    10454.783100       0.525541
    10465.724800       0.531024
    10476.689400       0.536500
    10487.677000       0.541971
    10498.687700       0.547433
    10509.721500       0.552888
    10520.778500       0.558334
    10531.858900       0.563770
    10542.962600       0.569196
    10554.089700       0.574610
    10565.240400       0.580013
    10576.414600       0.585403
    10587.612500       0.590780
    10598.834100       0.596143
    10610.079600       0.601491
    10621.348900       0.606823
    10632.642200       0.612140
    10643.959600       0.617439
    10655.301000       0.622721
    10666.666700       0.627985
    10678.056600       0.633230
    10689.470900       0.638455
    10700.909600       0.643660
    10712.372800       0.648844
    10723.860600       0.654006
    10735.373100       0.659146
    10746.910300       0.664264
    10758.472300       0.669357
    10770.059200       0.674427
    10781.671200       0.679472
    10793.308100       0.684491
    10804.970300       0.689484
    10816.657700       0.694451
    10828.370300       0.699391
    10840.108400       0.704302
    10851.871900       0.709186
    10863.661100       0.714040
    10875.475800       0.718865
    10887.316300       0.723660
    10899.182600       0.728425
    10911.074700       0.733158
    10922.992900       0.737860
    10934.937100       0.742529
    10946.907500       0.747166
    10958.904100       0.751769
    10970.927000       0.756340
    10982.976400       0.760875
    10995.052200       0.765377
    11007.154700       0.769843
    11019.283700       0.774273
    11031.439600       0.778668
    11043.622300       0.783026
    11055.832000       0.787347
    11068.068600       0.791631
    11080.332400       0.795877
    11092.623400       0.800085
    11104.941700       0.804254
    11117.287400       0.808385
    11129.660500       0.812476
    11142.061300       0.816528
    11154.489700       0.820540
    11166.945800       0.824511
    11179.429800       0.828442
    11191.941800       0.832331
    11204.481800       0.836180
    11217.049900       0.839986
    11229.646300       0.843751
    11242.270900       0.847473
    11254.924000       0.851153
    11267.605600       0.854790
    11280.315800       0.858384
    11293.054800       0.861935
    11305.822500       0.865442
    11318.619100       0.868905
    11331.444800       0.872325
    11344.299500       0.875700
    11357.183400       0.879030
    11370.096600       0.882316
    11383.039300       0.885557
    11396.011400       0.888754
    11409.013100       0.891904
    11422.044500       0.895010
    11435.105800       0.898070
    11448.196900       0.901085
    11461.318100       0.904053
    11474.469300       0.906976
    11487.650800       0.909853
    11500.862600       0.912684
    11514.104800       0.915468
    11527.377500       0.918206
    11540.680900       0.920898
    11554.015000       0.923544
    11567.380000       0.926143
    11580.775900       0.928695
    11594.202900       0.931201
    11607.661100       0.933660
    11621.150500       0.936073
    11634.671300       0.938439
    11648.223600       0.940759
    11661.807600       0.943032
    11675.423200       0.945258
    11689.070700       0.947438
    11702.750100       0.949571
    11716.461600       0.951657
    11730.205300       0.953698
    11743.981200       0.955692
    11757.789500       0.957639
    11771.630400       0.959540
    11785.503800       0.961395
    11799.410000       0.963204
    11813.349100       0.964967
    11827.321100       0.966685
    11841.326200       0.968356
    11855.364600       0.969982
    11869.436200       0.971562
    11883.541300       0.973097
    11897.680000       0.974587
    11911.852300       0.976032
    11926.058400       0.977432
    11940.298500       0.978787
    11954.572600       0.980098
    11968.880900       0.981364
    11983.223500       0.982587
    11997.600500       0.983765
    12012.012000       0.984900
    12026.458200       0.985991
    12040.939200       0.987039
    12055.455100       0.988044
    12070.006000       0.989006
    12084.592100       0.989926
    12099.213600       0.990803
    12113.870400       0.991638
    12128.562800       0.992432
    12143.290800       0.993184
    12158.054700       0.993895
    12172.854500       0.994565
    12187.690400       0.995194
    12202.562500       0.995783
    12217.471000       0.996332
    12232.415900       0.996841
    12247.397400       0.997311
    12262.415700       0.997742
    12277.470800       0.998134
    12292.563000       0.998487
    12307.692300       0.998803
    12322.858900       0.999081
    12338.062900       0.999321
    12353.304500       0.999525
    12368.583800       0.999692
    12383.900900       0.999822
    12399.256000       0.999917
    12414.649300       0.999976
    12430.080800       1.000000
    12445.550700       0.999989
    12461.059200       0.999944
    12476.606400       0.999865
    12492.192400       0.999753
    12507.817400       0.999607
    12523.481500       0.999428
    12539.185000       0.999218
    12554.927800       0.998975
    12570.710200       0.998701
    12586.532400       0.998395
    12602.394500       0.998059
    12618.296500       0.997693
    12634.238800       0.997298
    12650.221400       0.996872
    12666.244500       0.996418
    12682.308200       0.995936
    12698.412700       0.995425
    12714.558200       0.994887
    12730.744700       0.994322
    12746.972600       0.993731
    12763.241900       0.993113
    12779.552700       0.992470
    12795.905300       0.991801
    12812.299800       0.991107
    12828.736400       0.990390
    12845.215200       0.989648
    12861.736300       0.988883
    12878.300100       0.988096
    12894.906500       0.987286
    12911.555800       0.986454
    12928.248200       0.985600
    12944.983800       0.984726
    12961.762800       0.983831
    12978.585300       0.982917
    12995.451600       0.981983
    13012.361700       0.981030
    13029.316000       0.980058
    13046.314400       0.979069
    13063.357300       0.978062
    13080.444700       0.977038
    13097.576900       0.975997
    13114.754100       0.974941
    13131.976400       0.973869
    13149.243900       0.972782
    13166.556900       0.971680
    13183.915600       0.970564
    13201.320100       0.969435
    13218.770700       0.968293
    13236.267400       0.967138
    13253.810500       0.965971
    13271.400100       0.964792
    13289.036500       0.963603
    13306.719900       0.962403
    13324.450400       0.961192
    13342.228200       0.959972
    13360.053400       0.958743
    13377.926400       0.957506
    13395.847300       0.956260
    13413.816200       0.955006
    13431.833400       0.953746
    13449.899100       0.952478
    13468.013500       0.951204
    13486.176700       0.949925
    13504.388900       0.948640
    13522.650400       0.947350
    13540.961400       0.946056
    13559.322000       0.944759
    13577.732500       0.943457
    13596.193100       0.942153
    13614.703900       0.940846
    13633.265200       0.939537
    13651.877100       0.938227
    13670.540000       0.936915
    13689.253900       0.935603
    13708.019200       0.934290
    13726.836000       0.932978
    13745.704500       0.931666
    13764.624900       0.930355
    13783.597500       0.929046
    13802.622500       0.927739
    13821.700100       0.926434
    13840.830400       0.925132
    13860.013900       0.923833
    13879.250500       0.922537
    13898.540700       0.921245
    13917.884500       0.919958
    13937.282200       0.918676
    13956.734100       0.917399
    13976.240400       0.916127
    13995.801300       0.914861
    14015.417000       0.913602
    14035.087700       0.912349
    14054.813800       0.911103
    14074.595400       0.909865
    14094.432700       0.908634
    14114.326000       0.907412
    14134.275600       0.906198
    14154.281700       0.904992
    14174.344400       0.903796
    14194.464200       0.902610
    14214.641100       0.901433
    14234.875400       0.900266
    14255.167500       0.899110
    14275.517500       0.897965
    14295.925700       0.896830
    14316.392300       0.895707
    14336.917600       0.894595
    14357.501800       0.893496
    14378.145200       0.892408
    14398.848100       0.891333
    14419.610700       0.890271
    14440.433200       0.889221
    14461.316000       0.888185
    14482.259200       0.887162
    14503.263200       0.886153
    14524.328200       0.885157
    14545.454500       0.884176
    14566.642400       0.883209
    14587.892000       0.882257
    14609.203800       0.881319
    14630.577900       0.880396
    14652.014700       0.879489
    14673.514300       0.878596
    14695.077100       0.877719
    14716.703500       0.876858
    14738.393500       0.876012
    14760.147600       0.875183
    14781.966000       0.874369
    14803.849000       0.873571
    14825.796900       0.872790
    14847.809900       0.872025
    14869.888500       0.871276
    14892.032800       0.870544
    14914.243100       0.869829
    14936.519800       0.869130
    14958.863100       0.868448
    14981.273400       0.867784
    15003.750900       0.867135
    15026.296000       0.866504
    15048.909000       0.865890
    15071.590100       0.865293
    15094.339600       0.864713
    15117.158000       0.864150
    15140.045400       0.863604
    15163.002300       0.863075
    15186.028900       0.862563
    15209.125500       0.862068
    15232.292500       0.861590
    15255.530100       0.861129
    15278.838800       0.860685
    15302.218800       0.860257
    15325.670500       0.859847
    15349.194200       0.859453
    15372.790200       0.859075
    15396.458800       0.858714
    15420.200500       0.858369
    15444.015400       0.858040
    15467.904100       0.857728
    15491.866800       0.857431
    15515.903800       0.857150
    15540.015500       0.856885
    15564.202300       0.856636
    15588.464500       0.856401
    15612.802500       0.856182
    15637.216600       0.855978
    15661.707100       0.855788
    15686.274500       0.855613
    15710.919100       0.855452
    15735.641200       0.855305
    15760.441300       0.855172
    15785.319700       0.855053
    15810.276700       0.854947
    15835.312700       0.854854
    15860.428200       0.854773
    15885.623500       0.854706
    15910.899000       0.854650
    15936.255000       0.854606
    15961.691900       0.854574
    15987.210200       0.854553
    16012.810200       0.854543
    16038.492400       0.854543
    16064.257000       0.854554
    16090.104600       0.854574
    16116.035500       0.854604
    16142.050000       0.854643
    16168.148700       0.854690
    16194.332000       0.854746
    16220.600200       0.854810
    16246.953700       0.854881
    16273.393000       0.854959
    16299.918500       0.855044
    16326.530600       0.855135
    16353.229800       0.855232
    16380.016400       0.855334
    16406.890900       0.855440
    16433.853700       0.855551
    16460.905300       0.855666
    16488.046200       0.855784
    16515.276600       0.855904
    16542.597200       0.856027
    16570.008300       0.856152
    16597.510400       0.856278
    16625.103900       0.856405
    16652.789300       0.856531
    16680.567100       0.856658
    16708.437800       0.856783
    16736.401700       0.856907
    16764.459300       0.857028
    16792.611300       0.857147
    16820.857900       0.857263
    16849.199700       0.857374
    16877.637100       0.857481
    16906.170800       0.857583
    16934.801000       0.857679
    16963.528400       0.857769
    16992.353400       0.857852
    17021.276600       0.857927
    17050.298400       0.857993
    17079.419300       0.858051
    17108.639900       0.858099
    17137.960600       0.858136
    17167.382000       0.858163
    17196.904600       0.858177
    17226.528900       0.858180
    17256.255400       0.858169
    17286.084700       0.858144
    17316.017300       0.858105
    17346.053800       0.858051
    17376.194600       0.857980
    17406.440400       0.857893
    17436.791600       0.857789
    17467.248900       0.857666
    17497.812800       0.857525
    17528.483800       0.857363
    17559.262500       0.857182
    17590.149500       0.856979
    17621.145400       0.856755
    17652.250700       0.856508
    17683.466000       0.856237
    17714.791900       0.855942
    17746.228900       0.855622
    17777.777800       0.855277
    17809.439000       0.854905
    17841.213200       0.854506
    17873.101000       0.854078
    17905.103000       0.853622
    17937.219700       0.853136
    17969.451900       0.852620
    18001.800200       0.852073
    18034.265100       0.851493
    18066.847300       0.850881
    18099.547500       0.850235
    18132.366300       0.849555
    18165.304300       0.848840
    18198.362100       0.848088
    18231.540600       0.847300
    18264.840200       0.846474
    18298.261700       0.845610
    18331.805700       0.844707
    18365.472900       0.843764
    18399.264000       0.842780
    18433.179700       0.841755
    18467.220700       0.840687
    18501.387600       0.839577
    18535.681200       0.838422
    18570.102100       0.837223
    18604.651200       0.835978
    18639.329000       0.834688
    18674.136300       0.833350
    18709.073900       0.831965
    18744.142500       0.830531
    18779.342700       0.829048
    18814.675400       0.827515
    18850.141400       0.825931
    18885.741300       0.824296
    18921.475900       0.822608
    18957.346000       0.820868
    18993.352300       0.819074
    19029.495700       0.817226
    19065.776900       0.815322
    19102.196800       0.813363
    19138.756000       0.811348
    19175.455400       0.809275
    19212.295900       0.807145
    19249.278200       0.804956
    19286.403100       0.802708
    19323.671500       0.800401
    19361.084200       0.798033
    19398.642100       0.795604
    19436.346000       0.793113
    19474.196700       0.790561
    19512.195100       0.787945
    19550.342100       0.785266
    19588.638600       0.782524
    19627.085400       0.779717
    19665.683400       0.776844
    19704.433500       0.773907
    19743.336600       0.770903
    19782.393700       0.767833
    19821.605600       0.764696
    19860.973200       0.761492
    19900.497500       0.758220
    19940.179500       0.754879
    19980.020000       0.751470
    20020.020000       0.747992
    20060.180500       0.744444
    20100.502500       0.740827
    20140.986900       0.737139
    20181.634700       0.733381
    20222.446900       0.729553
    20263.424500       0.725653
    20304.568500       0.721682
    20345.880000       0.717640
    20387.359800       0.713526
    20429.009200       0.709341
    20470.829100       0.705083
    20512.820500       0.700753
    20554.984600       0.696352
    20597.322300       0.691878
    20639.834900       0.687331
    20682.523300       0.682712
    20725.388600       0.678021
    20768.432000       0.673258
    20811.654500       0.668422
    20855.057400       0.663515
    20898.641600       0.658535
    20942.408400       0.653483
    20986.358900       0.648360
    21030.494200       0.643165
    21074.815600       0.637899
    21119.324200       0.632562
    21164.021200       0.627154
    21208.907700       0.621676
    21253.985100       0.616128
    21299.254500       0.610511
    21344.717200       0.604824
    21390.374300       0.599069
    21436.227200       0.593246
    21482.277100       0.587355
    21528.525300       0.581398
    21574.973000       0.575374
    21621.621600       0.569285
    21668.472400       0.563130
    21715.526600       0.556912
    21762.785600       0.550631
    21810.250800       0.544287
    21857.923500       0.537882
    21905.805000       0.531416
    21953.896800       0.524890
    22002.200200       0.518306
    22050.716600       0.511665
    22099.447500       0.504967
    22148.394200       0.498214
    22197.558300       0.491407
    22246.941000       0.484548
    22296.544000       0.477637
    22346.368700       0.470676
    22396.416600       0.463667
    22446.689100       0.456611
    22497.187900       0.449510
    22547.914300       0.442365
    22598.870100       0.435177
    22650.056600       0.427949
    22701.475600       0.420682
    22753.128600       0.413379
    22805.017100       0.406041
    22857.142900       0.398669
    22909.507400       0.391267
    22962.112500       0.383836
    23014.959700       0.376378
    23068.050700       0.368895
    23121.387300       0.361390
    23174.971000       0.353865
    23228.803700       0.346323
    23282.887100       0.338766
    23337.222900       0.331196
    23391.812900       0.323616
    23446.658900       0.316029
    23501.762600       0.308438
    23557.126000       0.300845
    23612.750900       0.293253
    23668.639100       0.285666
    23724.792400       0.278085
    23781.212800       0.270516
    23837.902300       0.262960
    23894.862600       0.255421
    23952.095800       0.247903
    24009.603800       0.240408
    24067.388700       0.232941
    24125.452400       0.225505
    24183.796900       0.218103
    24242.424200       0.210740
    24301.336600       0.203420
    24360.535900       0.196146
    24420.024400       0.188922
    24479.804200       0.181753
    24539.877300       0.174643
    24600.246000       0.167596
    24660.912500       0.160617
    24721.878900       0.153710
    24783.147500       0.146879
    24844.720500       0.140130
    24906.600200       0.133468
    24968.789000       0.126897
    25031.289100       0.120422
    25094.102900       0.114049
    25157.232700       0.107782
    25220.681000       0.101628
    25284.450100       0.095591
    25348.542500       0.089677
    25412.960600       0.083891
    25477.707000       0.078241
