15,   channel 15 SRF from file SRF_SSH-1_Delivery_220520/SRF_DMSP-F4_SSH_Chan15.asc received June 2022 from SPASCIA
Number of data points:
302
Wavenumber (cm-1)   Filter response
      820.000000       0.000990
      820.100000       0.001080
      820.200000       0.001190
      820.300000       0.001300
      820.400000       0.001420
      820.500000       0.001560
      820.600000       0.001700
      820.700000       0.001860
      820.800000       0.002030
      820.900000       0.002210
      821.000000       0.002410
      821.100000       0.002630
      821.200000       0.002860
      821.300000       0.003110
      821.400000       0.003380
      821.500000       0.003680
      821.600000       0.003990
      821.700000       0.004330
      821.800000       0.004700
      821.900000       0.005100
      822.000000       0.005520
      822.100000       0.005980
      822.200000       0.006470
      822.300000       0.007000
      822.400000       0.007560
      822.500000       0.008170
      822.600000       0.008820
      822.700000       0.009520
      822.800000       0.010260
      822.900000       0.011050
      823.000000       0.011900
      823.100000       0.012810
      823.200000       0.013780
      823.300000       0.014810
      823.400000       0.015910
      823.500000       0.017080
      823.600000       0.018320
      823.700000       0.019650
      823.800000       0.021050
      823.900000       0.022550
      824.000000       0.024130
      824.100000       0.025810
      824.200000       0.027590
      824.300000       0.029470
      824.400000       0.031470
      824.500000       0.033570
      824.600000       0.035800
      824.700000       0.038150
      824.800000       0.040630
      824.900000       0.043250
      825.000000       0.046000
      825.100000       0.048900
      825.200000       0.051960
      825.300000       0.055170
      825.400000       0.058540
      825.500000       0.062080
      825.600000       0.065790
      825.700000       0.069680
      825.800000       0.073760
      825.900000       0.078020
      826.000000       0.082490
      826.100000       0.087150
      826.200000       0.092020
      826.300000       0.097110
      826.400000       0.101920
      826.500000       0.106280
      826.600000       0.110790
      826.700000       0.115440
      826.800000       0.120260
      826.900000       0.125230
      827.000000       0.130370
      827.100000       0.135670
      827.200000       0.141150
      827.300000       0.146810
      827.400000       0.152650
      827.500000       0.158670
      827.600000       0.164900
      827.700000       0.171320
      827.800000       0.177950
      827.900000       0.184780
      828.000000       0.191840
      828.100000       0.199110
      828.200000       0.206610
      828.300000       0.214350
      828.400000       0.222320
      828.500000       0.230540
      828.600000       0.239010
      828.700000       0.247740
      828.800000       0.256720
      828.900000       0.265970
      829.000000       0.275490
      829.100000       0.285280
      829.200000       0.295350
      829.300000       0.305700
      829.400000       0.316330
      829.500000       0.327250
      829.600000       0.338450
      829.700000       0.349950
      829.800000       0.361730
      829.900000       0.373810
      830.000000       0.386160
      830.100000       0.398810
      830.200000       0.411730
      830.300000       0.424940
      830.400000       0.438410
      830.500000       0.452150
      830.600000       0.466150
      830.700000       0.480390
      830.800000       0.494880
      830.900000       0.510800
      831.000000       0.527520
      831.100000       0.544360
      831.200000       0.561290
      831.300000       0.578290
      831.400000       0.595340
      831.500000       0.612400
      831.600000       0.629460
      831.700000       0.646470
      831.800000       0.663420
      831.900000       0.680280
      832.000000       0.697010
      832.100000       0.713590
      832.200000       0.729990
      832.300000       0.746170
      832.400000       0.762110
      832.500000       0.777770
      832.600000       0.793130
      832.700000       0.808140
      832.800000       0.822800
      832.900000       0.837050
      833.000000       0.850880
      833.100000       0.864250
      833.200000       0.877140
      833.300000       0.889510
      833.400000       0.901350
      833.500000       0.912620
      833.600000       0.923300
      833.700000       0.933370
      833.800000       0.942800
      833.900000       0.951570
      834.000000       0.959660
      834.100000       0.967060
      834.200000       0.973740
      834.300000       0.979690
      834.400000       0.984900
      834.500000       0.989360
      834.600000       0.993040
      834.700000       0.995960
      834.800000       0.998090
      834.900000       0.999430
      835.000000       0.999980
      835.100000       0.999750
      835.200000       0.998720
      835.300000       0.996900
      835.400000       0.994300
      835.500000       0.990920
      835.600000       0.986770
      835.700000       0.981870
      835.800000       0.976210
      835.900000       0.969820
      836.000000       0.962700
      836.100000       0.954890
      836.200000       0.946380
      836.300000       0.937220
      836.400000       0.927400
      836.500000       0.916960
      836.600000       0.905930
      836.700000       0.894310
      836.800000       0.882150
      836.900000       0.869460
      837.000000       0.856280
      837.100000       0.842630
      837.200000       0.828550
      837.300000       0.814050
      837.400000       0.799170
      837.500000       0.783950
      837.600000       0.768410
      837.700000       0.752580
      837.800000       0.736490
      837.900000       0.720170
      838.000000       0.703670
      838.100000       0.686990
      838.200000       0.670180
      838.300000       0.653260
      838.400000       0.636270
      838.500000       0.619230
      838.600000       0.602160
      838.700000       0.585110
      838.800000       0.568090
      838.900000       0.551120
      839.000000       0.534240
      839.100000       0.517470
      839.200000       0.500830
      839.300000       0.486160
      839.400000       0.471820
      839.500000       0.457720
      839.600000       0.443870
      839.700000       0.430290
      839.800000       0.416980
      839.900000       0.403950
      840.000000       0.391190
      840.100000       0.378710
      840.200000       0.366530
      840.300000       0.354630
      840.400000       0.343020
      840.500000       0.331700
      840.600000       0.320660
      840.700000       0.309910
      840.800000       0.299450
      840.900000       0.289270
      841.000000       0.279370
      841.100000       0.269740
      841.200000       0.260390
      841.300000       0.251300
      841.400000       0.242470
      841.500000       0.233900
      841.600000       0.225580
      841.700000       0.217510
      841.800000       0.209680
      841.900000       0.202080
      842.000000       0.194720
      842.100000       0.187580
      842.200000       0.180650
      842.300000       0.173940
      842.400000       0.167440
      842.500000       0.161140
      842.600000       0.155030
      842.700000       0.149120
      842.800000       0.143390
      842.900000       0.137840
      843.000000       0.132470
      843.100000       0.127270
      843.200000       0.122230
      843.300000       0.117350
      843.400000       0.112630
      843.500000       0.108060
      843.600000       0.103640
      843.700000       0.099210
      843.800000       0.094030
      843.900000       0.089080
      844.000000       0.084330
      844.100000       0.079780
      844.200000       0.075440
      844.300000       0.071290
      844.400000       0.067320
      844.500000       0.063540
      844.600000       0.059930
      844.700000       0.056490
      844.800000       0.053220
      844.900000       0.050110
      845.000000       0.047150
      845.100000       0.044330
      845.200000       0.041660
      845.300000       0.039130
      845.400000       0.036730
      845.500000       0.034450
      845.600000       0.032300
      845.700000       0.030260
      845.800000       0.028330
      845.900000       0.026510
      846.000000       0.024790
      846.100000       0.023170
      846.200000       0.021640
      846.300000       0.020200
      846.400000       0.018840
      846.500000       0.017570
      846.600000       0.016370
      846.700000       0.015240
      846.800000       0.014180
      846.900000       0.013190
      847.000000       0.012260
      847.100000       0.011390
      847.200000       0.010570
      847.300000       0.009810
      847.400000       0.009090
      847.500000       0.008430
      847.600000       0.007800
      847.700000       0.007220
      847.800000       0.006680
      847.900000       0.006170
      848.000000       0.005700
      848.100000       0.005260
      848.200000       0.004860
      848.300000       0.004480
      848.400000       0.004130
      848.500000       0.003800
      848.600000       0.003500
      848.700000       0.003220
      848.800000       0.002960
      848.900000       0.002720
      849.000000       0.002490
      849.100000       0.002290
      849.200000       0.002100
      849.300000       0.001920
      849.400000       0.001760
      849.500000       0.001610
      849.600000       0.001470
      849.700000       0.001350
      849.800000       0.001230
      849.900000       0.001120
      850.000000       0.001030
      850.100000       0.000940
