   1  ,noaa_16_hirs_01.flt
Number of data points:
102
Wavenumber (cm-1)   Filter response
      664.240000       0.000000
      664.330000       0.027643
      664.420000       0.055452
      664.540000       0.083489
      664.680000       0.094346
      664.750000       0.078798
      664.820000       0.061416
      664.900000       0.054465
      665.010000       0.065140
      665.120000       0.068777
      665.190000       0.058257
      665.350000       0.061938
      665.450000       0.077973
      665.540000       0.086954
      665.720000       0.096076
      665.840000       0.110510
      665.980000       0.117890
      666.060000       0.105510
      666.140000       0.096693
      666.260000       0.102250
      666.340000       0.127520
      666.440000       0.161850
      666.530000       0.181830
      666.660000       0.201960
      666.790000       0.223950
      666.890000       0.231440
      666.990000       0.224500
      667.100000       0.248350
      667.260000       0.292440
      667.430000       0.333070
      667.540000       0.360890
      667.680000       0.387020
      667.750000       0.423890
      667.830000       0.473700
      667.860000       0.521470
      667.960000       0.547720
      668.030000       0.524350
      668.120000       0.501090
      668.210000       0.512610
      668.250000       0.544150
      668.300000       0.575740
      668.360000       0.657150
      668.410000       0.714620
      668.480000       0.759480
      668.600000       0.775330
      668.670000       0.759360
      668.780000       0.780830
      668.840000       0.818440
      668.940000       0.880590
      669.060000       0.933880
      669.210000       0.952400
      669.370000       0.978580
      669.590000       0.990490
      669.750000       1.000000
      669.920000       0.981390
      670.100000       0.959210
      670.230000       0.911760
      670.370000       0.849180
      670.530000       0.801610
      670.660000       0.749870
      670.730000       0.705030
      670.780000       0.677080
      670.850000       0.653000
      670.970000       0.633390
      671.100000       0.621460
      671.150000       0.593330
      671.230000       0.550220
      671.300000       0.526020
      671.430000       0.509930
      671.510000       0.485690
      671.600000       0.449920
      671.680000       0.400380
      671.750000       0.368070
      671.860000       0.343650
      672.010000       0.327070
      672.130000       0.302480
      672.190000       0.269770
      672.340000       0.225670
      672.500000       0.177460
      672.590000       0.148430
      672.700000       0.168230
      672.820000       0.194010
      672.920000       0.211870
      673.100000       0.214240
      673.190000       0.182980
      673.330000       0.157650
      673.520000       0.148090
      673.660000       0.116680
      673.780000       0.083165
      673.870000       0.075322
      674.000000       0.103220
      674.090000       0.119220
      674.190000       0.087516
      674.260000       0.053744
      674.360000       0.041849
      674.450000       0.049864
      674.560000       0.071890
      674.920000       0.078149
      675.120000       0.076294
      675.240000       0.060301
      675.280000       0.038208
      675.350000       0.000000
