   7  ,noaa_15_hirs_07.flt
Number of data points:
156
Wavenumber (cm-1)   Filter response
      721.800000       0.000000
      722.000000       0.001118
      722.300000       0.001701
      722.600000       0.002387
      722.900000       0.002805
      723.200000       0.002627
      723.500000       0.002061
      723.800000       0.001659
      724.100000       0.001978
      724.400000       0.003124
      724.700000       0.004492
      725.000000       0.005408
      725.300000       0.005404
      725.600000       0.004837
      725.900000       0.004283
      726.200000       0.004288
      726.500000       0.005020
      726.800000       0.006407
      727.100000       0.008366
      727.400000       0.010660
      727.700000       0.012814
      728.000000       0.014330
      728.300000       0.014904
      728.600000       0.015028
      728.900000       0.015399
      729.200000       0.016663
      729.500000       0.018848
      729.800000       0.021576
      730.100000       0.024463
      730.400000       0.027373
      730.700000       0.030556
      731.000000       0.034294
      731.300000       0.038791
      731.600000       0.043933
      731.900000       0.049522
      732.200000       0.055392
      732.500000       0.061759
      732.800000       0.069087
      733.100000       0.077842
      733.400000       0.088261
      733.700000       0.100220
      734.000000       0.113560
      734.300000       0.128170
      734.600000       0.144060
      734.900000       0.161290
      735.200000       0.179940
      735.500000       0.200400
      735.800000       0.223200
      736.100000       0.248920
      736.400000       0.277590
      736.700000       0.308390
      737.000000       0.340440
      737.300000       0.372990
      737.600000       0.406110
      737.900000       0.440520
      738.200000       0.475630
      738.500000       0.510970
      738.800000       0.545770
      739.100000       0.579220
      739.400000       0.610810
      739.700000       0.640490
      740.000000       0.668240
      740.300000       0.694030
      740.600000       0.717770
      740.900000       0.739340
      741.200000       0.758640
      741.500000       0.775770
      741.800000       0.790990
      742.100000       0.804540
      742.400000       0.816720
      742.700000       0.827910
      743.000000       0.838560
      743.300000       0.848940
      743.600000       0.858820
      743.900000       0.867810
      744.200000       0.875580
      744.500000       0.882130
      744.800000       0.888060
      745.100000       0.894580
      745.400000       0.902010
      745.700000       0.909980
      746.000000       0.918080
      746.300000       0.925860
      746.600000       0.932930
      746.900000       0.938880
      747.200000       0.943460
      747.500000       0.947300
      747.800000       0.951590
      748.100000       0.957520
      748.400000       0.965340
      748.700000       0.973720
      749.000000       0.981210
      749.300000       0.986690
      749.600000       0.990430
      749.900000       0.993090
      750.200000       0.995180
      750.500000       0.997000
      750.800000       0.998570
      751.100000       0.999620
      751.400000       1.000000
      751.700000       0.998730
      752.000000       0.994750
      752.300000       0.987150
      752.600000       0.975640
      752.900000       0.960190
      753.200000       0.940720
      753.500000       0.917330
      753.800000       0.890410
      754.100000       0.860350
      754.400000       0.827160
      754.700000       0.790780
      755.000000       0.751340
      755.300000       0.708930
      755.600000       0.664250
      755.900000       0.618210
      756.200000       0.571720
      756.500000       0.525630
      756.800000       0.480760
      757.100000       0.437960
      757.400000       0.397740
      757.700000       0.360080
      758.000000       0.324900
      758.300000       0.292120
      758.600000       0.261620
      758.900000       0.233290
      759.200000       0.207030
      759.500000       0.183010
      759.800000       0.161560
      760.100000       0.143040
      760.400000       0.127390
      760.700000       0.114000
      761.000000       0.102170
      761.300000       0.091307
      761.600000       0.081231
      761.900000       0.071861
      762.200000       0.063146
      762.500000       0.055382
      762.800000       0.049093
      763.100000       0.044801
      763.400000       0.042343
      763.700000       0.040484
      764.000000       0.037894
      764.300000       0.033641
      764.600000       0.028454
      764.900000       0.023487
      765.200000       0.019820
      765.500000       0.017644
      765.800000       0.016567
      766.100000       0.016182
      766.400000       0.016052
      766.700000       0.015698
      767.000000       0.014638
      767.300000       0.012618
      767.600000       0.010336
      767.900000       0.008736
      769.700000       0.000000
