  31 , eos_02_modis_31.flt
Number of data points:
369
Wavenumber (cm-1)   Filter response
      862.000000       0.000000
      862.250000       0.000000
      862.500000       0.000000
      862.750000       0.010338
      863.000000       0.010824
      863.250000       0.010908
      863.500000       0.010767
      863.750000       0.010520
      864.000000       0.010233
      864.250000       0.009972
      864.500000       0.009805
      864.750000       0.009798
      865.000000       0.010016
      865.250000       0.010513
      865.500000       0.010677
      865.750000       0.010922
      866.000000       0.011407
      866.250000       0.012191
      866.500000       0.012840
      866.750000       0.013846
      867.000000       0.014918
      867.250000       0.015999
      867.500000       0.016404
      867.750000       0.017451
      868.000000       0.018483
      868.250000       0.019498
      868.500000       0.020493
      868.750000       0.021486
      869.000000       0.022503
      869.250000       0.023567
      869.500000       0.024705
      869.750000       0.025955
      870.000000       0.027367
      870.250000       0.028982
      870.500000       0.030792
      870.750000       0.032780
      871.000000       0.034932
      871.250000       0.037241
      871.500000       0.039701
      871.750000       0.042302
      872.000000       0.045038
      872.250000       0.047909
      872.500000       0.050917
      872.750000       0.054057
      873.000000       0.057315
      873.250000       0.060700
      873.500000       0.064230
      873.750000       0.067933
      874.000000       0.071844
      874.250000       0.075989
      874.500000       0.080387
      874.750000       0.085043
      875.000000       0.089961
      875.250000       0.095131
      875.500000       0.100564
      875.750000       0.106265
      876.000000       0.112230
      876.250000       0.118438
      876.500000       0.124901
      876.750000       0.131618
      877.000000       0.138592
      877.250000       0.145830
      877.500000       0.153351
      877.750000       0.161191
      878.000000       0.169376
      878.250000       0.177916
      878.500000       0.186827
      878.750000       0.196103
      879.000000       0.205737
      879.250000       0.215695
      879.500000       0.225927
      879.750000       0.236389
      880.000000       0.247059
      880.250000       0.257918
      880.500000       0.268965
      880.750000       0.280212
      881.000000       0.291697
      881.250000       0.303429
      881.500000       0.315399
      881.750000       0.327584
      882.000000       0.339967
      882.250000       0.352545
      882.500000       0.365335
      882.750000       0.378312
      883.000000       0.391448
      883.250000       0.404700
      883.500000       0.417984
      883.750000       0.431248
      884.000000       0.444474
      884.250000       0.457599
      884.500000       0.470638
      884.750000       0.483554
      885.000000       0.496297
      885.250000       0.508816
      885.500000       0.521035
      885.750000       0.532947
      886.000000       0.544585
      886.250000       0.555928
      886.500000       0.566971
      886.750000       0.577691
      887.000000       0.588077
      887.250000       0.598131
      887.500000       0.607862
      887.750000       0.617265
      888.000000       0.626372
      888.250000       0.635275
      888.500000       0.644019
      888.750000       0.652578
      889.000000       0.660933
      889.250000       0.669069
      889.500000       0.676991
      889.750000       0.684644
      890.000000       0.691974
      890.250000       0.698955
      890.500000       0.705608
      890.750000       0.711988
      891.000000       0.718174
      891.250000       0.724268
      891.500000       0.730381
      891.750000       0.736562
      892.000000       0.742898
      892.250000       0.749415
      892.500000       0.756104
      892.750000       0.762979
      893.000000       0.770026
      893.250000       0.777229
      893.500000       0.784567
      893.750000       0.791976
      894.000000       0.799391
      894.250000       0.806780
      894.500000       0.814133
      894.750000       0.821482
      895.000000       0.828839
      895.250000       0.836204
      895.500000       0.843577
      895.750000       0.851003
      896.000000       0.858479
      896.250000       0.865964
      896.500000       0.873446
      896.750000       0.880936
      897.000000       0.888443
      897.250000       0.895966
      897.500000       0.903494
      897.750000       0.911045
      898.000000       0.918659
      898.250000       0.926451
      898.500000       0.934441
      898.750000       0.942550
      899.000000       0.950637
      899.250000       0.958519
      899.500000       0.965980
      899.750000       0.972899
      900.000000       0.979078
      900.250000       0.984353
      900.500000       0.988700
      900.750000       0.992128
      901.000000       0.994720
      901.250000       0.996594
      901.500000       0.997867
      901.750000       0.998701
      902.000000       0.999299
      902.250000       0.999727
      902.500000       0.999964
      902.750000       1.000000
      903.000000       0.999845
      903.250000       0.999526
      903.500000       0.999128
      903.750000       0.998652
      904.000000       0.998060
      904.250000       0.997406
      904.500000       0.996707
      904.750000       0.995991
      905.000000       0.995286
      905.250000       0.994605
      905.500000       0.993975
      905.750000       0.993409
      906.000000       0.992884
      906.250000       0.992433
      906.500000       0.992073
      906.750000       0.991781
      907.000000       0.991524
      907.250000       0.991249
      907.500000       0.990889
      907.750000       0.990372
      908.000000       0.989634
      908.250000       0.988625
      908.500000       0.987333
      908.750000       0.985781
      909.000000       0.984023
      909.250000       0.982100
      909.500000       0.980059
      909.750000       0.977945
      910.000000       0.975799
      910.250000       0.973652
      910.500000       0.971507
      910.750000       0.969348
      911.000000       0.967180
      911.250000       0.964993
      911.500000       0.962767
      911.750000       0.960472
      912.000000       0.958086
      912.250000       0.955580
      912.500000       0.952922
      912.750000       0.950111
      913.000000       0.947153
      913.250000       0.944068
      913.500000       0.940875
      913.750000       0.937571
      914.000000       0.934168
      914.250000       0.930709
      914.500000       0.927090
      914.750000       0.923174
      915.000000       0.918946
      915.250000       0.914421
      915.500000       0.909677
      915.750000       0.904830
      916.000000       0.900008
      916.250000       0.895323
      916.500000       0.890961
      916.750000       0.887076
      917.000000       0.883721
      917.250000       0.880876
      917.500000       0.878470
      917.750000       0.876399
      918.000000       0.874543
      918.250000       0.872778
      918.500000       0.870938
      918.750000       0.868951
      919.000000       0.866873
      919.250000       0.864632
      919.500000       0.862154
      919.750000       0.859372
      920.000000       0.856187
      920.250000       0.852510
      920.500000       0.848388
      920.750000       0.843823
      921.000000       0.838830
      921.250000       0.833437
      921.500000       0.827637
      921.750000       0.821429
      922.000000       0.814822
      922.250000       0.807834
      922.500000       0.800462
      922.750000       0.792707
      923.000000       0.784647
      923.250000       0.776293
      923.500000       0.767647
      923.750000       0.758708
      924.000000       0.749472
      924.250000       0.739953
      924.500000       0.730157
      924.750000       0.720042
      925.000000       0.709598
      925.250000       0.698814
      925.500000       0.687693
      925.750000       0.676291
      926.000000       0.664662
      926.250000       0.652861
      926.500000       0.640955
      926.750000       0.628988
      927.000000       0.616972
      927.250000       0.604907
      927.500000       0.592744
      927.750000       0.580491
      928.000000       0.568181
      928.250000       0.555844
      928.500000       0.543526
      928.750000       0.531276
      929.000000       0.519102
      929.250000       0.507007
      929.500000       0.494958
      929.750000       0.482963
      930.000000       0.471042
      930.250000       0.459223
      930.500000       0.447538
      930.750000       0.436021
      931.000000       0.424700
      931.250000       0.413592
      931.500000       0.402691
      931.750000       0.391971
      932.000000       0.381416
      932.250000       0.371020
      932.500000       0.360764
      932.750000       0.350632
      933.000000       0.340601
      933.250000       0.330670
      933.500000       0.320836
      933.750000       0.311067
      934.000000       0.301319
      934.250000       0.291582
      934.500000       0.281867
      934.750000       0.272211
      935.000000       0.262652
      935.250000       0.253233
      935.500000       0.244003
      935.750000       0.235016
      936.000000       0.226299
      936.250000       0.217866
      936.500000       0.209704
      936.750000       0.201790
      937.000000       0.194110
      937.250000       0.186655
      937.500000       0.179417
      937.750000       0.172375
      938.000000       0.165512
      938.250000       0.158830
      938.500000       0.152334
      938.750000       0.146027
      939.000000       0.139902
      939.250000       0.133952
      939.500000       0.128168
      939.750000       0.122545
      940.000000       0.117080
      940.250000       0.111778
      940.500000       0.106638
      940.750000       0.101660
      941.000000       0.096841
      941.250000       0.092183
      941.500000       0.087689
      941.750000       0.083356
      942.000000       0.079186
      942.250000       0.075175
      942.500000       0.071336
      942.750000       0.067672
      943.000000       0.064180
      943.250000       0.060856
      943.500000       0.057692
      943.750000       0.054677
      944.000000       0.051800
      944.250000       0.049046
      944.500000       0.046402
      944.750000       0.043870
      945.000000       0.041473
      945.250000       0.039213
      945.500000       0.037091
      945.750000       0.035096
      946.000000       0.033213
      946.250000       0.031425
      946.500000       0.029718
      946.750000       0.028075
      947.000000       0.026481
      947.250000       0.024940
      947.500000       0.023452
      947.750000       0.022020
      948.000000       0.020645
      948.250000       0.019326
      948.500000       0.018059
      948.750000       0.016849
      949.000000       0.015705
      949.250000       0.014642
      949.500000       0.013676
      949.750000       0.012814
      950.000000       0.012310
      950.250000       0.011967
      950.500000       0.011465
      950.750000       0.012328
      951.000000       0.012614
      951.250000       0.012192
      951.500000       0.011765
      951.750000       0.011328
      952.000000       0.011679
      952.250000       0.011440
      952.500000       0.011203
      952.750000       0.010951
      953.000000       0.010663
      953.250000       0.010349
      953.500000       0.010048
      953.750000       0.000000
      954.000000       0.000000
