04  , Filter noaa_15_avhrr_04.flt
Number of data points:
200
Wavenumber (cm-1)   Filter response
      803.000000       0.000000
      804.000000       0.000086
      805.000000       0.000805
      806.000000       0.000227
      807.000000       0.000256
      808.000000       0.000749
      809.000000       0.000046
      810.000000       0.000000
      811.000000       0.000863
      812.000000       0.001315
      813.000000       0.000008
      814.000000       0.000000
      815.000000       0.000410
      816.000000       0.000439
      817.000000       0.000000
      818.000000       0.000000
      819.000000       0.000015
      820.000000       0.000000
      821.000000       0.000000
      822.000000       0.000000
      823.000000       0.000028
      824.000000       0.000000
      825.000000       0.000000
      826.000000       0.000762
      827.000000       0.000682
      828.000000       0.000000
      829.000000       0.000000
      830.000000       0.000055
      831.000000       0.000000
      832.000000       0.000028
      833.000000       0.000753
      834.000000       0.000565
      835.000000       0.000000
      836.000000       0.000000
      837.000000       0.000818
      838.000000       0.001225
      839.000000       0.000713
      840.000000       0.000120
      841.000000       0.000000
      842.000000       0.000012
      843.000000       0.000003
      844.000000       0.000000
      845.000000       0.000000
      846.000000       0.000000
      847.000000       0.000026
      848.000000       0.000000
      849.000000       0.000051
      850.000000       0.000695
      851.000000       0.000421
      852.000000       0.000027
      853.000000       0.000666
      854.000000       0.000788
      855.000000       0.000340
      856.000000       0.000008
      857.000000       0.000152
      858.000000       0.000121
      859.000000       0.000116
      860.000000       0.001540
      861.000000       0.002204
      862.000000       0.001579
      863.000000       0.002256
      864.000000       0.004165
      865.000000       0.006250
      866.000000       0.007575
      867.000000       0.009273
      868.000000       0.012180
      869.000000       0.016329
      870.000000       0.022398
      871.000000       0.031106
      872.000000       0.042998
      873.000000       0.058429
      874.000000       0.078327
      875.000000       0.104092
      876.000000       0.134762
      877.000000       0.171422
      878.000000       0.217633
      879.000000       0.262219
      880.000000       0.302889
      881.000000       0.363960
      882.000000       0.434010
      883.000000       0.493279
      884.000000       0.552767
      885.000000       0.613330
      886.000000       0.667799
      887.000000       0.718284
      888.000000       0.765923
      889.000000       0.808857
      890.000000       0.844988
      891.000000       0.874171
      892.000000       0.899519
      893.000000       0.919498
      894.000000       0.932977
      895.000000       0.947643
      896.000000       0.962409
      897.000000       0.969763
      898.000000       0.975091
      899.000000       0.981134
      900.000000       0.981964
      901.000000       0.983582
      902.000000       0.993260
      903.000000       1.000000
      904.000000       0.997966
      905.000000       0.990380
      906.000000       0.987392
      907.000000       0.992654
      908.000000       0.989019
      909.000000       0.981881
      910.000000       0.990563
      911.000000       0.989766
      912.000000       0.967497
      913.000000       0.964567
      914.000000       0.975017
      915.000000       0.963073
      916.000000       0.951270
      917.000000       0.957728
      918.000000       0.958599
      919.000000       0.952341
      920.000000       0.954856
      921.000000       0.956433
      922.000000       0.948697
      923.000000       0.946929
      924.000000       0.953752
      925.000000       0.957437
      926.000000       0.958126
      927.000000       0.960027
      928.000000       0.963388
      929.000000       0.966609
      930.000000       0.966393
      931.000000       0.964999
      932.000000       0.967522
      933.000000       0.971622
      934.000000       0.973871
      935.000000       0.973539
      936.000000       0.971049
      937.000000       0.968078
      938.000000       0.966949
      939.000000       0.969389
      940.000000       0.969597
      941.000000       0.963596
      942.000000       0.959014
      943.000000       0.958508
      944.000000       0.956151
      945.000000       0.951743
      946.000000       0.948930
      947.000000       0.945950
      948.000000       0.940264
      949.000000       0.935226
      950.000000       0.933068
      951.000000       0.931134
      952.000000       0.928254
      953.000000       0.925432
      954.000000       0.923390
      955.000000       0.922104
      956.000000       0.916393
      957.000000       0.900897
      958.000000       0.882795
      959.000000       0.867805
      960.000000       0.850068
      961.000000       0.823946
      962.000000       0.786525
      963.000000       0.741560
      964.000000       0.700290
      965.000000       0.661371
      966.000000       0.615056
      967.000000       0.563050
      968.000000       0.511441
      969.000000       0.460673
      970.000000       0.410034
      971.000000       0.361300
      972.000000       0.315498
      973.000000       0.269189
      974.000000       0.222410
      975.000000       0.184100
      976.000000       0.156787
      977.000000       0.131186
      978.000000       0.104519
      979.000000       0.081918
      980.000000       0.064778
      981.000000       0.051102
      982.000000       0.039853
      983.000000       0.030743
      984.000000       0.023504
      985.000000       0.017980
      986.000000       0.013772
      987.000000       0.010488
      988.000000       0.007894
      989.000000       0.005899
      990.000000       0.004470
      991.000000       0.003609
      992.000000       0.002977
      993.000000       0.002247
      994.000000       0.001632
      995.000000       0.001389
      996.000000       0.001164
      997.000000       0.000592
      998.000000       0.000002
      999.000000       0.000000
     1000.000000       0.000000
     1001.000000       0.000511
     1002.000000       0.000806
