           6  , Jan 12th 2012 http://fy3.satellite.cma.gov.cn/ArssEn/Download/FY3A_calibration_info_params.rar
Number of data points:
554
Wavenumber (cm-1)   Filter response
      704.126200       0.000889
      704.225300       0.002598
      704.324600       0.004352
      704.423800       0.005947
      704.523000       0.007128
      704.622300       0.008200
      704.721700       0.008897
      704.821000       0.009544
      704.920300       0.010005
      705.019700       0.010465
      705.119100       0.010919
      705.218600       0.011361
      705.318100       0.011872
      705.417600       0.012217
      705.517200       0.012366
      705.616700       0.012480
      705.716300       0.012416
      705.815900       0.012332
      705.915500       0.012145
      706.015300       0.011956
      706.115000       0.011706
      706.214700       0.011439
      706.314500       0.011194
      706.414200       0.010810
      706.514000       0.010341
      706.613900       0.009893
      706.713800       0.009573
      706.813700       0.009341
      706.913600       0.009663
      707.013500       0.010112
      707.113500       0.011367
      707.213600       0.012708
      707.313700       0.014751
      707.413700       0.016623
      707.513800       0.018269
      707.614000       0.019746
      707.714100       0.020162
      707.814300       0.020360
      707.914500       0.019245
      708.014800       0.017999
      708.115000       0.015998
      708.215300       0.014017
      708.315600       0.012290
      708.416000       0.010537
      708.516400       0.009482
      708.616800       0.008559
      708.717200       0.008301
      708.817700       0.008118
      708.918200       0.008285
      709.018700       0.008473
      709.119300       0.008755
      709.219800       0.009076
      709.320500       0.010288
      709.421100       0.010812
      709.521800       0.011675
      709.622500       0.012627
      709.723200       0.013920
      709.824000       0.015226
      709.924700       0.016615
      710.025600       0.017917
      710.126400       0.019021
      710.227300       0.019945
      710.328200       0.020442
      710.429100       0.020983
      710.530000       0.021131
      710.631000       0.021139
      710.732100       0.020831
      710.833100       0.020435
      710.934100       0.019857
      711.035300       0.019206
      711.136400       0.018421
      711.237500       0.017601
      711.338700       0.016552
      711.439900       0.015769
      711.541200       0.015120
      711.642500       0.014704
      711.743800       0.014612
      711.845100       0.014815
      711.946500       0.015385
      712.047900       0.016198
      712.149300       0.017283
      712.250700       0.018460
      712.352200       0.019523
      712.453700       0.020735
      712.555200       0.021908
      712.656800       0.023027
      712.758400       0.024105
      712.860000       0.025208
      712.961700       0.026330
      713.063300       0.027565
      713.165000       0.028870
      713.266700       0.030277
      713.368500       0.031402
      713.470300       0.032773
      713.572100       0.034112
      713.674000       0.035143
      713.775900       0.036019
      713.877700       0.036470
      713.979700       0.036788
      714.081700       0.036797
      714.183700       0.036728
      714.285700       0.036690
      714.387800       0.036256
      714.489900       0.036607
      714.591900       0.037008
      714.694200       0.037873
      714.796300       0.038776
      714.898500       0.039928
      715.000700       0.041088
      715.103000       0.042194
      715.205300       0.043288
      715.307600       0.044180
      715.410000       0.044554
      715.512300       0.045220
      715.614700       0.045872
      715.717200       0.046442
      715.819600       0.047014
      715.922100       0.047597
      716.024700       0.048205
      716.127200       0.048896
      716.229800       0.049657
      716.332400       0.050589
      716.435000       0.051022
      716.537700       0.052152
      716.640400       0.053346
      716.743200       0.054639
      716.845900       0.055936
      716.948700       0.057240
      717.051500       0.058514
      717.154300       0.059759
      717.257200       0.060991
      717.360100       0.062210
      717.463100       0.062719
      717.566000       0.063942
      717.669000       0.065175
      717.772000       0.066389
      717.875100       0.067418
      717.978100       0.068379
      718.081300       0.069034
      718.184400       0.069606
      718.287600       0.069944
      718.390800       0.070240
      718.494000       0.069919
      718.597300       0.070374
      718.700600       0.071551
      718.804000       0.072792
      718.907300       0.075069
      719.010600       0.077441
      719.114100       0.080596
      719.217500       0.083824
      719.320900       0.087396
      719.424500       0.090983
      719.528000       0.094451
      719.631500       0.097958
      719.735100       0.101463
      719.838700       0.104983
      719.942400       0.108531
      720.046100       0.112045
      720.149800       0.115520
      720.253500       0.118862
      720.357300       0.122082
      720.461100       0.125113
      720.564900       0.128005
      720.668800       0.130921
      720.772700       0.133851
      720.876600       0.137098
      720.980500       0.140458
      721.084500       0.144451
      721.188500       0.148589
      721.292500       0.153307
      721.396600       0.158107
      721.500700       0.163279
      721.604900       0.168477
      721.709000       0.173774
      721.813200       0.179076
      721.917400       0.184413
      722.021700       0.189814
      722.126000       0.195464
      722.230300       0.201281
      722.334600       0.207500
      722.439000       0.213969
      722.543300       0.220861
      722.647800       0.228048
      722.752200       0.235524
      722.856800       0.243232
      722.961200       0.251130
      723.065800       0.259254
      723.170300       0.267512
      723.275000       0.276003
      723.379600       0.284586
      723.484300       0.293412
      723.589000       0.302300
      723.693700       0.311424
      723.798500       0.320503
      723.903300       0.329746
      724.008100       0.339023
      724.112900       0.348692
      724.217900       0.358491
      724.322800       0.368896
      724.427700       0.379577
      724.532700       0.391030
      724.637700       0.402812
      724.742700       0.415304
      724.847800       0.427916
      724.952900       0.440829
      725.058000       0.453803
      725.163100       0.466833
      725.268400       0.479757
      725.373500       0.492493
      725.478800       0.505274
      725.584100       0.518063
      725.689400       0.530921
      725.794700       0.544014
      725.900100       0.556744
      726.005500       0.569423
      726.111000       0.581663
      726.216400       0.593813
      726.321900       0.605570
      726.427400       0.617304
      726.533000       0.629026
      726.638500       0.640985
      726.744200       0.653368
      726.849800       0.666558
      726.955500       0.679829
      727.061200       0.693443
      727.167000       0.707286
      727.272700       0.721035
      727.378500       0.734726
      727.484300       0.747747
      727.590200       0.760579
      727.696100       0.772396
      727.802100       0.784062
      727.908000       0.795261
      728.014000       0.805798
      728.120000       0.815824
      728.226000       0.825786
      728.332200       0.835604
      728.438200       0.845355
      728.544400       0.854992
      728.650500       0.864350
      728.756700       0.873404
      728.863000       0.881753
      728.969200       0.890334
      729.075600       0.897132
      729.181900       0.903788
      729.288200       0.909427
      729.394600       0.914844
      729.501000       0.919719
      729.607500       0.924572
      729.713900       0.929573
      729.820500       0.934670
      729.927000       0.940168
      730.033600       0.953016
      730.140200       0.958000
      730.246800       0.962831
      730.353500       0.967473
      730.460200       0.971740
      730.567000       0.975713
      730.673700       0.979138
      730.780500       0.982314
      730.887300       0.984908
      730.994100       0.987366
      731.101000       0.989889
      731.207900       0.992449
      731.314900       0.994016
      731.421900       0.995367
      731.528900       0.995887
      731.635900       0.996180
      731.743000       0.996027
      731.850200       0.995863
      731.957300       0.995687
      732.064500       0.995753
      732.171600       0.995798
      732.278900       0.996313
      732.386100       0.996930
      732.493400       0.997593
      732.600800       0.998260
      732.708100       0.998618
      732.815500       0.998912
      732.922900       0.998844
      733.030300       0.999474
      733.137800       1.000000
      733.245400       0.999954
      733.352900       0.999788
      733.460400       0.999109
      733.568100       0.998027
      733.675700       0.996078
      733.783400       0.993759
      733.891100       0.990572
      733.998800       0.987214
      734.106600       0.983180
      734.214400       0.979119
      734.322200       0.974601
      734.430100       0.970554
      734.538000       0.966687
      734.645900       0.962927
      734.753900       0.959314
      734.861900       0.955789
      734.969800       0.952325
      735.077900       0.948682
      735.186000       0.944960
      735.294100       0.940641
      735.402300       0.935632
      735.510400       0.929853
      735.618700       0.923746
      735.726900       0.916089
      735.835100       0.907850
      735.943500       0.898414
      736.051800       0.888404
      736.160200       0.877756
      736.268600       0.866897
      736.377000       0.855906
      736.485500       0.844225
      736.594000       0.833257
      736.702500       0.822175
      736.811100       0.811028
      736.919700       0.799466
      737.028300       0.787744
      737.137000       0.775568
      737.245700       0.763193
      737.354400       0.750547
      737.463100       0.737813
      737.572000       0.724165
      737.680700       0.711383
      737.789600       0.698580
      737.898400       0.685492
      738.007400       0.672314
      738.116300       0.658519
      738.225300       0.644554
      738.334400       0.630063
      738.443400       0.615460
      738.552400       0.600685
      738.661600       0.585184
      738.770700       0.570725
      738.879800       0.556722
      738.989100       0.542863
      739.098300       0.529547
      739.207600       0.516298
      739.316900       0.503407
      739.426200       0.490535
      739.535600       0.477773
      739.645000       0.465065
      739.754400       0.451640
      739.863900       0.439244
      739.973400       0.426978
      740.082900       0.415036
      740.192400       0.403183
      740.302000       0.391881
      740.411700       0.380674
      740.521400       0.370074
      740.631000       0.359709
      740.740700       0.349686
      740.850500       0.327555
      740.960300       0.320259
      741.070100       0.313422
      741.180000       0.306813
      741.289900       0.300428
      741.399800       0.294042
      741.509700       0.287393
      741.619700       0.280622
      741.729700       0.273523
      741.839800       0.266369
      741.949900       0.258989
      742.060000       0.250779
      742.170100       0.242837
      742.280300       0.235565
      742.390500       0.228550
      742.500700       0.222230
      742.611000       0.216029
      742.721400       0.210231
      742.831700       0.204493
      742.942100       0.198887
      743.052400       0.194189
      743.162900       0.188540
      743.273400       0.182851
      743.383900       0.177144
      743.494400       0.171326
      743.605000       0.165495
      743.715600       0.159631
      743.826200       0.153821
      743.936900       0.148162
      744.047700       0.142718
      744.158400       0.138309
      744.269200       0.133603
      744.379900       0.129195
      744.490800       0.125362
      744.601600       0.121670
      744.712500       0.118389
      744.823500       0.115154
      744.934400       0.112081
      745.045500       0.109087
      745.156500       0.106204
      745.267500       0.104224
      745.378700       0.101778
      745.489800       0.099752
      745.601000       0.097831
      745.712200       0.096202
      745.823400       0.094493
      745.934600       0.092474
      746.046000       0.090096
      746.157300       0.087208
      746.268700       0.083732
      746.380100       0.080431
      746.491500       0.076166
      746.603000       0.071830
      746.714400       0.067808
      746.826000       0.063994
      746.937600       0.060849
      747.049200       0.058100
      747.160800       0.055853
      747.272500       0.053999
      747.384200       0.052359
      747.495800       0.051292
      747.607600       0.049924
      747.719500       0.048778
      747.831300       0.047726
      747.943200       0.046911
      748.055100       0.046273
      748.167000       0.045815
      748.278900       0.045531
      748.390900       0.045326
      748.503000       0.045168
      748.615100       0.045303
      748.727200       0.045038
      748.839300       0.044716
      748.951500       0.044285
      749.063700       0.043739
      749.175900       0.043104
      749.288200       0.042204
      749.400500       0.041229
      749.512800       0.039777
      749.625200       0.038223
      749.737500       0.036547
      749.850000       0.034605
      749.962500       0.032624
      750.075000       0.030940
      750.187600       0.029404
      750.300100       0.028557
      750.412700       0.027862
      750.525300       0.027685
      750.638100       0.027571
      750.750800       0.027578
      750.863500       0.027712
      750.976300       0.027673
      751.089100       0.027675
      751.201900       0.027690
      751.314800       0.027850
      751.427700       0.028034
      751.540600       0.028291
      751.653600       0.028458
      751.766700       0.028527
      751.879700       0.028345
      751.992700       0.026158
      752.105900       0.025850
      752.219100       0.025509
      752.332200       0.025163
      752.445400       0.024947
      752.558700       0.024930
      752.672000       0.025241
      752.785300       0.025747
      752.898700       0.026666
      753.012100       0.027668
      753.125500       0.028727
      753.239000       0.029413
      753.352400       0.029833
      753.465900       0.029787
      753.579500       0.029403
      753.693100       0.028281
      753.806800       0.026961
      753.920400       0.025077
      754.034100       0.023160
      754.147800       0.021170
      754.261500       0.019484
      754.375400       0.017759
      754.489300       0.016434
      754.603100       0.015230
      754.717000       0.014497
      754.830900       0.013851
      754.944900       0.013445
      755.058900       0.013107
      755.173000       0.012833
      755.287000       0.012578
      755.401100       0.012424
      755.515300       0.012111
      755.629500       0.011790
      755.743700       0.011444
      755.857900       0.011129
      755.972200       0.010843
      756.086500       0.010713
      756.200900       0.010639
      756.315200       0.010832
      756.429600       0.011047
      756.544100       0.011414
      756.658600       0.011546
      756.773100       0.011535
      756.887700       0.011180
      757.002300       0.010715
      757.116900       0.010026
      757.231600       0.009438
      757.346300       0.009117
      757.461000       0.009166
      757.575700       0.009541
      757.690600       0.010318
      757.805400       0.011080
      757.920200       0.011426
      758.035200       0.011456
      758.150100       0.010762
      758.265100       0.009497
      758.380100       0.007789
      758.495100       0.005839
      758.610200       0.003876
      758.725300       0.002322
      758.840500       0.001145
      758.955700       0.000632
      759.070900       0.000821
      759.186200       0.001450
      759.301500       0.002845
      759.416700       0.004397
      759.532100       0.006236
      759.647500       0.007971
      759.763000       0.009553
      759.878400       0.010713
      759.993900       0.011787
      760.109400       0.012113
      760.225000       0.012327
      760.340600       0.012259
      760.456300       0.012168
      760.572000       0.012052
      760.687700       0.012132
      760.803400       0.012277
      760.919200       0.012509
      761.035000       0.012691
      761.150900       0.012888
      761.266800       0.012692
      761.382700       0.012303
      761.498700       0.011540
      761.614600       0.010695
      761.730700       0.009736
      761.846700       0.008807
      761.962800       0.007924
      762.079000       0.007138
      762.195100       0.006397
      762.311300       0.005895
      762.427600       0.005409
      762.543800       0.005177
      762.660200       0.005207
      762.776600       0.005481
      762.892900       0.005969
      763.009300       0.006480
      763.125700       0.006633
      763.242200       0.006407
      763.358800       0.005512
      763.475300       0.004205
      763.592000       0.001900
