114,   114, MVIRI VIS channel from srf_MET7_2011303_2011304_1801-Release_S10EE_10.dat
Number of data points:
793
Wavenumber (cm-1)   Filter response
     8442.380800       0.000000
     8449.514200       0.000000
     8456.659600       0.000004
     8463.817200       0.000056
     8470.986900       0.000167
     8478.168700       0.000334
     8485.362700       0.000556
     8492.569000       0.000831
     8499.787500       0.001158
     8507.018300       0.001535
     8514.261400       0.001961
     8521.516800       0.002434
     8528.784600       0.002953
     8536.064900       0.003517
     8543.357500       0.004124
     8550.662700       0.004774
     8557.980300       0.005465
     8565.310500       0.006196
     8572.653200       0.006965
     8580.008600       0.007773
     8587.376600       0.008617
     8594.757200       0.009498
     8602.150500       0.010413
     8609.556600       0.011362
     8616.975400       0.012345
     8624.407100       0.013361
     8631.851500       0.014408
     8639.308900       0.015486
     8646.779100       0.016594
     8654.262200       0.017733
     8661.758300       0.018900
     8669.267400       0.020095
     8676.789600       0.021319
     8684.324800       0.022569
     8691.873100       0.023847
     8699.434500       0.025151
     8707.009100       0.026481
     8714.596900       0.027836
     8722.198000       0.029216
     8729.812300       0.030620
     8737.439900       0.032049
     8745.080900       0.033502
     8752.735200       0.034978
     8760.403000       0.036478
     8768.084200       0.038001
     8775.778900       0.039546
     8783.487000       0.041114
     8791.208800       0.042704
     8798.944100       0.044316
     8806.693100       0.045950
     8814.455700       0.047606
     8822.232000       0.049283
     8830.022100       0.050982
     8837.825900       0.052702
     8845.643500       0.054443
     8853.475000       0.056205
     8861.320300       0.057988
     8869.179600       0.059792
     8877.052800       0.061618
     8884.940000       0.063464
     8892.841300       0.065330
     8900.756600       0.067218
     8908.686000       0.069126
     8916.629500       0.071055
     8924.587200       0.073004
     8932.559200       0.074974
     8940.545400       0.076966
     8948.545900       0.078977
     8956.560700       0.081010
     8964.589900       0.083063
     8972.633500       0.085138
     8980.691500       0.087233
     8988.764000       0.089349
     8996.851100       0.091487
     9004.952700       0.093645
     9013.068900       0.095825
     9021.199800       0.098026
     9029.345400       0.100248
     9037.505600       0.102491
     9045.680700       0.104757
     9053.870500       0.107043
     9062.075200       0.109351
     9070.294800       0.111682
     9078.529300       0.114033
     9086.778700       0.116407
     9095.043200       0.118803
     9103.322700       0.121221
     9111.617300       0.123661
     9119.927000       0.126123
     9128.251900       0.128607
     9136.592100       0.131115
     9144.947400       0.133644
     9153.318100       0.136196
     9161.704100       0.138771
     9170.105500       0.141369
     9178.522300       0.143989
     9186.954500       0.146632
     9195.402300       0.149299
     9203.865600       0.151988
     9212.344500       0.154701
     9220.839100       0.157437
     9229.349300       0.160196
     9237.875300       0.162978
     9246.417000       0.165784
     9254.974500       0.168614
     9263.547900       0.171467
     9272.137200       0.174343
     9280.742500       0.177243
     9289.363700       0.180166
     9298.000900       0.183114
     9306.654300       0.186085
     9315.323700       0.189079
     9324.009300       0.192098
     9332.711200       0.195140
     9341.429200       0.198205
     9350.163600       0.201295
     9358.914400       0.204408
     9367.681500       0.207546
     9376.465100       0.210706
     9385.265100       0.213891
     9394.081700       0.217099
     9402.914900       0.220331
     9411.764700       0.223586
     9420.631200       0.226866
     9429.514400       0.230168
     9438.414300       0.233494
     9447.331100       0.236843
     9456.264800       0.240216
     9465.215300       0.243612
     9474.182900       0.247031
     9483.167400       0.250474
     9492.169000       0.253939
     9501.187600       0.257427
     9510.223500       0.260939
     9519.276500       0.264472
     9528.346800       0.268029
     9537.434400       0.271608
     9546.539400       0.275208
     9555.661700       0.278832
     9564.801500       0.282477
     9573.958800       0.286144
     9583.133700       0.289834
     9592.326100       0.293544
     9601.536200       0.297276
     9610.764100       0.301029
     9620.009600       0.304803
     9629.273000       0.308598
     9638.554200       0.312414
     9647.853400       0.316250
     9657.170400       0.320106
     9666.505600       0.323983
     9675.858700       0.327879
     9685.230000       0.331795
     9694.619500       0.335730
     9704.027200       0.339684
     9713.453100       0.343658
     9722.897400       0.347650
     9732.360100       0.351660
     9741.841200       0.355688
     9751.340800       0.359734
     9760.859000       0.363798
     9770.395700       0.367879
     9779.951100       0.371976
     9789.525200       0.376091
     9799.118100       0.380222
     9808.729800       0.384368
     9818.360300       0.388531
     9828.009800       0.392709
     9837.678300       0.396903
     9847.365800       0.401111
     9857.072400       0.405333
     9866.798200       0.409570
     9876.543200       0.413820
     9886.307500       0.418084
     9896.091000       0.422361
     9905.894000       0.426651
     9915.716400       0.430953
     9925.558300       0.435267
     9935.419800       0.439593
     9945.300800       0.443930
     9955.201600       0.448277
     9965.122100       0.452636
     9975.062300       0.457004
     9985.022500       0.461382
     9995.002500       0.465770
    10005.002500       0.470166
    10015.022500       0.474571
    10025.062700       0.478984
    10035.122900       0.483404
    10045.203400       0.487832
    10055.304200       0.492267
    10065.425300       0.496708
    10075.566800       0.501155
    10085.728700       0.505607
    10095.911200       0.510065
    10106.114200       0.514527
    10116.337900       0.518994
    10126.582300       0.523464
    10136.847400       0.527938
    10147.133400       0.532415
    10157.440300       0.536894
    10167.768200       0.541375
    10178.117000       0.545858
    10188.487000       0.550342
    10198.878100       0.554826
    10209.290500       0.559311
    10219.724100       0.563795
    10230.179000       0.568279
    10240.655400       0.572762
    10251.153300       0.577242
    10261.672700       0.581721
    10272.213700       0.586197
    10282.776300       0.590670
    10293.360800       0.595140
    10303.967000       0.599605
    10314.595200       0.604066
    10325.245200       0.608522
    10335.917300       0.612972
    10346.611500       0.617417
    10357.327800       0.621855
    10368.066400       0.626286
    10378.827200       0.630710
    10389.610400       0.635127
    10400.416000       0.639534
    10411.244100       0.643933
    10422.094800       0.648323
    10432.968200       0.652703
    10443.864200       0.657073
    10454.783100       0.661433
    10465.724800       0.665781
    10476.689400       0.670117
    10487.677000       0.674442
    10498.687700       0.678754
    10509.721500       0.683052
    10520.778500       0.687338
    10531.858900       0.691609
    10542.962600       0.695866
    10554.089700       0.700108
    10565.240400       0.704335
    10576.414600       0.708546
    10587.612500       0.712741
    10598.834100       0.716919
    10610.079600       0.721080
    10621.348900       0.725223
    10632.642200       0.729348
    10643.959600       0.733455
    10655.301000       0.737543
    10666.666700       0.741611
    10678.056600       0.745659
    10689.470900       0.749688
    10700.909600       0.753695
    10712.372800       0.757682
    10723.860600       0.761647
    10735.373100       0.765589
    10746.910300       0.769510
    10758.472300       0.773408
    10770.059200       0.777282
    10781.671200       0.781133
    10793.308100       0.784960
    10804.970300       0.788762
    10816.657700       0.792540
    10828.370300       0.796292
    10840.108400       0.800018
    10851.871900       0.803719
    10863.661100       0.807393
    10875.475800       0.811041
    10887.316300       0.814661
    10899.182600       0.818254
    10911.074700       0.821819
    10922.992900       0.825355
    10934.937100       0.828863
    10946.907500       0.832342
    10958.904100       0.835792
    10970.927000       0.839213
    10982.976400       0.842603
    10995.052200       0.845963
    11007.154700       0.849292
    11019.283700       0.852590
    11031.439600       0.855857
    11043.622300       0.859093
    11055.832000       0.862297
    11068.068600       0.865468
    11080.332400       0.868607
    11092.623400       0.871713
    11104.941700       0.874786
    11117.287400       0.877826
    11129.660500       0.880832
    11142.061300       0.883805
    11154.489700       0.886743
    11166.945800       0.889647
    11179.429800       0.892516
    11191.941800       0.895351
    11204.481800       0.898150
    11217.049900       0.900914
    11229.646300       0.903642
    11242.270900       0.906335
    11254.924000       0.908992
    11267.605600       0.911612
    11280.315800       0.914196
    11293.054800       0.916744
    11305.822500       0.919254
    11318.619100       0.921728
    11331.444800       0.924165
    11344.299500       0.926564
    11357.183400       0.928926
    11370.096600       0.931250
    11383.039300       0.933537
    11396.011400       0.935785
    11409.013100       0.937996
    11422.044500       0.940168
    11435.105800       0.942302
    11448.196900       0.944398
    11461.318100       0.946455
    11474.469300       0.948473
    11487.650800       0.950453
    11500.862600       0.952394
    11514.104800       0.954296
    11527.377500       0.956159
    11540.680900       0.957984
    11554.015000       0.959769
    11567.380000       0.961515
    11580.775900       0.963221
    11594.202900       0.964889
    11607.661100       0.966517
    11621.150500       0.968106
    11634.671300       0.969656
    11648.223600       0.971166
    11661.807600       0.972637
    11675.423200       0.974068
    11689.070700       0.975461
    11702.750100       0.976814
    11716.461600       0.978127
    11730.205300       0.979402
    11743.981200       0.980637
    11757.789500       0.981833
    11771.630400       0.982990
    11785.503800       0.984107
    11799.410000       0.985186
    11813.349100       0.986226
    11827.321100       0.987227
    11841.326200       0.988189
    11855.364600       0.989112
    11869.436200       0.989997
    11883.541300       0.990843
    11897.680000       0.991651
    11911.852300       0.992420
    11926.058400       0.993152
    11940.298500       0.993845
    11954.572600       0.994500
    11968.880900       0.995118
    11983.223500       0.995697
    11997.600500       0.996240
    12012.012000       0.996745
    12026.458200       0.997213
    12040.939200       0.997644
    12055.455100       0.998038
    12070.006000       0.998395
    12084.592100       0.998716
    12099.213600       0.999001
    12113.870400       0.999250
    12128.562800       0.999463
    12143.290800       0.999640
    12158.054700       0.999782
    12172.854500       0.999889
    12187.690400       0.999960
    12202.562500       0.999997
    12217.471000       1.000000
    12232.415900       0.999968
    12247.397400       0.999903
    12262.415700       0.999804
    12277.470800       0.999671
    12292.563000       0.999505
    12307.692300       0.999306
    12322.858900       0.999075
    12338.062900       0.998812
    12353.304500       0.998516
    12368.583800       0.998189
    12383.900900       0.997830
    12399.256000       0.997440
    12414.649300       0.997019
    12430.080800       0.996568
    12445.550700       0.996087
    12461.059200       0.995576
    12476.606400       0.995035
    12492.192400       0.994465
    12507.817400       0.993866
    12523.481500       0.993239
    12539.185000       0.992584
    12554.927800       0.991901
    12570.710200       0.991190
    12586.532400       0.990453
    12602.394500       0.989689
    12618.296500       0.988898
    12634.238800       0.988082
    12650.221400       0.987239
    12666.244500       0.986372
    12682.308200       0.985480
    12698.412700       0.984564
    12714.558200       0.983623
    12730.744700       0.982659
    12746.972600       0.981671
    12763.241900       0.980661
    12779.552700       0.979628
    12795.905300       0.978574
    12812.299800       0.977497
    12828.736400       0.976400
    12845.215200       0.975282
    12861.736300       0.974143
    12878.300100       0.972984
    12894.906500       0.971806
    12911.555800       0.970609
    12928.248200       0.969393
    12944.983800       0.968159
    12961.762800       0.966907
    12978.585300       0.965637
    12995.451600       0.964351
    13012.361700       0.963048
    13029.316000       0.961730
    13046.314400       0.960395
    13063.357300       0.959046
    13080.444700       0.957681
    13097.576900       0.956303
    13114.754100       0.954910
    13131.976400       0.953504
    13149.243900       0.952086
    13166.556900       0.950654
    13183.915600       0.949211
    13201.320100       0.947756
    13218.770700       0.946290
    13236.267400       0.944813
    13253.810500       0.943326
    13271.400100       0.941829
    13289.036500       0.940323
    13306.719900       0.938808
    13324.450400       0.937285
    13342.228200       0.935754
    13360.053400       0.934215
    13377.926400       0.932669
    13395.847300       0.931116
    13413.816200       0.929557
    13431.833400       0.927993
    13449.899100       0.926423
    13468.013500       0.924849
    13486.176700       0.923270
    13504.388900       0.921687
    13522.650400       0.920100
    13540.961400       0.918511
    13559.322000       0.916919
    13577.732500       0.915325
    13596.193100       0.913729
    13614.703900       0.912132
    13633.265200       0.910534
    13651.877100       0.908935
    13670.540000       0.907337
    13689.253900       0.905739
    13708.019200       0.904142
    13726.836000       0.902546
    13745.704500       0.900952
    13764.624900       0.899360
    13783.597500       0.897770
    13802.622500       0.896184
    13821.700100       0.894601
    13840.830400       0.893021
    13860.013900       0.891446
    13879.250500       0.889875
    13898.540700       0.888310
    13917.884500       0.886749
    13937.282200       0.885195
    13956.734100       0.883646
    13976.240400       0.882105
    13995.801300       0.880570
    14015.417000       0.879042
    14035.087700       0.877522
    14054.813800       0.876010
    14074.595400       0.874506
    14094.432700       0.873011
    14114.326000       0.871525
    14134.275600       0.870049
    14154.281700       0.868582
    14174.344400       0.867125
    14194.464200       0.865679
    14214.641100       0.864244
    14234.875400       0.862820
    14255.167500       0.861407
    14275.517500       0.860006
    14295.925700       0.858617
    14316.392300       0.857240
    14336.917600       0.855876
    14357.501800       0.854524
    14378.145200       0.853186
    14398.848100       0.851862
    14419.610700       0.850551
    14440.433200       0.849254
    14461.316000       0.847971
    14482.259200       0.846704
    14503.263200       0.845450
    14524.328200       0.844212
    14545.454500       0.842989
    14566.642400       0.841782
    14587.892000       0.840590
    14609.203800       0.839414
    14630.577900       0.838254
    14652.014700       0.837111
    14673.514300       0.835984
    14695.077100       0.834874
    14716.703500       0.833780
    14738.393500       0.832704
    14760.147600       0.831645
    14781.966000       0.830604
    14803.849000       0.829580
    14825.796900       0.828573
    14847.809900       0.827585
    14869.888500       0.826614
    14892.032800       0.825661
    14914.243100       0.824727
    14936.519800       0.823811
    14958.863100       0.822913
    14981.273400       0.822034
    15003.750900       0.821173
    15026.296000       0.820331
    15048.909000       0.819507
    15071.590100       0.818702
    15094.339600       0.817916
    15117.158000       0.817149
    15140.045400       0.816401
    15163.002300       0.815671
    15186.028900       0.814961
    15209.125500       0.814269
    15232.292500       0.813596
    15255.530100       0.812942
    15278.838800       0.812307
    15302.218800       0.811691
    15325.670500       0.811094
    15349.194200       0.810515
    15372.790200       0.809955
    15396.458800       0.809413
    15420.200500       0.808891
    15444.015400       0.808386
    15467.904100       0.807900
    15491.866800       0.807432
    15515.903800       0.806983
    15540.015500       0.806551
    15564.202300       0.806138
    15588.464500       0.805742
    15612.802500       0.805364
    15637.216600       0.805003
    15661.707100       0.804660
    15686.274500       0.804333
    15710.919100       0.804024
    15735.641200       0.803732
    15760.441300       0.803456
    15785.319700       0.803196
    15810.276700       0.802953
    15835.312700       0.802725
    15860.428200       0.802513
    15885.623500       0.802317
    15910.899000       0.802136
    15936.255000       0.801970
    15961.691900       0.801818
    15987.210200       0.801681
    16012.810200       0.801558
    16038.492400       0.801448
    16064.257000       0.801353
    16090.104600       0.801270
    16116.035500       0.801200
    16142.050000       0.801142
    16168.148700       0.801097
    16194.332000       0.801064
    16220.600200       0.801041
    16246.953700       0.801030
    16273.393000       0.801030
    16299.918500       0.801040
    16326.530600       0.801060
    16353.229800       0.801089
    16380.016400       0.801127
    16406.890900       0.801174
    16433.853700       0.801229
    16460.905300       0.801292
    16488.046200       0.801362
    16515.276600       0.801439
    16542.597200       0.801523
    16570.008300       0.801612
    16597.510400       0.801707
    16625.103900       0.801806
    16652.789300       0.801911
    16680.567100       0.802019
    16708.437800       0.802130
    16736.401700       0.802244
    16764.459300       0.802361
    16792.611300       0.802480
    16820.857900       0.802599
    16849.199700       0.802720
    16877.637100       0.802841
    16906.170800       0.802961
    16934.801000       0.803080
    16963.528400       0.803198
    16992.353400       0.803313
    17021.276600       0.803426
    17050.298400       0.803536
    17079.419300       0.803641
    17108.639900       0.803742
    17137.960600       0.803838
    17167.382000       0.803927
    17196.904600       0.804011
    17226.528900       0.804087
    17256.255400       0.804156
    17286.084700       0.804216
    17316.017300       0.804267
    17346.053800       0.804308
    17376.194600       0.804339
    17406.440400       0.804359
    17436.791600       0.804367
    17467.248900       0.804362
    17497.812800       0.804345
    17528.483800       0.804314
    17559.262500       0.804268
    17590.149500       0.804207
    17621.145400       0.804130
    17652.250700       0.804036
    17683.466000       0.803925
    17714.791900       0.803796
    17746.228900       0.803648
    17777.777800       0.803480
    17809.439000       0.803293
    17841.213200       0.803084
    17873.101000       0.802853
    17905.103000       0.802601
    17937.219700       0.802324
    17969.451900       0.802024
    18001.800200       0.801700
    18034.265100       0.801349
    18066.847300       0.800973
    18099.547500       0.800570
    18132.366300       0.800139
    18165.304300       0.799679
    18198.362100       0.799191
    18231.540600       0.798672
    18264.840200       0.798123
    18298.261700       0.797543
    18331.805700       0.796930
    18365.472900       0.796284
    18399.264000       0.795605
    18433.179700       0.794891
    18467.220700       0.794142
    18501.387600       0.793357
    18535.681200       0.792535
    18570.102100       0.791676
    18604.651200       0.790779
    18639.329000       0.789843
    18674.136300       0.788867
    18709.073900       0.787851
    18744.142500       0.786794
    18779.342700       0.785695
    18814.675400       0.784553
    18850.141400       0.783369
    18885.741300       0.782140
    18921.475900       0.780866
    18957.346000       0.779547
    18993.352300       0.778182
    19029.495700       0.776771
    19065.776900       0.775312
    19102.196800       0.773804
    19138.756000       0.772248
    19175.455400       0.770642
    19212.295900       0.768986
    19249.278200       0.767280
    19286.403100       0.765522
    19323.671500       0.763711
    19361.084200       0.761849
    19398.642100       0.759932
    19436.346000       0.757962
    19474.196700       0.755937
    19512.195100       0.753857
    19550.342100       0.751722
    19588.638600       0.749530
    19627.085400       0.747281
    19665.683400       0.744974
    19704.433500       0.742610
    19743.336600       0.740187
    19782.393700       0.737706
    19821.605600       0.735164
    19860.973200       0.732563
    19900.497500       0.729901
    19940.179500       0.727179
    19980.020000       0.724395
    20020.020000       0.721549
    20060.180500       0.718640
    20100.502500       0.715669
    20140.986900       0.712635
    20181.634700       0.709538
    20222.446900       0.706377
    20263.424500       0.703152
    20304.568500       0.699862
    20345.880000       0.696508
    20387.359800       0.693088
    20429.009200       0.689603
    20470.829100       0.686053
    20512.820500       0.682437
    20554.984600       0.678755
    20597.322300       0.675006
    20639.834900       0.671191
    20682.523300       0.667310
    20725.388600       0.663362
    20768.432000       0.659347
    20811.654500       0.655266
    20855.057400       0.651117
    20898.641600       0.646902
    20942.408400       0.642619
    20986.358900       0.638270
    21030.494200       0.633853
    21074.815600       0.629370
    21119.324200       0.624820
    21164.021200       0.620203
    21208.907700       0.615519
    21253.985100       0.610769
    21299.254500       0.605953
    21344.717200       0.601071
    21390.374300       0.596123
    21436.227200       0.591110
    21482.277100       0.586031
    21528.525300       0.580888
    21574.973000       0.575680
    21621.621600       0.570408
    21668.472400       0.565072
    21715.526600       0.559673
    21762.785600       0.554211
    21810.250800       0.548686
    21857.923500       0.543101
    21905.805000       0.537454
    21953.896800       0.531746
    22002.200200       0.525979
    22050.716600       0.520152
    22099.447500       0.514267
    22148.394200       0.508324
    22197.558300       0.502325
    22246.941000       0.496269
    22296.544000       0.490158
    22346.368700       0.483993
    22396.416600       0.477774
    22446.689100       0.471503
    22497.187900       0.465181
    22547.914300       0.458808
    22598.870100       0.452387
    22650.056600       0.445917
    22701.475600       0.439400
    22753.128600       0.432838
    22805.017100       0.426231
    22857.142900       0.419582
    22909.507400       0.412891
    22962.112500       0.406159
    23014.959700       0.399389
    23068.050700       0.392581
    23121.387300       0.385738
    23174.971000       0.378860
    23228.803700       0.371950
    23282.887100       0.365009
    23337.222900       0.358039
    23391.812900       0.351042
    23446.658900       0.344019
    23501.762600       0.336973
    23557.126000       0.329904
    23612.750900       0.322817
    23668.639100       0.315711
    23724.792400       0.308590
    23781.212800       0.301456
    23837.902300       0.294310
    23894.862600       0.287155
    23952.095800       0.279993
    24009.603800       0.272828
    24067.388700       0.265660
    24125.452400       0.258493
    24183.796900       0.251329
    24242.424200       0.244171
    24301.336600       0.237021
    24360.535900       0.229882
    24420.024400       0.222757
    24479.804200       0.215649
    24539.877300       0.208560
    24600.246000       0.201494
    24660.912500       0.194452
    24721.878900       0.187440
    24783.147500       0.180459
    24844.720500       0.173514
    24906.600200       0.166606
    24968.789000       0.159740
    25031.289100       0.152919
    25094.102900       0.146145
    25157.232700       0.139424
    25220.681000       0.132759
    25284.450100       0.126152
    25348.542500       0.119608
    25412.960600       0.113132
    25477.707000       0.106725
