143,   143, MVIRI VIS channel from srf_MET7_2015168_2015169_1801-Release_S10EE_10.dat
Number of data points:
793
Wavenumber (cm-1)   Filter response
     8442.380800       0.000000
     8449.514200       0.000000
     8456.659600       0.000004
     8463.817200       0.000057
     8470.986900       0.000169
     8478.168700       0.000337
     8485.362700       0.000561
     8492.569000       0.000839
     8499.787500       0.001169
     8507.018300       0.001550
     8514.261400       0.001980
     8521.516800       0.002458
     8528.784600       0.002982
     8536.064900       0.003552
     8543.357500       0.004165
     8550.662700       0.004821
     8557.980300       0.005518
     8565.310500       0.006256
     8572.653200       0.007033
     8580.008600       0.007848
     8587.376600       0.008701
     8594.757200       0.009590
     8602.150500       0.010514
     8609.556600       0.011472
     8616.975400       0.012464
     8624.407100       0.013489
     8631.851500       0.014546
     8639.308900       0.015634
     8646.779100       0.016753
     8654.262200       0.017902
     8661.758300       0.019080
     8669.267400       0.020286
     8676.789600       0.021521
     8684.324800       0.022783
     8691.873100       0.024073
     8699.434500       0.025388
     8707.009100       0.026730
     8714.596900       0.028097
     8722.198000       0.029490
     8729.812300       0.030907
     8737.439900       0.032349
     8745.080900       0.033814
     8752.735200       0.035304
     8760.403000       0.036817
     8768.084200       0.038353
     8775.778900       0.039911
     8783.487000       0.041493
     8791.208800       0.043097
     8798.944100       0.044723
     8806.693100       0.046371
     8814.455700       0.048041
     8822.232000       0.049733
     8830.022100       0.051446
     8837.825900       0.053181
     8845.643500       0.054937
     8853.475000       0.056714
     8861.320300       0.058512
     8869.179600       0.060331
     8877.052800       0.062171
     8884.940000       0.064033
     8892.841300       0.065915
     8900.756600       0.067818
     8908.686000       0.069741
     8916.629500       0.071686
     8924.587200       0.073651
     8932.559200       0.075637
     8940.545400       0.077645
     8948.545900       0.079673
     8956.560700       0.081722
     8964.589900       0.083792
     8972.633500       0.085882
     8980.691500       0.087994
     8988.764000       0.090127
     8996.851100       0.092281
     9004.952700       0.094456
     9013.068900       0.096653
     9021.199800       0.098871
     9029.345400       0.101110
     9037.505600       0.103370
     9045.680700       0.105653
     9053.870500       0.107957
     9062.075200       0.110282
     9070.294800       0.112630
     9078.529300       0.114999
     9086.778700       0.117391
     9095.043200       0.119804
     9103.322700       0.122240
     9111.617300       0.124698
     9119.927000       0.127178
     9128.251900       0.129680
     9136.592100       0.132205
     9144.947400       0.134753
     9153.318100       0.137323
     9161.704100       0.139916
     9170.105500       0.142533
     9178.522300       0.145172
     9186.954500       0.147833
     9195.402300       0.150518
     9203.865600       0.153226
     9212.344500       0.155958
     9220.839100       0.158712
     9229.349300       0.161490
     9237.875300       0.164292
     9246.417000       0.167116
     9254.974500       0.169965
     9263.547900       0.172837
     9272.137200       0.175732
     9280.742500       0.178651
     9289.363700       0.181594
     9298.000900       0.184560
     9306.654300       0.187551
     9315.323700       0.190564
     9324.009300       0.193602
     9332.711200       0.196664
     9341.429200       0.199749
     9350.163600       0.202858
     9358.914400       0.205991
     9367.681500       0.209147
     9376.465100       0.212328
     9385.265100       0.215532
     9394.081700       0.218760
     9402.914900       0.222011
     9411.764700       0.225286
     9420.631200       0.228585
     9429.514400       0.231907
     9438.414300       0.235253
     9447.331100       0.238622
     9456.264800       0.242014
     9465.215300       0.245430
     9474.182900       0.248869
     9483.167400       0.252331
     9492.169000       0.255816
     9501.187600       0.259324
     9510.223500       0.262855
     9519.276500       0.266408
     9528.346800       0.269984
     9537.434400       0.273582
     9546.539400       0.277203
     9555.661700       0.280846
     9564.801500       0.284510
     9573.958800       0.288197
     9583.133700       0.291906
     9592.326100       0.295635
     9601.536200       0.299387
     9610.764100       0.303159
     9620.009600       0.306953
     9629.273000       0.310767
     9638.554200       0.314602
     9647.853400       0.318457
     9657.170400       0.322332
     9666.505600       0.326228
     9675.858700       0.330143
     9685.230000       0.334077
     9694.619500       0.338031
     9704.027200       0.342004
     9713.453100       0.345996
     9722.897400       0.350006
     9732.360100       0.354034
     9741.841200       0.358081
     9751.340800       0.362145
     9760.859000       0.366226
     9770.395700       0.370325
     9779.951100       0.374441
     9789.525200       0.378573
     9799.118100       0.382722
     9808.729800       0.386886
     9818.360300       0.391066
     9828.009800       0.395261
     9837.678300       0.399471
     9847.365800       0.403696
     9857.072400       0.407935
     9866.798200       0.412189
     9876.543200       0.416455
     9886.307500       0.420735
     9896.091000       0.425029
     9905.894000       0.429334
     9915.716400       0.433652
     9925.558300       0.437981
     9935.419800       0.442322
     9945.300800       0.446674
     9955.201600       0.451037
     9965.122100       0.455410
     9975.062300       0.459793
     9985.022500       0.464185
     9995.002500       0.468587
    10005.002500       0.472997
    10015.022500       0.477416
    10025.062700       0.481842
    10035.122900       0.486276
    10045.203400       0.490717
    10055.304200       0.495164
    10065.425300       0.499618
    10075.566800       0.504077
    10085.728700       0.508542
    10095.911200       0.513011
    10106.114200       0.517485
    10116.337900       0.521963
    10126.582300       0.526445
    10136.847400       0.530929
    10147.133400       0.535417
    10157.440300       0.539906
    10167.768200       0.544397
    10178.117000       0.548890
    10188.487000       0.553383
    10198.878100       0.557877
    10209.290500       0.562370
    10219.724100       0.566863
    10230.179000       0.571355
    10240.655400       0.575846
    10251.153300       0.580334
    10261.672700       0.584820
    10272.213700       0.589303
    10282.776300       0.593783
    10293.360800       0.598259
    10303.967000       0.602731
    10314.595200       0.607197
    10325.245200       0.611659
    10335.917300       0.616115
    10346.611500       0.620564
    10357.327800       0.625006
    10368.066400       0.629442
    10378.827200       0.633870
    10389.610400       0.638289
    10400.416000       0.642700
    10411.244100       0.647102
    10422.094800       0.651494
    10432.968200       0.655877
    10443.864200       0.660248
    10454.783100       0.664609
    10465.724800       0.668958
    10476.689400       0.673295
    10487.677000       0.677620
    10498.687700       0.681932
    10509.721500       0.686230
    10520.778500       0.690515
    10531.858900       0.694785
    10542.962600       0.699041
    10554.089700       0.703281
    10565.240400       0.707505
    10576.414600       0.711714
    10587.612500       0.715905
    10598.834100       0.720080
    10610.079600       0.724237
    10621.348900       0.728376
    10632.642200       0.732497
    10643.959600       0.736599
    10655.301000       0.740681
    10666.666700       0.744743
    10678.056600       0.748786
    10689.470900       0.752807
    10700.909600       0.756808
    10712.372800       0.760787
    10723.860600       0.764744
    10735.373100       0.768679
    10746.910300       0.772591
    10758.472300       0.776480
    10770.059200       0.780345
    10781.671200       0.784186
    10793.308100       0.788003
    10804.970300       0.791795
    10816.657700       0.795561
    10828.370300       0.799302
    10840.108400       0.803017
    10851.871900       0.806706
    10863.661100       0.810368
    10875.475800       0.814002
    10887.316300       0.817609
    10899.182600       0.821188
    10911.074700       0.824739
    10922.992900       0.828261
    10934.937100       0.831755
    10946.907500       0.835218
    10958.904100       0.838653
    10970.927000       0.842057
    10982.976400       0.845431
    10995.052200       0.848774
    11007.154700       0.852086
    11019.283700       0.855367
    11031.439600       0.858616
    11043.622300       0.861833
    11055.832000       0.865018
    11068.068600       0.868170
    11080.332400       0.871290
    11092.623400       0.874376
    11104.941700       0.877429
    11117.287400       0.880448
    11129.660500       0.883433
    11142.061300       0.886385
    11154.489700       0.889301
    11166.945800       0.892183
    11179.429800       0.895030
    11191.941800       0.897841
    11204.481800       0.900617
    11217.049900       0.903358
    11229.646300       0.906062
    11242.270900       0.908730
    11254.924000       0.911363
    11267.605600       0.913958
    11280.315800       0.916517
    11293.054800       0.919038
    11305.822500       0.921523
    11318.619100       0.923970
    11331.444800       0.926380
    11344.299500       0.928753
    11357.183400       0.931087
    11370.096600       0.933384
    11383.039300       0.935642
    11396.011400       0.937862
    11409.013100       0.940044
    11422.044500       0.942187
    11435.105800       0.944292
    11448.196900       0.946358
    11461.318100       0.948385
    11474.469300       0.950373
    11487.650800       0.952323
    11500.862600       0.954233
    11514.104800       0.956104
    11527.377500       0.957936
    11540.680900       0.959728
    11554.015000       0.961481
    11567.380000       0.963195
    11580.775900       0.964869
    11594.202900       0.966503
    11607.661100       0.968098
    11621.150500       0.969654
    11634.671300       0.971170
    11648.223600       0.972646
    11661.807600       0.974083
    11675.423200       0.975480
    11689.070700       0.976838
    11702.750100       0.978156
    11716.461600       0.979435
    11730.205300       0.980674
    11743.981200       0.981873
    11757.789500       0.983033
    11771.630400       0.984154
    11785.503800       0.985236
    11799.410000       0.986278
    11813.349100       0.987281
    11827.321100       0.988245
    11841.326200       0.989170
    11855.364600       0.990056
    11869.436200       0.990903
    11883.541300       0.991711
    11897.680000       0.992481
    11911.852300       0.993213
    11926.058400       0.993906
    11940.298500       0.994560
    11954.572600       0.995177
    11968.880900       0.995756
    11983.223500       0.996297
    11997.600500       0.996800
    12012.012000       0.997266
    12026.458200       0.997694
    12040.939200       0.998086
    12055.455100       0.998440
    12070.006000       0.998758
    12084.592100       0.999039
    12099.213600       0.999284
    12113.870400       0.999492
    12128.562800       0.999665
    12143.290800       0.999802
    12158.054700       0.999903
    12172.854500       0.999969
    12187.690400       1.000000
    12202.562500       0.999996
    12217.471000       0.999958
    12232.415900       0.999885
    12247.397400       0.999779
    12262.415700       0.999638
    12277.470800       0.999464
    12292.563000       0.999257
    12307.692300       0.999017
    12322.858900       0.998744
    12338.062900       0.998439
    12353.304500       0.998102
    12368.583800       0.997733
    12383.900900       0.997332
    12399.256000       0.996900
    12414.649300       0.996438
    12430.080800       0.995945
    12445.550700       0.995421
    12461.059200       0.994868
    12476.606400       0.994286
    12492.192400       0.993674
    12507.817400       0.993033
    12523.481500       0.992364
    12539.185000       0.991667
    12554.927800       0.990941
    12570.710200       0.990189
    12586.532400       0.989409
    12602.394500       0.988603
    12618.296500       0.987770
    12634.238800       0.986911
    12650.221400       0.986027
    12666.244500       0.985118
    12682.308200       0.984184
    12698.412700       0.983225
    12714.558200       0.982242
    12730.744700       0.981236
    12746.972600       0.980206
    12763.241900       0.979154
    12779.552700       0.978080
    12795.905300       0.976983
    12812.299800       0.975865
    12828.736400       0.974725
    12845.215200       0.973565
    12861.736300       0.972384
    12878.300100       0.971184
    12894.906500       0.969964
    12911.555800       0.968725
    12928.248200       0.967467
    12944.983800       0.966192
    12961.762800       0.964898
    12978.585300       0.963587
    12995.451600       0.962259
    13012.361700       0.960915
    13029.316000       0.959555
    13046.314400       0.958179
    13063.357300       0.956788
    13080.444700       0.955383
    13097.576900       0.953963
    13114.754100       0.952530
    13131.976400       0.951083
    13149.243900       0.949623
    13166.556900       0.948151
    13183.915600       0.946667
    13201.320100       0.945171
    13218.770700       0.943664
    13236.267400       0.942147
    13253.810500       0.940619
    13271.400100       0.939082
    13289.036500       0.937535
    13306.719900       0.935980
    13324.450400       0.934416
    13342.228200       0.932845
    13360.053400       0.931266
    13377.926400       0.929680
    13395.847300       0.928087
    13413.816200       0.926488
    13431.833400       0.924884
    13449.899100       0.923274
    13468.013500       0.921660
    13486.176700       0.920041
    13504.388900       0.918419
    13522.650400       0.916793
    13540.961400       0.915164
    13559.322000       0.913532
    13577.732500       0.911899
    13596.193100       0.910263
    13614.703900       0.908627
    13633.265200       0.906990
    13651.877100       0.905352
    13670.540000       0.903715
    13689.253900       0.902078
    13708.019200       0.900441
    13726.836000       0.898807
    13745.704500       0.897174
    13764.624900       0.895543
    13783.597500       0.893914
    13802.622500       0.892289
    13821.700100       0.890667
    13840.830400       0.889049
    13860.013900       0.887435
    13879.250500       0.885826
    13898.540700       0.884222
    13917.884500       0.882623
    13937.282200       0.881030
    13956.734100       0.879443
    13976.240400       0.877863
    13995.801300       0.876289
    14015.417000       0.874723
    14035.087700       0.873165
    14054.813800       0.871614
    14074.595400       0.870072
    14094.432700       0.868539
    14114.326000       0.867015
    14134.275600       0.865500
    14154.281700       0.863995
    14174.344400       0.862500
    14194.464200       0.861015
    14214.641100       0.859542
    14234.875400       0.858079
    14255.167500       0.856628
    14275.517500       0.855188
    14295.925700       0.853761
    14316.392300       0.852345
    14336.917600       0.850943
    14357.501800       0.849553
    14378.145200       0.848176
    14398.848100       0.846813
    14419.610700       0.845463
    14440.433200       0.844128
    14461.316000       0.842807
    14482.259200       0.841500
    14503.263200       0.840208
    14524.328200       0.838930
    14545.454500       0.837668
    14566.642400       0.836422
    14587.892000       0.835191
    14609.203800       0.833976
    14630.577900       0.832777
    14652.014700       0.831594
    14673.514300       0.830428
    14695.077100       0.829278
    14716.703500       0.828145
    14738.393500       0.827029
    14760.147600       0.825930
    14781.966000       0.824848
    14803.849000       0.823784
    14825.796900       0.822738
    14847.809900       0.821709
    14869.888500       0.820698
    14892.032800       0.819704
    14914.243100       0.818729
    14936.519800       0.817772
    14958.863100       0.816833
    14981.273400       0.815913
    15003.750900       0.815011
    15026.296000       0.814127
    15048.909000       0.813262
    15071.590100       0.812416
    15094.339600       0.811588
    15117.158000       0.810778
    15140.045400       0.809988
    15163.002300       0.809216
    15186.028900       0.808463
    15209.125500       0.807728
    15232.292500       0.807012
    15255.530100       0.806315
    15278.838800       0.805637
    15302.218800       0.804977
    15325.670500       0.804336
    15349.194200       0.803713
    15372.790200       0.803109
    15396.458800       0.802524
    15420.200500       0.801956
    15444.015400       0.801407
    15467.904100       0.800876
    15491.866800       0.800363
    15515.903800       0.799868
    15540.015500       0.799391
    15564.202300       0.798932
    15588.464500       0.798490
    15612.802500       0.798066
    15637.216600       0.797658
    15661.707100       0.797268
    15686.274500       0.796895
    15710.919100       0.796539
    15735.641200       0.796199
    15760.441300       0.795875
    15785.319700       0.795568
    15810.276700       0.795276
    15835.312700       0.795001
    15860.428200       0.794740
    15885.623500       0.794495
    15910.899000       0.794265
    15936.255000       0.794049
    15961.691900       0.793848
    15987.210200       0.793661
    16012.810200       0.793488
    16038.492400       0.793328
    16064.257000       0.793182
    16090.104600       0.793048
    16116.035500       0.792928
    16142.050000       0.792819
    16168.148700       0.792722
    16194.332000       0.792637
    16220.600200       0.792563
    16246.953700       0.792500
    16273.393000       0.792447
    16299.918500       0.792404
    16326.530600       0.792371
    16353.229800       0.792347
    16380.016400       0.792332
    16406.890900       0.792325
    16433.853700       0.792327
    16460.905300       0.792336
    16488.046200       0.792352
    16515.276600       0.792374
    16542.597200       0.792403
    16570.008300       0.792438
    16597.510400       0.792478
    16625.103900       0.792522
    16652.789300       0.792571
    16680.567100       0.792623
    16708.437800       0.792679
    16736.401700       0.792737
    16764.459300       0.792798
    16792.611300       0.792860
    16820.857900       0.792924
    16849.199700       0.792988
    16877.637100       0.793052
    16906.170800       0.793115
    16934.801000       0.793177
    16963.528400       0.793238
    16992.353400       0.793296
    17021.276600       0.793352
    17050.298400       0.793404
    17079.419300       0.793452
    17108.639900       0.793495
    17137.960600       0.793533
    17167.382000       0.793565
    17196.904600       0.793591
    17226.528900       0.793609
    17256.255400       0.793620
    17286.084700       0.793622
    17316.017300       0.793615
    17346.053800       0.793599
    17376.194600       0.793572
    17406.440400       0.793534
    17436.791600       0.793484
    17467.248900       0.793421
    17497.812800       0.793346
    17528.483800       0.793257
    17559.262500       0.793154
    17590.149500       0.793035
    17621.145400       0.792900
    17652.250700       0.792749
    17683.466000       0.792581
    17714.791900       0.792395
    17746.228900       0.792190
    17777.777800       0.791966
    17809.439000       0.791721
    17841.213200       0.791456
    17873.101000       0.791169
    17905.103000       0.790861
    17937.219700       0.790529
    17969.451900       0.790173
    18001.800200       0.789793
    18034.265100       0.789388
    18066.847300       0.788957
    18099.547500       0.788500
    18132.366300       0.788015
    18165.304300       0.787502
    18198.362100       0.786960
    18231.540600       0.786389
    18264.840200       0.785787
    18298.261700       0.785155
    18331.805700       0.784490
    18365.472900       0.783794
    18399.264000       0.783064
    18433.179700       0.782300
    18467.220700       0.781501
    18501.387600       0.780668
    18535.681200       0.779798
    18570.102100       0.778891
    18604.651200       0.777946
    18639.329000       0.776964
    18674.136300       0.775942
    18709.073900       0.774881
    18744.142500       0.773779
    18779.342700       0.772637
    18814.675400       0.771452
    18850.141400       0.770225
    18885.741300       0.768955
    18921.475900       0.767640
    18957.346000       0.766282
    18993.352300       0.764878
    19029.495700       0.763428
    19065.776900       0.761932
    19102.196800       0.760388
    19138.756000       0.758796
    19175.455400       0.757157
    19212.295900       0.755467
    19249.278200       0.753728
    19286.403100       0.751939
    19323.671500       0.750099
    19361.084200       0.748207
    19398.642100       0.746262
    19436.346000       0.744265
    19474.196700       0.742215
    19512.195100       0.740111
    19550.342100       0.737952
    19588.638600       0.735738
    19627.085400       0.733468
    19665.683400       0.731142
    19704.433500       0.728760
    19743.336600       0.726321
    19782.393700       0.723824
    19821.605600       0.721268
    19860.973200       0.718654
    19900.497500       0.715982
    19940.179500       0.713249
    19980.020000       0.710457
    20020.020000       0.707605
    20060.180500       0.704691
    20100.502500       0.701717
    20140.986900       0.698681
    20181.634700       0.695584
    20222.446900       0.692424
    20263.424500       0.689202
    20304.568500       0.685917
    20345.880000       0.682569
    20387.359800       0.679158
    20429.009200       0.675684
    20470.829100       0.672145
    20512.820500       0.668543
    20554.984600       0.664876
    20597.322300       0.661145
    20639.834900       0.657350
    20682.523300       0.653490
    20725.388600       0.649565
    20768.432000       0.645575
    20811.654500       0.641521
    20855.057400       0.637401
    20898.641600       0.633217
    20942.408400       0.628968
    20986.358900       0.624653
    21030.494200       0.620274
    21074.815600       0.615830
    21119.324200       0.611322
    21164.021200       0.606749
    21208.907700       0.602111
    21253.985100       0.597409
    21299.254500       0.592643
    21344.717200       0.587814
    21390.374300       0.582921
    21436.227200       0.577964
    21482.277100       0.572945
    21528.525300       0.567863
    21574.973000       0.562718
    21621.621600       0.557512
    21668.472400       0.552245
    21715.526600       0.546916
    21762.785600       0.541527
    21810.250800       0.536078
    21857.923500       0.530570
    21905.805000       0.525003
    21953.896800       0.519378
    22002.200200       0.513695
    22050.716600       0.507955
    22099.447500       0.502160
    22148.394200       0.496309
    22197.558300       0.490403
    22246.941000       0.484444
    22296.544000       0.478432
    22346.368700       0.472368
    22396.416600       0.466253
    22446.689100       0.460088
    22497.187900       0.453874
    22547.914300       0.447612
    22598.870100       0.441304
    22650.056600       0.434949
    22701.475600       0.428550
    22753.128600       0.422108
    22805.017100       0.415623
    22857.142900       0.409098
    22909.507400       0.402534
    22962.112500       0.395931
    23014.959700       0.389292
    23068.050700       0.382618
    23121.387300       0.375910
    23174.971000       0.369170
    23228.803700       0.362400
    23282.887100       0.355601
    23337.222900       0.348775
    23391.812900       0.341924
    23446.658900       0.335049
    23501.762600       0.328152
    23557.126000       0.321236
    23612.750900       0.314302
    23668.639100       0.307352
    23724.792400       0.300388
    23781.212800       0.293413
    23837.902300       0.286427
    23894.862600       0.279435
    23952.095800       0.272437
    24009.603800       0.265437
    24067.388700       0.258436
    24125.452400       0.251438
    24183.796900       0.244443
    24242.424200       0.237456
    24301.336600       0.230478
    24360.535900       0.223512
    24420.024400       0.216562
    24479.804200       0.209628
    24539.877300       0.202716
    24600.246000       0.195826
    24660.912500       0.188963
    24721.878900       0.182129
    24783.147500       0.175327
    24844.720500       0.168560
    24906.600200       0.161832
    24968.789000       0.155146
    25031.289100       0.148504
    25094.102900       0.141911
    25157.232700       0.135370
    25220.681000       0.128884
    25284.450100       0.122457
    25348.542500       0.116092
    25412.960600       0.109793
    25477.707000       0.103564
