107,   107, MVIRI VIS channel from srf_MET7_2010348_2010349_1801-Release_S10EE_10.dat
Number of data points:
793
Wavenumber (cm-1)   Filter response
     8442.380800       0.000000
     8449.514200       0.000000
     8456.659600       0.000004
     8463.817200       0.000056
     8470.986900       0.000166
     8478.168700       0.000333
     8485.362700       0.000554
     8492.569000       0.000829
     8499.787500       0.001154
     8507.018300       0.001530
     8514.261400       0.001955
     8521.516800       0.002427
     8528.784600       0.002944
     8536.064900       0.003507
     8543.357500       0.004112
     8550.662700       0.004760
     8557.980300       0.005449
     8565.310500       0.006178
     8572.653200       0.006945
     8580.008600       0.007750
     8587.376600       0.008592
     8594.757200       0.009470
     8602.150500       0.010383
     8609.556600       0.011330
     8616.975400       0.012310
     8624.407100       0.013322
     8631.851500       0.014367
     8639.308900       0.015442
     8646.779100       0.016547
     8654.262200       0.017682
     8661.758300       0.018846
     8669.267400       0.020039
     8676.789600       0.021259
     8684.324800       0.022506
     8691.873100       0.023780
     8699.434500       0.025080
     8707.009100       0.026406
     8714.596900       0.027758
     8722.198000       0.029134
     8729.812300       0.030535
     8737.439900       0.031960
     8745.080900       0.033409
     8752.735200       0.034882
     8760.403000       0.036377
     8768.084200       0.037896
     8775.778900       0.039437
     8783.487000       0.041001
     8791.208800       0.042587
     8798.944100       0.044195
     8806.693100       0.045825
     8814.455700       0.047476
     8822.232000       0.049149
     8830.022100       0.050844
     8837.825900       0.052559
     8845.643500       0.054296
     8853.475000       0.056054
     8861.320300       0.057833
     8869.179600       0.059632
     8877.052800       0.061453
     8884.940000       0.063294
     8892.841300       0.065156
     8900.756600       0.067039
     8908.686000       0.068943
     8916.629500       0.070867
     8924.587200       0.072812
     8932.559200       0.074777
     8940.545400       0.076763
     8948.545900       0.078771
     8956.560700       0.080798
     8964.589900       0.082847
     8972.633500       0.084916
     8980.691500       0.087007
     8988.764000       0.089118
     8996.851100       0.091250
     9004.952700       0.093404
     9013.068900       0.095578
     9021.199800       0.097775
     9029.345400       0.099992
     9037.505600       0.102230
     9045.680700       0.104490
     9053.870500       0.106771
     9062.075200       0.109075
     9070.294800       0.111399
     9078.529300       0.113746
     9086.778700       0.116115
     9095.043200       0.118505
     9103.322700       0.120917
     9111.617300       0.123352
     9119.927000       0.125809
     9128.251900       0.128288
     9136.592100       0.130790
     9144.947400       0.133314
     9153.318100       0.135861
     9161.704100       0.138430
     9170.105500       0.141022
     9178.522300       0.143637
     9186.954500       0.146275
     9195.402300       0.148936
     9203.865600       0.151620
     9212.344500       0.154327
     9220.839100       0.157057
     9229.349300       0.159811
     9237.875300       0.162588
     9246.417000       0.165388
     9254.974500       0.168211
     9263.547900       0.171059
     9272.137200       0.173929
     9280.742500       0.176824
     9289.363700       0.179741
     9298.000900       0.182683
     9306.654300       0.185648
     9315.323700       0.188637
     9324.009300       0.191650
     9332.711200       0.194686
     9341.429200       0.197746
     9350.163600       0.200830
     9358.914400       0.203937
     9367.681500       0.207069
     9376.465100       0.210224
     9385.265100       0.213402
     9394.081700       0.216605
     9402.914900       0.219830
     9411.764700       0.223080
     9420.631200       0.226354
     9429.514400       0.229650
     9438.414300       0.232970
     9447.331100       0.236314
     9456.264800       0.239681
     9465.215300       0.243071
     9474.182900       0.246484
     9483.167400       0.249921
     9492.169000       0.253380
     9501.187600       0.256862
     9510.223500       0.260368
     9519.276500       0.263895
     9528.346800       0.267446
     9537.434400       0.271019
     9546.539400       0.274614
     9555.661700       0.278232
     9564.801500       0.281871
     9573.958800       0.285533
     9583.133700       0.289216
     9592.326100       0.292920
     9601.536200       0.296647
     9610.764100       0.300394
     9620.009600       0.304163
     9629.273000       0.307952
     9638.554200       0.311762
     9647.853400       0.315592
     9657.170400       0.319443
     9666.505600       0.323314
     9675.858700       0.327205
     9685.230000       0.331115
     9694.619500       0.335044
     9704.027200       0.338993
     9713.453100       0.342961
     9722.897400       0.346947
     9732.360100       0.350952
     9741.841200       0.354974
     9751.340800       0.359015
     9760.859000       0.363073
     9770.395700       0.367149
     9779.951100       0.371241
     9789.525200       0.375350
     9799.118100       0.379476
     9808.729800       0.383618
     9818.360300       0.387775
     9828.009800       0.391948
     9837.678300       0.396137
     9847.365800       0.400340
     9857.072400       0.404557
     9866.798200       0.408789
     9876.543200       0.413034
     9886.307500       0.417293
     9896.091000       0.421566
     9905.894000       0.425850
     9915.716400       0.430148
     9925.558300       0.434457
     9935.419800       0.438778
     9945.300800       0.443111
     9955.201600       0.447454
     9965.122100       0.451808
     9975.062300       0.456171
     9985.022500       0.460545
     9995.002500       0.464929
    10005.002500       0.469321
    10015.022500       0.473721
    10025.062700       0.478130
    10035.122900       0.482547
    10045.203400       0.486970
    10055.304200       0.491401
    10065.425300       0.495839
    10075.566800       0.500282
    10085.728700       0.504731
    10095.911200       0.509185
    10106.114200       0.513644
    10116.337900       0.518107
    10126.582300       0.522574
    10136.847400       0.527044
    10147.133400       0.531518
    10157.440300       0.535994
    10167.768200       0.540472
    10178.117000       0.544952
    10188.487000       0.549433
    10198.878100       0.553915
    10209.290500       0.558397
    10219.724100       0.562879
    10230.179000       0.567360
    10240.655400       0.571840
    10251.153300       0.576318
    10261.672700       0.580795
    10272.213700       0.585268
    10282.776300       0.589739
    10293.360800       0.594207
    10303.967000       0.598670
    10314.595200       0.603129
    10325.245200       0.607584
    10335.917300       0.612033
    10346.611500       0.616476
    10357.327800       0.620912
    10368.066400       0.625342
    10378.827200       0.629765
    10389.610400       0.634180
    10400.416000       0.638587
    10411.244100       0.642985
    10422.094800       0.647374
    10432.968200       0.651754
    10443.864200       0.656123
    10454.783100       0.660482
    10465.724800       0.664830
    10476.689400       0.669166
    10487.677000       0.673490
    10498.687700       0.677802
    10509.721500       0.682101
    10520.778500       0.686386
    10531.858900       0.690658
    10542.962600       0.694916
    10554.089700       0.699158
    10565.240400       0.703386
    10576.414600       0.707597
    10587.612500       0.711793
    10598.834100       0.715972
    10610.079600       0.720134
    10621.348900       0.724278
    10632.642200       0.728405
    10643.959600       0.732513
    10655.301000       0.736602
    10666.666700       0.740672
    10678.056600       0.744722
    10689.470900       0.748752
    10700.909600       0.752762
    10712.372800       0.756751
    10723.860600       0.760718
    10735.373100       0.764663
    10746.910300       0.768586
    10758.472300       0.772486
    10770.059200       0.776363
    10781.671200       0.780217
    10793.308100       0.784046
    10804.970300       0.787852
    10816.657700       0.791633
    10828.370300       0.795388
    10840.108400       0.799118
    10851.871900       0.802822
    10863.661100       0.806500
    10875.475800       0.810151
    10887.316300       0.813775
    10899.182600       0.817372
    10911.074700       0.820941
    10922.992900       0.824482
    10934.937100       0.827995
    10946.907500       0.831478
    10958.904100       0.834932
    10970.927000       0.838357
    10982.976400       0.841752
    10995.052200       0.845117
    11007.154700       0.848452
    11019.283700       0.851755
    11031.439600       0.855028
    11043.622300       0.858268
    11055.832000       0.861478
    11068.068600       0.864655
    11080.332400       0.867799
    11092.623400       0.870911
    11104.941700       0.873991
    11117.287400       0.877036
    11129.660500       0.880049
    11142.061300       0.883028
    11154.489700       0.885972
    11166.945800       0.888883
    11179.429800       0.891759
    11191.941800       0.894600
    11204.481800       0.897406
    11217.049900       0.900177
    11229.646300       0.902912
    11242.270900       0.905612
    11254.924000       0.908276
    11267.605600       0.910904
    11280.315800       0.913495
    11293.054800       0.916050
    11305.822500       0.918569
    11318.619100       0.921050
    11331.444800       0.923495
    11344.299500       0.925902
    11357.183400       0.928272
    11370.096600       0.930605
    11383.039300       0.932899
    11396.011400       0.935156
    11409.013100       0.937375
    11422.044500       0.939556
    11435.105800       0.941699
    11448.196900       0.943803
    11461.318100       0.945869
    11474.469300       0.947897
    11487.650800       0.949886
    11500.862600       0.951836
    11514.104800       0.953747
    11527.377500       0.955620
    11540.680900       0.957453
    11554.015000       0.959248
    11567.380000       0.961003
    11580.775900       0.962720
    11594.202900       0.964397
    11607.661100       0.966035
    11621.150500       0.967634
    11634.671300       0.969193
    11648.223600       0.970713
    11661.807600       0.972195
    11675.423200       0.973636
    11689.070700       0.975039
    11702.750100       0.976402
    11716.461600       0.977726
    11730.205300       0.979011
    11743.981200       0.980257
    11757.789500       0.981464
    11771.630400       0.982631
    11785.503800       0.983760
    11799.410000       0.984849
    11813.349100       0.985900
    11827.321100       0.986912
    11841.326200       0.987885
    11855.364600       0.988819
    11869.436200       0.989715
    11883.541300       0.990572
    11897.680000       0.991391
    11911.852300       0.992172
    11926.058400       0.992915
    11940.298500       0.993619
    11954.572600       0.994286
    11968.880900       0.994915
    11983.223500       0.995507
    11997.600500       0.996061
    12012.012000       0.996577
    12026.458200       0.997057
    12040.939200       0.997500
    12055.455100       0.997905
    12070.006000       0.998275
    12084.592100       0.998608
    12099.213600       0.998904
    12113.870400       0.999165
    12128.562800       0.999390
    12143.290800       0.999579
    12158.054700       0.999733
    12172.854500       0.999852
    12187.690400       0.999936
    12202.562500       0.999985
    12217.471000       1.000000
    12232.415900       0.999981
    12247.397400       0.999927
    12262.415700       0.999840
    12277.470800       0.999720
    12292.563000       0.999567
    12307.692300       0.999380
    12322.858900       0.999161
    12338.062900       0.998910
    12353.304500       0.998627
    12368.583800       0.998312
    12383.900900       0.997966
    12399.256000       0.997588
    12414.649300       0.997180
    12430.080800       0.996741
    12445.550700       0.996272
    12461.059200       0.995774
    12476.606400       0.995246
    12492.192400       0.994688
    12507.817400       0.994102
    12523.481500       0.993488
    12539.185000       0.992845
    12554.927800       0.992174
    12570.710200       0.991476
    12586.532400       0.990751
    12602.394500       0.990000
    12618.296500       0.989222
    12634.238800       0.988418
    12650.221400       0.987588
    12666.244500       0.986733
    12682.308200       0.985854
    12698.412700       0.984950
    12714.558200       0.984022
    12730.744700       0.983070
    12746.972600       0.982096
    12763.241900       0.981098
    12779.552700       0.980078
    12795.905300       0.979035
    12812.299800       0.977972
    12828.736400       0.976887
    12845.215200       0.975781
    12861.736300       0.974655
    12878.300100       0.973508
    12894.906500       0.972343
    12911.555800       0.971158
    12928.248200       0.969955
    12944.983800       0.968733
    12961.762800       0.967493
    12978.585300       0.966236
    12995.451600       0.964963
    13012.361700       0.963672
    13029.316000       0.962366
    13046.314400       0.961044
    13063.357300       0.959706
    13080.444700       0.958354
    13097.576900       0.956988
    13114.754100       0.955608
    13131.976400       0.954214
    13149.243900       0.952808
    13166.556900       0.951389
    13183.915600       0.949958
    13201.320100       0.948515
    13218.770700       0.947061
    13236.267400       0.945596
    13253.810500       0.944121
    13271.400100       0.942637
    13289.036500       0.941143
    13306.719900       0.939640
    13324.450400       0.938129
    13342.228200       0.936609
    13360.053400       0.935082
    13377.926400       0.933548
    13395.847300       0.932008
    13413.816200       0.930461
    13431.833400       0.928909
    13449.899100       0.927351
    13468.013500       0.925788
    13486.176700       0.924221
    13504.388900       0.922650
    13522.650400       0.921075
    13540.961400       0.919498
    13559.322000       0.917918
    13577.732500       0.916335
    13596.193100       0.914751
    13614.703900       0.913166
    13633.265200       0.911580
    13651.877100       0.909993
    13670.540000       0.908406
    13689.253900       0.906820
    13708.019200       0.905234
    13726.836000       0.903650
    13745.704500       0.902068
    13764.624900       0.900487
    13783.597500       0.898910
    13802.622500       0.897335
    13821.700100       0.895763
    13840.830400       0.894195
    13860.013900       0.892632
    13879.250500       0.891073
    13898.540700       0.889519
    13917.884500       0.887970
    13937.282200       0.886427
    13956.734100       0.884890
    13976.240400       0.883360
    13995.801300       0.881836
    14015.417000       0.880320
    14035.087700       0.878812
    14054.813800       0.877311
    14074.595400       0.875819
    14094.432700       0.874335
    14114.326000       0.872861
    14134.275600       0.871396
    14154.281700       0.869941
    14174.344400       0.868496
    14194.464200       0.867061
    14214.641100       0.865637
    14234.875400       0.864225
    14255.167500       0.862823
    14275.517500       0.861434
    14295.925700       0.860056
    14316.392300       0.858691
    14336.917600       0.857338
    14357.501800       0.855999
    14378.145200       0.854672
    14398.848100       0.853359
    14419.610700       0.852060
    14440.433200       0.850775
    14461.316000       0.849504
    14482.259200       0.848248
    14503.263200       0.847006
    14524.328200       0.845780
    14545.454500       0.844568
    14566.642400       0.843373
    14587.892000       0.842193
    14609.203800       0.841029
    14630.577900       0.839881
    14652.014700       0.838749
    14673.514300       0.837634
    14695.077100       0.836536
    14716.703500       0.835455
    14738.393500       0.834390
    14760.147600       0.833343
    14781.966000       0.832314
    14803.849000       0.831302
    14825.796900       0.830307
    14847.809900       0.829331
    14869.888500       0.828372
    14892.032800       0.827432
    14914.243100       0.826510
    14936.519800       0.825606
    14958.863100       0.824721
    14981.273400       0.823854
    15003.750900       0.823005
    15026.296000       0.822176
    15048.909000       0.821365
    15071.590100       0.820572
    15094.339600       0.819799
    15117.158000       0.819044
    15140.045400       0.818309
    15163.002300       0.817592
    15186.028900       0.816894
    15209.125500       0.816216
    15232.292500       0.815556
    15255.530100       0.814915
    15278.838800       0.814293
    15302.218800       0.813690
    15325.670500       0.813105
    15349.194200       0.812540
    15372.790200       0.811993
    15396.458800       0.811465
    15420.200500       0.810956
    15444.015400       0.810465
    15467.904100       0.809992
    15491.866800       0.809538
    15515.903800       0.809102
    15540.015500       0.808684
    15564.202300       0.808285
    15588.464500       0.807903
    15612.802500       0.807538
    15637.216600       0.807192
    15661.707100       0.806862
    15686.274500       0.806550
    15710.919100       0.806255
    15735.641200       0.805977
    15760.441300       0.805715
    15785.319700       0.805470
    15810.276700       0.805241
    15835.312700       0.805029
    15860.428200       0.804831
    15885.623500       0.804650
    15910.899000       0.804483
    15936.255000       0.804332
    15961.691900       0.804195
    15987.210200       0.804073
    16012.810200       0.803965
    16038.492400       0.803871
    16064.257000       0.803790
    16090.104600       0.803723
    16116.035500       0.803668
    16142.050000       0.803626
    16168.148700       0.803597
    16194.332000       0.803579
    16220.600200       0.803572
    16246.953700       0.803577
    16273.393000       0.803592
    16299.918500       0.803618
    16326.530600       0.803654
    16353.229800       0.803699
    16380.016400       0.803753
    16406.890900       0.803816
    16433.853700       0.803888
    16460.905300       0.803967
    16488.046200       0.804053
    16515.276600       0.804147
    16542.597200       0.804247
    16570.008300       0.804353
    16597.510400       0.804464
    16625.103900       0.804580
    16652.789300       0.804701
    16680.567100       0.804826
    16708.437800       0.804954
    16736.401700       0.805086
    16764.459300       0.805219
    16792.611300       0.805355
    16820.857900       0.805492
    16849.199700       0.805629
    16877.637100       0.805767
    16906.170800       0.805904
    16934.801000       0.806041
    16963.528400       0.806176
    16992.353400       0.806309
    17021.276600       0.806439
    17050.298400       0.806566
    17079.419300       0.806689
    17108.639900       0.806807
    17137.960600       0.806920
    17167.382000       0.807027
    17196.904600       0.807128
    17226.528900       0.807222
    17256.255400       0.807308
    17286.084700       0.807386
    17316.017300       0.807454
    17346.053800       0.807513
    17376.194600       0.807561
    17406.440400       0.807599
    17436.791600       0.807624
    17467.248900       0.807638
    17497.812800       0.807638
    17528.483800       0.807624
    17559.262500       0.807595
    17590.149500       0.807552
    17621.145400       0.807492
    17652.250700       0.807416
    17683.466000       0.807322
    17714.791900       0.807210
    17746.228900       0.807080
    17777.777800       0.806929
    17809.439000       0.806759
    17841.213200       0.806567
    17873.101000       0.806354
    17905.103000       0.806118
    17937.219700       0.805859
    17969.451900       0.805575
    18001.800200       0.805267
    18034.265100       0.804934
    18066.847300       0.804574
    18099.547500       0.804187
    18132.366300       0.803773
    18165.304300       0.803330
    18198.362100       0.802857
    18231.540600       0.802355
    18264.840200       0.801822
    18298.261700       0.801257
    18331.805700       0.800660
    18365.472900       0.800030
    18399.264000       0.799366
    18433.179700       0.798667
    18467.220700       0.797933
    18501.387600       0.797163
    18535.681200       0.796356
    18570.102100       0.795512
    18604.651200       0.794629
    18639.329000       0.793707
    18674.136300       0.792745
    18709.073900       0.791743
    18744.142500       0.790699
    18779.342700       0.789614
    18814.675400       0.788485
    18850.141400       0.787313
    18885.741300       0.786097
    18921.475900       0.784836
    18957.346000       0.783530
    18993.352300       0.782177
    19029.495700       0.780777
    19065.776900       0.779329
    19102.196800       0.777833
    19138.756000       0.776287
    19175.455400       0.774692
    19212.295900       0.773047
    19249.278200       0.771350
    19286.403100       0.769601
    19323.671500       0.767801
    19361.084200       0.765947
    19398.642100       0.764039
    19436.346000       0.762077
    19474.196700       0.760060
    19512.195100       0.757988
    19550.342100       0.755860
    19588.638600       0.753675
    19627.085400       0.751432
    19665.683400       0.749132
    19704.433500       0.746773
    19743.336600       0.744356
    19782.393700       0.741879
    19821.605600       0.739342
    19860.973200       0.736745
    19900.497500       0.734087
    19940.179500       0.731367
    19980.020000       0.728586
    20020.020000       0.725742
    20060.180500       0.722836
    20100.502500       0.719866
    20140.986900       0.716833
    20181.634700       0.713736
    20222.446900       0.710575
    20263.424500       0.707349
    20304.568500       0.704058
    20345.880000       0.700702
    20387.359800       0.697280
    20429.009200       0.693792
    20470.829100       0.690239
    20512.820500       0.686619
    20554.984600       0.682932
    20597.322300       0.679179
    20639.834900       0.675358
    20682.523300       0.671471
    20725.388600       0.667516
    20768.432000       0.663494
    20811.654500       0.659405
    20855.057400       0.655247
    20898.641600       0.651023
    20942.408400       0.646731
    20986.358900       0.642371
    21030.494200       0.637943
    21074.815600       0.633448
    21119.324200       0.628886
    21164.021200       0.624256
    21208.907700       0.619559
    21253.985100       0.614795
    21299.254500       0.609964
    21344.717200       0.605066
    21390.374300       0.600102
    21436.227200       0.595072
    21482.277100       0.589976
    21528.525300       0.584814
    21574.973000       0.579587
    21621.621600       0.574295
    21668.472400       0.568939
    21715.526600       0.563519
    21762.785600       0.558035
    21810.250800       0.552489
    21857.923500       0.546880
    21905.805000       0.541209
    21953.896800       0.535477
    22002.200200       0.529684
    22050.716600       0.523831
    22099.447500       0.517920
    22148.394200       0.511950
    22197.558300       0.505922
    22246.941000       0.499837
    22296.544000       0.493697
    22346.368700       0.487501
    22396.416600       0.481252
    22446.689100       0.474949
    22497.187900       0.468594
    22547.914300       0.462188
    22598.870100       0.455733
    22650.056600       0.449228
    22701.475600       0.442676
    22753.128600       0.436078
    22805.017100       0.429435
    22857.142900       0.422748
    22909.507400       0.416019
    22962.112500       0.409248
    23014.959700       0.402439
    23068.050700       0.395591
    23121.387300       0.388707
    23174.971000       0.381788
    23228.803700       0.374836
    23282.887100       0.367852
    23337.222900       0.360839
    23391.812900       0.353798
    23446.658900       0.346730
    23501.762600       0.339639
    23557.126000       0.332525
    23612.750900       0.325391
    23668.639100       0.318239
    23724.792400       0.311070
    23781.212800       0.303888
    23837.902300       0.296693
    23894.862600       0.289490
    23952.095800       0.282279
    24009.603800       0.275063
    24067.388700       0.267845
    24125.452400       0.260628
    24183.796900       0.253413
    24242.424200       0.246203
    24301.336600       0.239001
    24360.535900       0.231810
    24420.024400       0.224632
    24479.804200       0.217471
    24539.877300       0.210329
    24600.246000       0.203209
    24660.912500       0.196114
    24721.878900       0.189048
    24783.147500       0.182013
    24844.720500       0.175014
    24906.600200       0.168051
    24968.789000       0.161131
    25031.289100       0.154255
    25094.102900       0.147428
    25157.232700       0.140653
    25220.681000       0.133933
    25284.450100       0.127272
    25348.542500       0.120674
    25412.960600       0.114143
    25477.707000       0.107683
