   8  ,noaa_15_hirs_08.flt
Number of data points:
91
Wavenumber (cm-1)   Filter response
      850.000000       0.000000
      851.000000       0.004814
      852.000000       0.004617
      853.000000       0.006418
      854.000000       0.006448
      855.000000       0.005706
      856.000000       0.007361
      857.000000       0.008139
      858.000000       0.008240
      859.000000       0.009365
      860.000000       0.010912
      861.000000       0.012106
      862.000000       0.015792
      863.000000       0.019489
      864.000000       0.021929
      865.000000       0.025924
      866.000000       0.032306
      867.000000       0.040216
      868.000000       0.047746
      869.000000       0.059478
      870.000000       0.075339
      871.000000       0.092951
      872.000000       0.113760
      873.000000       0.143660
      874.000000       0.178310
      875.000000       0.219070
      876.000000       0.269480
      877.000000       0.326260
      878.000000       0.409280
      879.000000       0.475250
      880.000000       0.562130
      881.000000       0.636200
      882.000000       0.706280
      883.000000       0.769810
      884.000000       0.826610
      885.000000       0.861380
      886.000000       0.895080
      887.000000       0.922790
      888.000000       0.943720
      889.000000       0.959530
      890.000000       0.970190
      891.000000       0.976080
      892.000000       0.981840
      893.000000       0.985330
      894.000000       0.987130
      895.000000       0.991380
      896.000000       0.996610
      897.000000       0.997460
      898.000000       1.000000
      899.000000       0.999330
      900.000000       0.998940
      901.000000       0.996780
      902.000000       0.989970
      903.000000       0.980870
      904.000000       0.970880
      905.000000       0.954990
      906.000000       0.936570
      907.000000       0.915790
      908.000000       0.890490
      909.000000       0.856780
      910.000000       0.817390
      911.000000       0.773910
      912.000000       0.724130
      913.000000       0.667690
      914.000000       0.603930
      915.000000       0.535950
      916.000000       0.467280
      917.000000       0.400520
      918.000000       0.336960
      919.000000       0.278190
      920.000000       0.227840
      921.000000       0.186330
      922.000000       0.149890
      923.000000       0.121650
      924.000000       0.098539
      925.000000       0.077509
      926.000000       0.063312
      927.000000       0.049944
      928.000000       0.040280
      929.000000       0.032956
      930.000000       0.027389
      931.000000       0.022303
      932.000000       0.017171
      933.000000       0.014438
      934.000000       0.011945
      935.000000       0.011753
      936.000000       0.009705
      937.000000       0.007568
      938.000000       0.007925
      939.000000       0.005031
      940.000000       0.000000
