14, channel 14 SRF extracted from AHI-8_SpectralResponsivity_Data.xlsx (release Sept 2013)
Number of data points:
1491
Wavenumber (cm-1)   Filter response
      821.000000       0.000503
      821.100000       0.000515
      821.200000       0.000526
      821.300000       0.000534
      821.400000       0.000540
      821.500000       0.000544
      821.600000       0.000547
      821.700000       0.000547
      821.800000       0.000546
      821.900000       0.000544
      822.000000       0.000541
      822.100000       0.000538
      822.200000       0.000535
      822.300000       0.000533
      822.400000       0.000532
      822.500000       0.000532
      822.600000       0.000534
      822.700000       0.000538
      822.800000       0.000544
      822.900000       0.000553
      823.000000       0.000563
      823.100000       0.000576
      823.200000       0.000590
      823.300000       0.000606
      823.400000       0.000624
      823.500000       0.000643
      823.600000       0.000663
      823.700000       0.000683
      823.800000       0.000704
      823.900000       0.000724
      824.000000       0.000744
      824.100000       0.000764
      824.200000       0.000784
      824.300000       0.000802
      824.400000       0.000821
      824.500000       0.000839
      824.600000       0.000857
      824.700000       0.000908
      824.800000       0.001059
      824.900000       0.001079
      825.000000       0.001097
      825.100000       0.001115
      825.200000       0.001134
      825.300000       0.001153
      825.400000       0.001172
      825.500000       0.001191
      825.600000       0.001209
      825.700000       0.001228
      825.800000       0.001246
      825.900000       0.001262
      826.000000       0.001279
      826.100000       0.001293
      826.200000       0.001307
      826.300000       0.001319
      826.400000       0.001329
      826.500000       0.001338
      826.600000       0.001345
      826.700000       0.001351
      826.800000       0.001356
      826.900000       0.001360
      827.000000       0.001364
      827.100000       0.001367
      827.200000       0.001370
      827.300000       0.001374
      827.400000       0.001378
      827.500000       0.001383
      827.600000       0.001389
      827.700000       0.001396
      827.800000       0.001405
      827.900000       0.001415
      828.000000       0.001426
      828.100000       0.001438
      828.200000       0.001451
      828.300000       0.001465
      828.400000       0.001479
      828.500000       0.001493
      828.600000       0.001508
      828.700000       0.001522
      828.800000       0.001535
      828.900000       0.001548
      829.000000       0.001561
      829.100000       0.001572
      829.200000       0.001583
      829.300000       0.001592
      829.400000       0.001602
      829.500000       0.001610
      829.600000       0.001619
      829.700000       0.001627
      829.800000       0.001635
      829.900000       0.001643
      830.000000       0.001652
      830.100000       0.001661
      830.200000       0.001670
      830.300000       0.001680
      830.400000       0.001691
      830.500000       0.001701
      830.600000       0.001713
      830.700000       0.001725
      830.800000       0.001737
      830.900000       0.001750
      831.000000       0.001763
      831.100000       0.001777
      831.200000       0.001791
      831.300000       0.001806
      831.400000       0.001821
      831.500000       0.001838
      831.600000       0.001857
      831.700000       0.001876
      831.800000       0.001898
      831.900000       0.001921
      832.000000       0.001946
      832.100000       0.001974
      832.200000       0.002005
      832.300000       0.002038
      832.400000       0.002073
      832.500000       0.002111
      832.600000       0.002151
      832.700000       0.002192
      832.800000       0.002235
      832.900000       0.002279
      833.000000       0.002324
      833.100000       0.002368
      833.200000       0.002413
      833.300000       0.002456
      833.400000       0.002498
      833.500000       0.002539
      833.600000       0.002578
      833.700000       0.002615
      833.800000       0.002649
      833.900000       0.002682
      834.000000       0.002713
      834.100000       0.002743
      834.200000       0.002771
      834.300000       0.002798
      834.400000       0.002825
      834.500000       0.002852
      834.600000       0.002879
      834.700000       0.002906
      834.800000       0.002935
      834.900000       0.002964
      835.000000       0.002995
      835.100000       0.003028
      835.200000       0.003063
      835.300000       0.003099
      835.400000       0.003136
      835.500000       0.003175
      835.600000       0.003216
      835.700000       0.003257
      835.800000       0.003300
      835.900000       0.003344
      836.000000       0.003388
      836.100000       0.003434
      836.200000       0.003481
      836.300000       0.003529
      836.400000       0.003578
      836.500000       0.003630
      836.600000       0.003683
      836.700000       0.003738
      836.800000       0.003796
      836.900000       0.003855
      837.000000       0.003919
      837.100000       0.003984
      837.200000       0.004052
      837.300000       0.004124
      837.400000       0.004197
      837.500000       0.004274
      837.600000       0.004353
      837.700000       0.004432
      837.800000       0.004513
      837.900000       0.004595
      838.000000       0.004677
      838.100000       0.004759
      838.200000       0.004839
      838.300000       0.004919
      838.400000       0.004998
      838.500000       0.005073
      838.600000       0.005148
      838.700000       0.005221
      838.800000       0.005291
      838.900000       0.005361
      839.000000       0.005429
      839.100000       0.005496
      839.200000       0.005563
      839.300000       0.005631
      839.400000       0.005699
      839.500000       0.005769
      839.600000       0.005841
      839.700000       0.005916
      839.800000       0.005993
      839.900000       0.006074
      840.000000       0.006159
      840.100000       0.006247
      840.200000       0.006340
      840.300000       0.006437
      840.400000       0.006538
      840.500000       0.006643
      840.600000       0.006750
      840.700000       0.006862
      840.800000       0.006978
      840.900000       0.007096
      841.000000       0.007218
      841.100000       0.007342
      841.200000       0.007470
      841.300000       0.007601
      841.400000       0.007734
      841.500000       0.007870
      841.600000       0.008008
      841.700000       0.008149
      841.800000       0.008293
      841.900000       0.008439
      842.000000       0.008588
      842.100000       0.008740
      842.200000       0.008894
      842.300000       0.009052
      842.400000       0.009211
      842.500000       0.009373
      842.600000       0.009537
      842.700000       0.009704
      842.800000       0.009873
      842.900000       0.010044
      843.000000       0.010216
      843.100000       0.010390
      843.200000       0.010565
      843.300000       0.010741
      843.400000       0.010919
      843.500000       0.011098
      843.600000       0.011279
      843.700000       0.011462
      843.800000       0.011647
      843.900000       0.011835
      844.000000       0.012025
      844.100000       0.012218
      844.200000       0.012414
      844.300000       0.012615
      844.400000       0.012819
      844.500000       0.013027
      844.600000       0.013240
      844.700000       0.013459
      844.800000       0.013684
      844.900000       0.013913
      845.000000       0.014148
      845.100000       0.014390
      845.200000       0.014638
      845.300000       0.014893
      845.400000       0.015154
      845.500000       0.015423
      845.600000       0.015698
      845.700000       0.015980
      845.800000       0.016269
      845.900000       0.016565
      846.000000       0.016867
      846.100000       0.017176
      846.200000       0.017493
      846.300000       0.017817
      846.400000       0.018147
      846.500000       0.018485
      846.600000       0.018831
      846.700000       0.019183
      846.800000       0.019542
      846.900000       0.019913
      847.000000       0.020300
      847.100000       0.020695
      847.200000       0.021098
      847.300000       0.021508
      847.400000       0.021925
      847.500000       0.022350
      847.600000       0.022782
      847.700000       0.023223
      847.800000       0.023670
      847.900000       0.024126
      848.000000       0.024590
      848.100000       0.025061
      848.200000       0.025541
      848.300000       0.026030
      848.400000       0.026528
      848.500000       0.027036
      848.600000       0.027556
      848.700000       0.028086
      848.800000       0.028630
      848.900000       0.029187
      849.000000       0.029757
      849.100000       0.030337
      849.200000       0.030928
      849.300000       0.031531
      849.400000       0.032149
      849.500000       0.032781
      849.600000       0.033427
      849.700000       0.034089
      849.800000       0.034763
      849.900000       0.035452
      850.000000       0.036154
      850.100000       0.036867
      850.200000       0.037593
      850.300000       0.038331
      850.400000       0.039085
      850.500000       0.039852
      850.600000       0.040653
      850.700000       0.041499
      850.800000       0.042362
      850.900000       0.043244
      851.000000       0.044150
      851.100000       0.045076
      851.200000       0.046022
      851.300000       0.046992
      851.400000       0.047982
      851.500000       0.048992
      851.600000       0.050021
      851.700000       0.051040
      851.800000       0.052058
      851.900000       0.053095
      852.000000       0.054151
      852.100000       0.055225
      852.200000       0.056318
      852.300000       0.057430
      852.400000       0.058562
      852.500000       0.059708
      852.600000       0.060928
      852.700000       0.062230
      852.800000       0.063566
      852.900000       0.064932
      853.000000       0.066324
      853.100000       0.067744
      853.200000       0.069196
      853.300000       0.070674
      853.400000       0.072176
      853.500000       0.073708
      853.600000       0.075274
      853.700000       0.076875
      853.800000       0.078511
      853.900000       0.080180
      854.000000       0.081827
      854.100000       0.083496
      854.200000       0.085205
      854.300000       0.086943
      854.400000       0.088712
      854.500000       0.090524
      854.600000       0.092389
      854.700000       0.094297
      854.800000       0.096239
      854.900000       0.098218
      855.000000       0.100250
      855.100000       0.102378
      855.200000       0.104566
      855.300000       0.106798
      855.400000       0.109077
      855.500000       0.111422
      855.600000       0.113835
      855.700000       0.116293
      855.800000       0.118801
      855.900000       0.121346
      856.000000       0.123926
      856.100000       0.126561
      856.200000       0.129248
      856.300000       0.131965
      856.400000       0.134722
      856.500000       0.137532
      856.600000       0.140394
      856.700000       0.143302
      856.800000       0.146258
      856.900000       0.149268
      857.000000       0.152351
      857.100000       0.155507
      857.200000       0.158714
      857.300000       0.162003
      857.400000       0.165381
      857.500000       0.168818
      857.600000       0.172348
      857.700000       0.175966
      857.800000       0.179649
      857.900000       0.183425
      858.000000       0.187273
      858.100000       0.191190
      858.200000       0.195178
      858.300000       0.199231
      858.400000       0.203369
      858.500000       0.207552
      858.600000       0.211806
      858.700000       0.216100
      858.800000       0.220455
      858.900000       0.224865
      859.000000       0.229323
      859.100000       0.233828
      859.200000       0.238361
      859.300000       0.242939
      859.400000       0.247543
      859.500000       0.252198
      859.600000       0.256903
      859.700000       0.261655
      859.800000       0.266432
      859.900000       0.271253
      860.000000       0.276135
      860.100000       0.281056
      860.200000       0.286047
      860.300000       0.291093
      860.400000       0.296212
      860.500000       0.301438
      860.600000       0.306696
      860.700000       0.312065
      860.800000       0.317497
      860.900000       0.323025
      861.000000       0.328656
      861.100000       0.334381
      861.200000       0.340181
      861.300000       0.346077
      861.400000       0.352052
      861.500000       0.358080
      861.600000       0.364184
      861.700000       0.370328
      861.800000       0.376523
      861.900000       0.382738
      862.000000       0.388956
      862.100000       0.395172
      862.200000       0.401355
      862.300000       0.407598
      862.400000       0.413781
      862.500000       0.419963
      862.600000       0.426099
      862.700000       0.432233
      862.800000       0.438374
      862.900000       0.444517
      863.000000       0.450690
      863.100000       0.456862
      863.200000       0.463111
      863.300000       0.469387
      863.400000       0.475731
      863.500000       0.482118
      863.600000       0.488592
      863.700000       0.495159
      863.800000       0.501765
      863.900000       0.508470
      864.000000       0.515205
      864.100000       0.522064
      864.200000       0.528912
      864.300000       0.535797
      864.400000       0.542617
      864.500000       0.549412
      864.600000       0.556097
      864.700000       0.562699
      864.800000       0.569204
      864.900000       0.575621
      865.000000       0.581907
      865.100000       0.588123
      865.200000       0.594226
      865.300000       0.600246
      865.400000       0.606180
      865.500000       0.612059
      865.600000       0.617943
      865.700000       0.623816
      865.800000       0.629705
      865.900000       0.635558
      866.000000       0.641489
      866.100000       0.647480
      866.200000       0.653547
      866.300000       0.659692
      866.400000       0.665911
      866.500000       0.672233
      866.600000       0.678599
      866.700000       0.685045
      866.800000       0.691550
      866.900000       0.698065
      867.000000       0.704544
      867.100000       0.710971
      867.200000       0.717311
      867.300000       0.723564
      867.400000       0.729660
      867.500000       0.735639
      867.600000       0.741452
      867.700000       0.747155
      867.800000       0.752650
      867.900000       0.757999
      868.000000       0.763129
      868.100000       0.768147
      868.200000       0.772969
      868.300000       0.777667
      868.400000       0.782224
      868.500000       0.786716
      868.600000       0.791118
      868.700000       0.795427
      868.800000       0.799729
      868.900000       0.803974
      869.000000       0.808241
      869.100000       0.812467
      869.200000       0.816726
      869.300000       0.820999
      869.400000       0.825338
      869.500000       0.829758
      869.600000       0.834168
      869.700000       0.838666
      869.800000       0.843129
      869.900000       0.847613
      870.000000       0.851925
      870.100000       0.856106
      870.200000       0.860104
      870.300000       0.863775
      870.400000       0.867300
      870.500000       0.870643
      870.600000       0.873726
      870.700000       0.876722
      870.800000       0.879636
      870.900000       0.882326
      871.000000       0.884943
      871.100000       0.887539
      871.200000       0.890091
      871.300000       0.892635
      871.400000       0.895142
      871.500000       0.897608
      871.600000       0.900390
      871.700000       0.903346
      871.800000       0.906205
      871.900000       0.909387
      872.000000       0.913171
      872.100000       0.916726
      872.200000       0.919591
      872.300000       0.921696
      872.400000       0.923692
      872.500000       0.925701
      872.600000       0.927601
      872.700000       0.929381
      872.800000       0.930978
      872.900000       0.932471
      873.000000       0.933782
      873.100000       0.934969
      873.200000       0.936022
      873.300000       0.936960
      873.400000       0.937823
      873.500000       0.938601
      873.600000       0.939335
      873.700000       0.940044
      873.800000       0.940776
      873.900000       0.941548
      874.000000       0.942421
      874.100000       0.943380
      874.200000       0.944483
      874.300000       0.945697
      874.400000       0.947053
      874.500000       0.948564
      874.600000       0.950165
      874.700000       0.951868
      874.800000       0.953601
      874.900000       0.955282
      875.000000       0.956866
      875.100000       0.958362
      875.200000       0.959725
      875.300000       0.961000
      875.400000       0.962160
      875.500000       0.963186
      875.600000       0.964101
      875.700000       0.964861
      875.800000       0.965534
      875.900000       0.966069
      876.000000       0.966527
      876.100000       0.966920
      876.200000       0.967278
      876.300000       0.967627
      876.400000       0.967998
      876.500000       0.968389
      876.600000       0.968782
      876.700000       0.969270
      876.800000       0.969823
      876.900000       0.970506
      877.000000       0.971254
      877.100000       0.972097
      877.200000       0.972996
      877.300000       0.973874
      877.400000       0.974751
      877.500000       0.975596
      877.600000       0.976410
      877.700000       0.977185
      877.800000       0.977904
      877.900000       0.978546
      878.000000       0.979123
      878.100000       0.979587
      878.200000       0.979948
      878.300000       0.980204
      878.400000       0.980368
      878.500000       0.980482
      878.600000       0.980550
      878.700000       0.980634
      878.800000       0.980774
      878.900000       0.980942
      879.000000       0.981144
      879.100000       0.981406
      879.200000       0.981725
      879.300000       0.982115
      879.400000       0.982590
      879.500000       0.983105
      879.600000       0.983669
      879.700000       0.984253
      879.800000       0.984842
      879.900000       0.985409
      880.000000       0.985939
      880.100000       0.986387
      880.200000       0.986766
      880.300000       0.987031
      880.400000       0.987191
      880.500000       0.987226
      880.600000       0.987150
      880.700000       0.986988
      880.800000       0.986735
      880.900000       0.986446
      881.000000       0.986151
      881.100000       0.985867
      881.200000       0.985618
      881.300000       0.985459
      881.400000       0.985402
      881.500000       0.985481
      881.600000       0.985734
      881.700000       0.986110
      881.800000       0.986694
      881.900000       0.987412
      882.000000       0.988282
      882.100000       0.989244
      882.200000       0.990285
      882.300000       0.991370
      882.400000       0.992455
      882.500000       0.993507
      882.600000       0.994490
      882.700000       0.995396
      882.800000       0.996172
      882.900000       0.996787
      883.000000       0.997108
      883.100000       0.997235
      883.200000       0.997217
      883.300000       0.997027
      883.400000       0.996716
      883.500000       0.996252
      883.600000       0.995706
      883.700000       0.995118
      883.800000       0.994501
      883.900000       0.993901
      884.000000       0.993378
      884.100000       0.992918
      884.200000       0.992513
      884.300000       0.992201
      884.400000       0.991945
      884.500000       0.991829
      884.600000       0.991803
      884.700000       0.991852
      884.800000       0.991979
      884.900000       0.992136
      885.000000       0.992308
      885.100000       0.992450
      885.200000       0.992547
      885.300000       0.992565
      885.400000       0.992510
      885.500000       0.992336
      885.600000       0.992065
      885.700000       0.991689
      885.800000       0.991195
      885.900000       0.990659
      886.000000       0.990072
      886.100000       0.989474
      886.200000       0.988889
      886.300000       0.988374
      886.400000       0.987917
      886.500000       0.987542
      886.600000       0.987267
      886.700000       0.987127
      886.800000       0.987118
      886.900000       0.987213
      887.000000       0.987432
      887.100000       0.987723
      887.200000       0.988087
      887.300000       0.988490
      887.400000       0.988899
      887.500000       0.989227
      887.600000       0.989496
      887.700000       0.989658
      887.800000       0.989684
      887.900000       0.989567
      888.000000       0.989246
      888.100000       0.988766
      888.200000       0.988135
      888.300000       0.987395
      888.400000       0.986580
      888.500000       0.985725
      888.600000       0.984868
      888.700000       0.984048
      888.800000       0.983321
      888.900000       0.982690
      889.000000       0.982225
      889.100000       0.981868
      889.200000       0.981705
      889.300000       0.981705
      889.400000       0.981841
      889.500000       0.982125
      889.600000       0.982487
      889.700000       0.982928
      889.800000       0.983374
      889.900000       0.983769
      890.000000       0.984092
      890.100000       0.984313
      890.200000       0.984377
      890.300000       0.984299
      890.400000       0.984089
      890.500000       0.983664
      890.600000       0.983133
      890.700000       0.982468
      890.800000       0.981697
      890.900000       0.980869
      891.000000       0.980006
      891.100000       0.979165
      891.200000       0.978387
      891.300000       0.977703
      891.400000       0.977132
      891.500000       0.976752
      891.600000       0.976509
      891.700000       0.976429
      891.800000       0.976508
      891.900000       0.976712
      892.000000       0.977059
      892.100000       0.977493
      892.200000       0.977990
      892.300000       0.978511
      892.400000       0.979020
      892.500000       0.979462
      892.600000       0.979813
      892.700000       0.980076
      892.800000       0.980196
      892.900000       0.980199
      893.000000       0.980066
      893.100000       0.979825
      893.200000       0.979486
      893.300000       0.979035
      893.400000       0.978524
      893.500000       0.977953
      893.600000       0.977359
      893.700000       0.976752
      893.800000       0.976175
      893.900000       0.975636
      894.000000       0.975157
      894.100000       0.974755
      894.200000       0.974426
      894.300000       0.974200
      894.400000       0.974034
      894.500000       0.973952
      894.600000       0.973931
      894.700000       0.973927
      894.800000       0.973937
      894.900000       0.973952
      895.000000       0.973929
      895.100000       0.973850
      895.200000       0.973721
      895.300000       0.973494
      895.400000       0.973179
      895.500000       0.972782
      895.600000       0.972280
      895.700000       0.971709
      895.800000       0.971066
      895.900000       0.970388
      896.000000       0.969687
      896.100000       0.968997
      896.200000       0.968331
      896.300000       0.967754
      896.400000       0.967240
      896.500000       0.966820
      896.600000       0.966538
      896.700000       0.966350
      896.800000       0.966299
      896.900000       0.966309
      897.000000       0.966397
      897.100000       0.966555
      897.200000       0.966765
      897.300000       0.967022
      897.400000       0.967273
      897.500000       0.967499
      897.600000       0.967647
      897.700000       0.967710
      897.800000       0.967658
      897.900000       0.967480
      898.000000       0.967220
      898.100000       0.966803
      898.200000       0.966315
      898.300000       0.965751
      898.400000       0.965126
      898.500000       0.964497
      898.600000       0.963901
      898.700000       0.963362
      898.800000       0.962922
      898.900000       0.962646
      899.000000       0.962506
      899.100000       0.962543
      899.200000       0.962738
      899.300000       0.963080
      899.400000       0.963608
      899.500000       0.964223
      899.600000       0.964954
      899.700000       0.965741
      899.800000       0.966552
      899.900000       0.967350
      900.000000       0.968119
      900.100000       0.968817
      900.200000       0.969410
      900.300000       0.969929
      900.400000       0.970326
      900.500000       0.970617
      900.600000       0.970809
      900.700000       0.970940
      900.800000       0.971061
      900.900000       0.971186
      901.000000       0.971354
      901.100000       0.971578
      901.200000       0.971891
      901.300000       0.972288
      901.400000       0.972817
      901.500000       0.973468
      901.600000       0.974218
      901.700000       0.975105
      901.800000       0.976079
      901.900000       0.977126
      902.000000       0.978237
      902.100000       0.979370
      902.200000       0.980485
      902.300000       0.981565
      902.400000       0.982581
      902.500000       0.983494
      902.600000       0.984330
      902.700000       0.985055
      902.800000       0.985698
      902.900000       0.986261
      903.000000       0.986726
      903.100000       0.987134
      903.200000       0.987485
      903.300000       0.987800
      903.400000       0.988111
      903.500000       0.988455
      903.600000       0.988832
      903.700000       0.989258
      903.800000       0.989770
      903.900000       0.990330
      904.000000       0.990990
      904.100000       0.991709
      904.200000       0.992479
      904.300000       0.993308
      904.400000       0.994167
      904.500000       0.995041
      904.600000       0.995899
      904.700000       0.996730
      904.800000       0.997496
      904.900000       0.998191
      905.000000       0.998779
      905.100000       0.999252
      905.200000       0.999632
      905.300000       0.999857
      905.400000       0.999973
      905.500000       0.999985
      905.600000       0.999853
      905.700000       0.999640
      905.800000       0.999342
      905.900000       0.998987
      906.000000       0.998591
      906.100000       0.998168
      906.200000       0.997737
      906.300000       0.997316
      906.400000       0.996915
      906.500000       0.996524
      906.600000       0.996135
      906.700000       0.995735
      906.800000       0.995325
      906.900000       0.994887
      907.000000       0.994437
      907.100000       0.993945
      907.200000       0.993396
      907.300000       0.992784
      907.400000       0.992042
      907.500000       0.991191
      907.600000       0.990178
      907.700000       0.988986
      907.800000       0.987640
      907.900000       0.986086
      908.000000       0.984364
      908.100000       0.982480
      908.200000       0.980414
      908.300000       0.978230
      908.400000       0.975941
      908.500000       0.973589
      908.600000       0.971201
      908.700000       0.968763
      908.800000       0.966316
      908.900000       0.963859
      909.000000       0.961319
      909.100000       0.958518
      909.200000       0.955552
      909.300000       0.952538
      909.400000       0.949465
      909.500000       0.946355
      909.600000       0.943108
      909.700000       0.939779
      909.800000       0.936400
      909.900000       0.932833
      910.000000       0.929173
      910.100000       0.925432
      910.200000       0.921448
      910.300000       0.917314
      910.400000       0.912998
      910.500000       0.908412
      910.600000       0.903675
      910.700000       0.898675
      910.800000       0.893463
      910.900000       0.888053
      911.000000       0.882397
      911.100000       0.876610
      911.200000       0.870562
      911.300000       0.864423
      911.400000       0.858177
      911.500000       0.851815
      911.600000       0.845397
      911.700000       0.838900
      911.800000       0.832401
      911.900000       0.825952
      912.000000       0.819352
      912.100000       0.812886
      912.200000       0.806373
      912.300000       0.799822
      912.400000       0.793323
      912.500000       0.786824
      912.600000       0.780226
      912.700000       0.773685
      912.800000       0.767093
      912.900000       0.760429
      913.000000       0.753740
      913.100000       0.746989
      913.200000       0.740164
      913.300000       0.733262
      913.400000       0.726255
      913.500000       0.719160
      913.600000       0.712003
      913.700000       0.704758
      913.800000       0.697409
      913.900000       0.690019
      914.000000       0.682569
      914.100000       0.675066
      914.200000       0.667562
      914.300000       0.660060
      914.400000       0.652541
      914.500000       0.645108
      914.600000       0.637718
      914.700000       0.630317
      914.800000       0.623075
      914.900000       0.615869
      915.000000       0.608730
      915.100000       0.601705
      915.200000       0.594738
      915.300000       0.587853
      915.400000       0.581069
      915.500000       0.574334
      915.600000       0.567651
      915.700000       0.560993
      915.800000       0.554395
      915.900000       0.547856
      916.000000       0.541343
      916.100000       0.534862
      916.200000       0.528414
      916.300000       0.521999
      916.400000       0.515629
      916.500000       0.509293
      916.600000       0.502970
      916.700000       0.496695
      916.800000       0.490476
      916.900000       0.484255
      917.000000       0.478080
      917.100000       0.471970
      917.200000       0.465905
      917.300000       0.459869
      917.400000       0.453864
      917.500000       0.447952
      917.600000       0.442112
      917.700000       0.436353
      917.800000       0.430677
      917.900000       0.425048
      918.000000       0.419506
      918.100000       0.414034
      918.200000       0.408619
      918.300000       0.403267
      918.400000       0.397960
      918.500000       0.392715
      918.600000       0.387502
      918.700000       0.382334
      918.800000       0.377202
      918.900000       0.372105
      919.000000       0.367037
      919.100000       0.362006
      919.200000       0.357021
      919.300000       0.352072
      919.400000       0.347160
      919.500000       0.342285
      919.600000       0.337493
      919.700000       0.332770
      919.800000       0.328115
      919.900000       0.323533
      920.000000       0.319016
      920.100000       0.314605
      920.200000       0.310255
      920.300000       0.305992
      920.400000       0.301811
      920.500000       0.297707
      920.600000       0.293669
      920.700000       0.289684
      920.800000       0.285766
      920.900000       0.281896
      921.000000       0.278059
      921.100000       0.274255
      921.200000       0.270487
      921.300000       0.266745
      921.400000       0.263000
      921.500000       0.259297
      921.600000       0.255600
      921.700000       0.251917
      921.800000       0.248279
      921.900000       0.244667
      922.000000       0.241089
      922.100000       0.237551
      922.200000       0.234066
      922.300000       0.230650
      922.400000       0.227277
      922.500000       0.223989
      922.600000       0.220787
      922.700000       0.217623
      922.800000       0.214526
      922.900000       0.211521
      923.000000       0.208564
      923.100000       0.205640
      923.200000       0.202775
      923.300000       0.199950
      923.400000       0.197160
      923.500000       0.194403
      923.600000       0.191643
      923.700000       0.188898
      923.800000       0.186184
      923.900000       0.183480
      924.000000       0.180757
      924.100000       0.178038
      924.200000       0.175362
      924.300000       0.172704
      924.400000       0.170040
      924.500000       0.167391
      924.600000       0.164782
      924.700000       0.162218
      924.800000       0.159687
      924.900000       0.157193
      925.000000       0.154741
      925.100000       0.152327
      925.200000       0.149979
      925.300000       0.147685
      925.400000       0.145424
      925.500000       0.143198
      925.600000       0.140999
      925.700000       0.138810
      925.800000       0.136660
      925.900000       0.134541
      926.000000       0.132451
      926.100000       0.130363
      926.200000       0.128231
      926.300000       0.126101
      926.400000       0.124011
      926.500000       0.121957
      926.600000       0.119911
      926.700000       0.117807
      926.800000       0.115694
      926.900000       0.113640
      927.000000       0.111634
      927.100000       0.109680
      927.200000       0.107709
      927.300000       0.105747
      927.400000       0.103834
      927.500000       0.101968
      927.600000       0.100155
      927.700000       0.098378
      927.800000       0.096593
      927.900000       0.094828
      928.000000       0.093114
      928.100000       0.091446
      928.200000       0.089822
      928.300000       0.088247
      928.400000       0.086623
      928.500000       0.084954
      928.600000       0.083325
      928.700000       0.081755
      928.800000       0.080223
      928.900000       0.078746
      929.000000       0.077318
      929.100000       0.075820
      929.200000       0.074263
      929.300000       0.072765
      929.400000       0.071322
      929.500000       0.069932
      929.600000       0.068592
      929.700000       0.067298
      929.800000       0.066041
      929.900000       0.064745
      930.000000       0.063441
      930.100000       0.062192
      930.200000       0.060981
      930.300000       0.059806
      930.400000       0.058667
      930.500000       0.057557
      930.600000       0.056476
      930.700000       0.055424
      930.800000       0.054318
      930.900000       0.053159
      931.000000       0.052038
      931.100000       0.050959
      931.200000       0.049919
      931.300000       0.048922
      931.400000       0.047967
      931.500000       0.047048
      931.600000       0.046168
      931.700000       0.045321
      931.800000       0.044510
      931.900000       0.043707
      932.000000       0.042905
      932.100000       0.042129
      932.200000       0.041380
      932.300000       0.040649
      932.400000       0.039941
      932.500000       0.039248
      932.600000       0.038570
      932.700000       0.037904
      932.800000       0.037252
      932.900000       0.036611
      933.000000       0.035982
      933.100000       0.035367
      933.200000       0.034764
      933.300000       0.034175
      933.400000       0.033603
      933.500000       0.033032
      933.600000       0.032458
      933.700000       0.031898
      933.800000       0.031359
      933.900000       0.030836
      934.000000       0.030330
      934.100000       0.029840
      934.200000       0.029363
      934.300000       0.028900
      934.400000       0.028447
      934.500000       0.028004
      934.600000       0.027570
      934.700000       0.027144
      934.800000       0.026724
      934.900000       0.026312
      935.000000       0.025908
      935.100000       0.025510
      935.200000       0.025117
      935.300000       0.024732
      935.400000       0.024353
      935.500000       0.023981
      935.600000       0.023615
      935.700000       0.023256
      935.800000       0.022904
      935.900000       0.022558
      936.000000       0.022219
      936.100000       0.021887
      936.200000       0.021563
      936.300000       0.021243
      936.400000       0.020927
      936.500000       0.020615
      936.600000       0.020305
      936.700000       0.019998
      936.800000       0.019693
      936.900000       0.019391
      937.000000       0.019092
      937.100000       0.018795
      937.200000       0.018500
      937.300000       0.018208
      937.400000       0.017919
      937.500000       0.017633
      937.600000       0.017352
      937.700000       0.017075
      937.800000       0.016801
      937.900000       0.016532
      938.000000       0.016267
      938.100000       0.016006
      938.200000       0.015751
      938.300000       0.015499
      938.400000       0.015251
      938.500000       0.015007
      938.600000       0.014767
      938.700000       0.014530
      938.800000       0.014297
      938.900000       0.014066
      939.000000       0.013837
      939.100000       0.013612
      939.200000       0.013388
      939.300000       0.013167
      939.400000       0.012947
      939.500000       0.012730
      939.600000       0.012514
      939.700000       0.012301
      939.800000       0.012090
      939.900000       0.011881
      940.000000       0.011676
      940.100000       0.011473
      940.200000       0.011275
      940.300000       0.011084
      940.400000       0.010911
      940.500000       0.010746
      940.600000       0.010585
      940.700000       0.010427
      940.800000       0.010273
      940.900000       0.010122
      941.000000       0.009975
      941.100000       0.009831
      941.200000       0.009690
      941.300000       0.009553
      941.400000       0.009418
      941.500000       0.009286
      941.600000       0.009156
      941.700000       0.009029
      941.800000       0.008903
      941.900000       0.008779
      942.000000       0.008656
      942.100000       0.008534
      942.200000       0.008412
      942.300000       0.008291
      942.400000       0.008170
      942.500000       0.008050
      942.600000       0.007930
      942.700000       0.007810
      942.800000       0.007691
      942.900000       0.007572
      943.000000       0.007454
      943.100000       0.007337
      943.200000       0.007222
      943.300000       0.007108
      943.400000       0.006997
      943.500000       0.006887
      943.600000       0.006780
      943.700000       0.006676
      943.800000       0.006573
      943.900000       0.006474
      944.000000       0.006377
      944.100000       0.006283
      944.200000       0.006192
      944.300000       0.006103
      944.400000       0.006016
      944.500000       0.005931
      944.600000       0.005848
      944.700000       0.005767
      944.800000       0.005687
      944.900000       0.005607
      945.000000       0.005529
      945.100000       0.005451
      945.200000       0.005374
      945.300000       0.005297
      945.400000       0.005221
      945.500000       0.005145
      945.600000       0.005069
      945.700000       0.004994
      945.800000       0.004919
      945.900000       0.004845
      946.000000       0.004772
      946.100000       0.004699
      946.200000       0.004627
      946.300000       0.004555
      946.400000       0.004485
      946.500000       0.004416
      946.600000       0.004348
      946.700000       0.004281
      946.800000       0.004216
      946.900000       0.004153
      947.000000       0.004091
      947.100000       0.004030
      947.200000       0.003972
      947.300000       0.003915
      947.400000       0.003860
      947.500000       0.003808
      947.600000       0.003758
      947.700000       0.003709
      947.800000       0.003664
      947.900000       0.003620
      948.000000       0.003579
      948.100000       0.003540
      948.200000       0.003503
      948.300000       0.003468
      948.400000       0.003435
      948.500000       0.003405
      948.600000       0.003375
      948.700000       0.003347
      948.800000       0.003320
      948.900000       0.003294
      949.000000       0.003269
      949.100000       0.003243
      949.200000       0.003217
      949.300000       0.003191
      949.400000       0.003164
      949.500000       0.003135
      949.600000       0.003106
      949.700000       0.003075
      949.800000       0.003043
      949.900000       0.003010
      950.000000       0.002976
      950.100000       0.002940
      950.200000       0.002904
      950.300000       0.002867
      950.400000       0.002829
      950.500000       0.002791
      950.600000       0.002753
      950.700000       0.002715
      950.800000       0.002678
      950.900000       0.002641
      951.000000       0.002604
      951.100000       0.002568
      951.200000       0.002533
      951.300000       0.002498
      951.400000       0.002463
      951.500000       0.002428
      951.600000       0.002393
      951.700000       0.002358
      951.800000       0.002322
      951.900000       0.002286
      952.000000       0.002250
      952.100000       0.002212
      952.200000       0.002174
      952.300000       0.002135
      952.400000       0.002096
      952.500000       0.002057
      952.600000       0.002017
      952.700000       0.001978
      952.800000       0.001940
      952.900000       0.001902
      953.000000       0.001865
      953.100000       0.001830
      953.200000       0.001797
      953.300000       0.001765
      953.400000       0.001736
      953.500000       0.001709
      953.600000       0.001684
      953.700000       0.001661
      953.800000       0.001640
      953.900000       0.001621
      954.000000       0.001603
      954.100000       0.001586
      954.200000       0.001571
      954.300000       0.001556
      954.400000       0.001541
      954.500000       0.001527
      954.600000       0.001513
      954.700000       0.001499
      954.800000       0.001484
      954.900000       0.001470
      955.000000       0.001455
      955.100000       0.001441
      955.200000       0.001427
      955.300000       0.001413
      955.400000       0.001401
      955.500000       0.001389
      955.600000       0.001378
      955.700000       0.001369
      955.800000       0.001360
      955.900000       0.001354
      956.000000       0.001348
      956.100000       0.001344
      956.200000       0.001341
      956.300000       0.001339
      956.400000       0.001337
      956.500000       0.001336
      956.600000       0.001334
      956.700000       0.001331
      956.800000       0.001328
      956.900000       0.001324
      957.000000       0.001319
      957.100000       0.001268
      957.200000       0.001093
      957.300000       0.001077
      957.400000       0.001064
      957.500000       0.001050
      957.600000       0.001035
      957.700000       0.001019
      957.800000       0.001002
      957.900000       0.000985
      958.000000       0.000968
      958.100000       0.000953
      958.200000       0.000938
      958.300000       0.000925
      958.400000       0.000914
      958.500000       0.000905
      958.600000       0.000898
      958.700000       0.000893
      958.800000       0.000890
      958.900000       0.000889
      959.000000       0.000890
      959.100000       0.000893
      959.200000       0.000897
      959.300000       0.000901
      959.400000       0.000906
      959.500000       0.000911
      959.600000       0.000915
      959.700000       0.000918
      959.800000       0.000921
      959.900000       0.000922
      960.000000       0.000921
      960.100000       0.000919
      960.200000       0.000915
      960.300000       0.000909
      960.400000       0.000901
      960.500000       0.000892
      960.600000       0.000882
      960.700000       0.000870
      960.800000       0.000857
      960.900000       0.000844
      961.000000       0.000830
      961.100000       0.000815
      961.200000       0.000801
      961.300000       0.000787
      961.400000       0.000773
      961.500000       0.000760
      961.600000       0.000748
      961.700000       0.000736
      961.800000       0.000724
      961.900000       0.000714
      962.000000       0.000704
      962.100000       0.000696
      962.200000       0.000688
      962.300000       0.000681
      962.400000       0.000674
      962.500000       0.000668
      962.600000       0.000663
      962.700000       0.000658
      962.800000       0.000654
      962.900000       0.000649
      963.000000       0.000645
      963.100000       0.000642
      963.200000       0.000638
      963.300000       0.000634
      963.400000       0.000630
      963.500000       0.000625
      963.600000       0.000620
      963.700000       0.000615
      963.800000       0.000609
      963.900000       0.000602
      964.000000       0.000594
      964.100000       0.000585
      964.200000       0.000576
      964.300000       0.000565
      964.400000       0.000554
      964.500000       0.000542
      964.600000       0.000529
      964.700000       0.000516
      964.800000       0.000502
      964.900000       0.000488
      965.000000       0.000473
      965.100000       0.000459
      965.200000       0.000444
      965.300000       0.000429
      965.400000       0.000414
      965.500000       0.000399
      965.600000       0.000385
      965.700000       0.000371
      965.800000       0.000357
      965.900000       0.000343
      966.000000       0.000330
      966.100000       0.000318
      966.200000       0.000306
      966.300000       0.000295
      966.400000       0.000284
      966.500000       0.000274
      966.600000       0.000265
      966.700000       0.000257
      966.800000       0.000250
      966.900000       0.000244
      967.000000       0.000239
      967.100000       0.000235
      967.200000       0.000233
      967.300000       0.000232
      967.400000       0.000232
      967.500000       0.000234
      967.600000       0.000237
      967.700000       0.000241
      967.800000       0.000246
      967.900000       0.000252
      968.000000       0.000259
      968.100000       0.000266
      968.200000       0.000274
      968.300000       0.000282
      968.400000       0.000290
      968.500000       0.000298
      968.600000       0.000306
      968.700000       0.000312
      968.800000       0.000318
      968.900000       0.000324
      969.000000       0.000328
      969.100000       0.000332
      969.200000       0.000335
      969.300000       0.000336
      969.400000       0.000337
      969.500000       0.000338
      969.600000       0.000338
      969.700000       0.000337
      969.800000       0.000336
      969.900000       0.000334
      970.000000       0.000332
