63,   63, MVIRI VIS channel from srf_MET2_1989348_1989349_1801-Release_S10EL_10.dat
Number of data points:
730
Wavenumber (cm-1)   Filter response
     8916.629500       0.000000
     8924.587200       0.000000
     8932.559200       0.000002
     8940.545400       0.000012
     8948.545900       0.000033
     8956.560700       0.000070
     8964.589900       0.000128
     8972.633500       0.000210
     8980.691500       0.000322
     8988.764000       0.000466
     8996.851100       0.000647
     9004.952700       0.000868
     9013.068900       0.001132
     9021.199800       0.001442
     9029.345400       0.001803
     9037.505600       0.002215
     9045.680700       0.002684
     9053.870500       0.003210
     9062.075200       0.003797
     9070.294800       0.004447
     9078.529300       0.005162
     9086.778700       0.005944
     9095.043200       0.006795
     9103.322700       0.007718
     9111.617300       0.008714
     9119.927000       0.009784
     9128.251900       0.010930
     9136.592100       0.012154
     9144.947400       0.013456
     9153.318100       0.014839
     9161.704100       0.016302
     9170.105500       0.017848
     9178.522300       0.019477
     9186.954500       0.021190
     9195.402300       0.022987
     9203.865600       0.024870
     9212.344500       0.026838
     9220.839100       0.028893
     9229.349300       0.031034
     9237.875300       0.033263
     9246.417000       0.035578
     9254.974500       0.037981
     9263.547900       0.040471
     9272.137200       0.043049
     9280.742500       0.045714
     9289.363700       0.048466
     9298.000900       0.051306
     9306.654300       0.054232
     9315.323700       0.057245
     9324.009300       0.060344
     9332.711200       0.063529
     9341.429200       0.066799
     9350.163600       0.070154
     9358.914400       0.073593
     9367.681500       0.077116
     9376.465100       0.080721
     9385.265100       0.084409
     9394.081700       0.088178
     9402.914900       0.092028
     9411.764700       0.095958
     9420.631200       0.099966
     9429.514400       0.104053
     9438.414300       0.108216
     9447.331100       0.112456
     9456.264800       0.116771
     9465.215300       0.121160
     9474.182900       0.125621
     9483.167400       0.130154
     9492.169000       0.134758
     9501.187600       0.139432
     9510.223500       0.144174
     9519.276500       0.148982
     9528.346800       0.153857
     9537.434400       0.158797
     9546.539400       0.163800
     9555.661700       0.168865
     9564.801500       0.173990
     9573.958800       0.179175
     9583.133700       0.184419
     9592.326100       0.189718
     9601.536200       0.195074
     9610.764100       0.200482
     9620.009600       0.205945
     9629.273000       0.211458
     9638.554200       0.217020
     9647.853400       0.222632
     9657.170400       0.228290
     9666.505600       0.233994
     9675.858700       0.239742
     9685.230000       0.245532
     9694.619500       0.251364
     9704.027200       0.257236
     9713.453100       0.263146
     9722.897400       0.269093
     9732.360100       0.275075
     9741.841200       0.281091
     9751.340800       0.287140
     9760.859000       0.293220
     9770.395700       0.299330
     9779.951100       0.305467
     9789.525200       0.311632
     9799.118100       0.317822
     9808.729800       0.324036
     9818.360300       0.330272
     9828.009800       0.336529
     9837.678300       0.342806
     9847.365800       0.349102
     9857.072400       0.355414
     9866.798200       0.361741
     9876.543200       0.368083
     9886.307500       0.374437
     9896.091000       0.380803
     9905.894000       0.387178
     9915.716400       0.393563
     9925.558300       0.399954
     9935.419800       0.406352
     9945.300800       0.412754
     9955.201600       0.419159
     9965.122100       0.425567
     9975.062300       0.431975
     9985.022500       0.438383
     9995.002500       0.444789
    10005.002500       0.451192
    10015.022500       0.457591
    10025.062700       0.463984
    10035.122900       0.470371
    10045.203400       0.476750
    10055.304200       0.483120
    10065.425300       0.489480
    10075.566800       0.495829
    10085.728700       0.502165
    10095.911200       0.508488
    10106.114200       0.514796
    10116.337900       0.521088
    10126.582300       0.527364
    10136.847400       0.533621
    10147.133400       0.539860
    10157.440300       0.546079
    10167.768200       0.552278
    10178.117000       0.558454
    10188.487000       0.564607
    10198.878100       0.570737
    10209.290500       0.576842
    10219.724100       0.582921
    10230.179000       0.588974
    10240.655400       0.595000
    10251.153300       0.600997
    10261.672700       0.606964
    10272.213700       0.612902
    10282.776300       0.618809
    10293.360800       0.624685
    10303.967000       0.630528
    10314.595200       0.636338
    10325.245200       0.642114
    10335.917300       0.647855
    10346.611500       0.653561
    10357.327800       0.659231
    10368.066400       0.664864
    10378.827200       0.670460
    10389.610400       0.676018
    10400.416000       0.681537
    10411.244100       0.687016
    10422.094800       0.692456
    10432.968200       0.697855
    10443.864200       0.703213
    10454.783100       0.708529
    10465.724800       0.713804
    10476.689400       0.719035
    10487.677000       0.724224
    10498.687700       0.729368
    10509.721500       0.734469
    10520.778500       0.739524
    10531.858900       0.744535
    10542.962600       0.749501
    10554.089700       0.754420
    10565.240400       0.759293
    10576.414600       0.764120
    10587.612500       0.768899
    10598.834100       0.773632
    10610.079600       0.778316
    10621.348900       0.782953
    10632.642200       0.787541
    10643.959600       0.792080
    10655.301000       0.796571
    10666.666700       0.801012
    10678.056600       0.805404
    10689.470900       0.809747
    10700.909600       0.814040
    10712.372800       0.818282
    10723.860600       0.822475
    10735.373100       0.826617
    10746.910300       0.830708
    10758.472300       0.834749
    10770.059200       0.838738
    10781.671200       0.842677
    10793.308100       0.846565
    10804.970300       0.850401
    10816.657700       0.854186
    10828.370300       0.857920
    10840.108400       0.861603
    10851.871900       0.865233
    10863.661100       0.868813
    10875.475800       0.872340
    10887.316300       0.875817
    10899.182600       0.879241
    10911.074700       0.882614
    10922.992900       0.885935
    10934.937100       0.889205
    10946.907500       0.892423
    10958.904100       0.895590
    10970.927000       0.898705
    10982.976400       0.901769
    10995.052200       0.904782
    11007.154700       0.907743
    11019.283700       0.910654
    11031.439600       0.913513
    11043.622300       0.916321
    11055.832000       0.919079
    11068.068600       0.921786
    11080.332400       0.924442
    11092.623400       0.927048
    11104.941700       0.929604
    11117.287400       0.932109
    11129.660500       0.934565
    11142.061300       0.936971
    11154.489700       0.939327
    11166.945800       0.941634
    11179.429800       0.943891
    11191.941800       0.946100
    11204.481800       0.948260
    11217.049900       0.950371
    11229.646300       0.952434
    11242.270900       0.954449
    11254.924000       0.956415
    11267.605600       0.958335
    11280.315800       0.960206
    11293.054800       0.962031
    11305.822500       0.963808
    11318.619100       0.965539
    11331.444800       0.967224
    11344.299500       0.968862
    11357.183400       0.970454
    11370.096600       0.972001
    11383.039300       0.973503
    11396.011400       0.974959
    11409.013100       0.976371
    11422.044500       0.977738
    11435.105800       0.979061
    11448.196900       0.980340
    11461.318100       0.981575
    11474.469300       0.982768
    11487.650800       0.983917
    11500.862600       0.985023
    11514.104800       0.986088
    11527.377500       0.987110
    11540.680900       0.988090
    11554.015000       0.989029
    11567.380000       0.989927
    11580.775900       0.990784
    11594.202900       0.991601
    11607.661100       0.992377
    11621.150500       0.993114
    11634.671300       0.993811
    11648.223600       0.994469
    11661.807600       0.995089
    11675.423200       0.995669
    11689.070700       0.996212
    11702.750100       0.996717
    11716.461600       0.997184
    11730.205300       0.997614
    11743.981200       0.998008
    11757.789500       0.998365
    11771.630400       0.998685
    11785.503800       0.998970
    11799.410000       0.999220
    11813.349100       0.999434
    11827.321100       0.999613
    11841.326200       0.999758
    11855.364600       0.999869
    11869.436200       0.999946
    11883.541300       0.999990
    11897.680000       1.000000
    11911.852300       0.999978
    11926.058400       0.999922
    11940.298500       0.999835
    11954.572600       0.999716
    11968.880900       0.999566
    11983.223500       0.999384
    11997.600500       0.999171
    12012.012000       0.998928
    12026.458200       0.998655
    12040.939200       0.998351
    12055.455100       0.998018
    12070.006000       0.997656
    12084.592100       0.997265
    12099.213600       0.996845
    12113.870400       0.996397
    12128.562800       0.995921
    12143.290800       0.995417
    12158.054700       0.994885
    12172.854500       0.994327
    12187.690400       0.993741
    12202.562500       0.993129
    12217.471000       0.992491
    12232.415900       0.991827
    12247.397400       0.991137
    12262.415700       0.990421
    12277.470800       0.989681
    12292.563000       0.988916
    12307.692300       0.988126
    12322.858900       0.987312
    12338.062900       0.986474
    12353.304500       0.985612
    12368.583800       0.984727
    12383.900900       0.983818
    12399.256000       0.982887
    12414.649300       0.981933
    12430.080800       0.980956
    12445.550700       0.979958
    12461.059200       0.978937
    12476.606400       0.977895
    12492.192400       0.976831
    12507.817400       0.975747
    12523.481500       0.974641
    12539.185000       0.973514
    12554.927800       0.972367
    12570.710200       0.971200
    12586.532400       0.970013
    12602.394500       0.968806
    12618.296500       0.967579
    12634.238800       0.966334
    12650.221400       0.965068
    12666.244500       0.963784
    12682.308200       0.962482
    12698.412700       0.961161
    12714.558200       0.959821
    12730.744700       0.958463
    12746.972600       0.957088
    12763.241900       0.955695
    12779.552700       0.954284
    12795.905300       0.952856
    12812.299800       0.951410
    12828.736400       0.949948
    12845.215200       0.948469
    12861.736300       0.946973
    12878.300100       0.945461
    12894.906500       0.943933
    12911.555800       0.942388
    12928.248200       0.940828
    12944.983800       0.939252
    12961.762800       0.937660
    12978.585300       0.936053
    12995.451600       0.934430
    13012.361700       0.932792
    13029.316000       0.931140
    13046.314400       0.929472
    13063.357300       0.927790
    13080.444700       0.926093
    13097.576900       0.924381
    13114.754100       0.922656
    13131.976400       0.920916
    13149.243900       0.919162
    13166.556900       0.917394
    13183.915600       0.915613
    13201.320100       0.913818
    13218.770700       0.912009
    13236.267400       0.910187
    13253.810500       0.908351
    13271.400100       0.906503
    13289.036500       0.904641
    13306.719900       0.902767
    13324.450400       0.900879
    13342.228200       0.898979
    13360.053400       0.897066
    13377.926400       0.895141
    13395.847300       0.893203
    13413.816200       0.891253
    13431.833400       0.889290
    13449.899100       0.887316
    13468.013500       0.885329
    13486.176700       0.883331
    13504.388900       0.881320
    13522.650400       0.879298
    13540.961400       0.877264
    13559.322000       0.875219
    13577.732500       0.873162
    13596.193100       0.871094
    13614.703900       0.869014
    13633.265200       0.866923
    13651.877100       0.864821
    13670.540000       0.862708
    13689.253900       0.860583
    13708.019200       0.858448
    13726.836000       0.856302
    13745.704500       0.854145
    13764.624900       0.851978
    13783.597500       0.849799
    13802.622500       0.847611
    13821.700100       0.845411
    13840.830400       0.843202
    13860.013900       0.840981
    13879.250500       0.838751
    13898.540700       0.836510
    13917.884500       0.834260
    13937.282200       0.831999
    13956.734100       0.829728
    13976.240400       0.827447
    13995.801300       0.825156
    14015.417000       0.822856
    14035.087700       0.820545
    14054.813800       0.818225
    14074.595400       0.815896
    14094.432700       0.813556
    14114.326000       0.811208
    14134.275600       0.808850
    14154.281700       0.806482
    14174.344400       0.804105
    14194.464200       0.801720
    14214.641100       0.799324
    14234.875400       0.796920
    14255.167500       0.794507
    14275.517500       0.792085
    14295.925700       0.789654
    14316.392300       0.787214
    14336.917600       0.784765
    14357.501800       0.782308
    14378.145200       0.779842
    14398.848100       0.777368
    14419.610700       0.774884
    14440.433200       0.772393
    14461.316000       0.769894
    14482.259200       0.767386
    14503.263200       0.764869
    14524.328200       0.762345
    14545.454500       0.759813
    14566.642400       0.757273
    14587.892000       0.754725
    14609.203800       0.752169
    14630.577900       0.749605
    14652.014700       0.747034
    14673.514300       0.744455
    14695.077100       0.741868
    14716.703500       0.739275
    14738.393500       0.736673
    14760.147600       0.734065
    14781.966000       0.731450
    14803.849000       0.728827
    14825.796900       0.726197
    14847.809900       0.723561
    14869.888500       0.720918
    14892.032800       0.718268
    14914.243100       0.715611
    14936.519800       0.712948
    14958.863100       0.710278
    14981.273400       0.707602
    15003.750900       0.704920
    15026.296000       0.702232
    15048.909000       0.699537
    15071.590100       0.696837
    15094.339600       0.694131
    15117.158000       0.691419
    15140.045400       0.688701
    15163.002300       0.685978
    15186.028900       0.683249
    15209.125500       0.680515
    15232.292500       0.677776
    15255.530100       0.675032
    15278.838800       0.672283
    15302.218800       0.669529
    15325.670500       0.666769
    15349.194200       0.664006
    15372.790200       0.661238
    15396.458800       0.658465
    15420.200500       0.655689
    15444.015400       0.652908
    15467.904100       0.650123
    15491.866800       0.647334
    15515.903800       0.644541
    15540.015500       0.641744
    15564.202300       0.638944
    15588.464500       0.636141
    15612.802500       0.633334
    15637.216600       0.630524
    15661.707100       0.627711
    15686.274500       0.624895
    15710.919100       0.622076
    15735.641200       0.619255
    15760.441300       0.616431
    15785.319700       0.613605
    15810.276700       0.610777
    15835.312700       0.607946
    15860.428200       0.605114
    15885.623500       0.602279
    15910.899000       0.599443
    15936.255000       0.596606
    15961.691900       0.593767
    15987.210200       0.590927
    16012.810200       0.588085
    16038.492400       0.585243
    16064.257000       0.582400
    16090.104600       0.579557
    16116.035500       0.576712
    16142.050000       0.573868
    16168.148700       0.571023
    16194.332000       0.568178
    16220.600200       0.565333
    16246.953700       0.562488
    16273.393000       0.559644
    16299.918500       0.556800
    16326.530600       0.553957
    16353.229800       0.551115
    16380.016400       0.548274
    16406.890900       0.545433
    16433.853700       0.542594
    16460.905300       0.539757
    16488.046200       0.536921
    16515.276600       0.534087
    16542.597200       0.531254
    16570.008300       0.528424
    16597.510400       0.525596
    16625.103900       0.522770
    16652.789300       0.519946
    16680.567100       0.517125
    16708.437800       0.514307
    16736.401700       0.511492
    16764.459300       0.508680
    16792.611300       0.505871
    16820.857900       0.503065
    16849.199700       0.500263
    16877.637100       0.497465
    16906.170800       0.494670
    16934.801000       0.491879
    16963.528400       0.489092
    16992.353400       0.486310
    17021.276600       0.483531
    17050.298400       0.480758
    17079.419300       0.477988
    17108.639900       0.475224
    17137.960600       0.472464
    17167.382000       0.469710
    17196.904600       0.466960
    17226.528900       0.464216
    17256.255400       0.461477
    17286.084700       0.458744
    17316.017300       0.456016
    17346.053800       0.453295
    17376.194600       0.450579
    17406.440400       0.447869
    17436.791600       0.445165
    17467.248900       0.442467
    17497.812800       0.439776
    17528.483800       0.437091
    17559.262500       0.434413
    17590.149500       0.431741
    17621.145400       0.429076
    17652.250700       0.426418
    17683.466000       0.423767
    17714.791900       0.421123
    17746.228900       0.418486
    17777.777800       0.415857
    17809.439000       0.413234
    17841.213200       0.410620
    17873.101000       0.408012
    17905.103000       0.405412
    17937.219700       0.402820
    17969.451900       0.400236
    18001.800200       0.397659
    18034.265100       0.395091
    18066.847300       0.392530
    18099.547500       0.389977
    18132.366300       0.387432
    18165.304300       0.384896
    18198.362100       0.382367
    18231.540600       0.379847
    18264.840200       0.377335
    18298.261700       0.374831
    18331.805700       0.372336
    18365.472900       0.369849
    18399.264000       0.367370
    18433.179700       0.364900
    18467.220700       0.362438
    18501.387600       0.359984
    18535.681200       0.357539
    18570.102100       0.355103
    18604.651200       0.352675
    18639.329000       0.350255
    18674.136300       0.347844
    18709.073900       0.345442
    18744.142500       0.343048
    18779.342700       0.340662
    18814.675400       0.338285
    18850.141400       0.335916
    18885.741300       0.333556
    18921.475900       0.331204
    18957.346000       0.328860
    18993.352300       0.326525
    19029.495700       0.324197
    19065.776900       0.321879
    19102.196800       0.319568
    19138.756000       0.317265
    19175.455400       0.314971
    19212.295900       0.312684
    19249.278200       0.310406
    19286.403100       0.308135
    19323.671500       0.305872
    19361.084200       0.303617
    19398.642100       0.301369
    19436.346000       0.299129
    19474.196700       0.296896
    19512.195100       0.294671
    19550.342100       0.292453
    19588.638600       0.290242
    19627.085400       0.288038
    19665.683400       0.285841
    19704.433500       0.283651
    19743.336600       0.281468
    19782.393700       0.279291
    19821.605600       0.277121
    19860.973200       0.274957
    19900.497500       0.272799
    19940.179500       0.270648
    19980.020000       0.268502
    20020.020000       0.266362
    20060.180500       0.264228
    20100.502500       0.262099
    20140.986900       0.259975
    20181.634700       0.257857
    20222.446900       0.255744
    20263.424500       0.253635
    20304.568500       0.251532
    20345.880000       0.249433
    20387.359800       0.247338
    20429.009200       0.245247
    20470.829100       0.243160
    20512.820500       0.241078
    20554.984600       0.238998
    20597.322300       0.236923
    20639.834900       0.234850
    20682.523300       0.232781
    20725.388600       0.230714
    20768.432000       0.228651
    20811.654500       0.226590
    20855.057400       0.224531
    20898.641600       0.222474
    20942.408400       0.220419
    20986.358900       0.218366
    21030.494200       0.216314
    21074.815600       0.214264
    21119.324200       0.212215
    21164.021200       0.210166
    21208.907700       0.208119
    21253.985100       0.206072
    21299.254500       0.204025
    21344.717200       0.201978
    21390.374300       0.199932
    21436.227200       0.197885
    21482.277100       0.195837
    21528.525300       0.193789
    21574.973000       0.191740
    21621.621600       0.189690
    21668.472400       0.187638
    21715.526600       0.185585
    21762.785600       0.183530
    21810.250800       0.181474
    21857.923500       0.179415
    21905.805000       0.177354
    21953.896800       0.175291
    22002.200200       0.173225
    22050.716600       0.171156
    22099.447500       0.169084
    22148.394200       0.167010
    22197.558300       0.164932
    22246.941000       0.162850
    22296.544000       0.160765
    22346.368700       0.158676
    22396.416600       0.156583
    22446.689100       0.154486
    22497.187900       0.152385
    22547.914300       0.150279
    22598.870100       0.148169
    22650.056600       0.146055
    22701.475600       0.143935
    22753.128600       0.141811
    22805.017100       0.139682
    22857.142900       0.137548
    22909.507400       0.135410
    22962.112500       0.133265
    23014.959700       0.131116
    23068.050700       0.128962
    23121.387300       0.126802
    23174.971000       0.124637
    23228.803700       0.122466
    23282.887100       0.120290
    23337.222900       0.118109
    23391.812900       0.115923
    23446.658900       0.113731
    23501.762600       0.111533
    23557.126000       0.109331
    23612.750900       0.107123
    23668.639100       0.104910
    23724.792400       0.102692
    23781.212800       0.100469
    23837.902300       0.098241
    23894.862600       0.096008
    23952.095800       0.093771
    24009.603800       0.091529
    24067.388700       0.089283
    24125.452400       0.087033
    24183.796900       0.084779
    24242.424200       0.082521
    24301.336600       0.080260
    24360.535900       0.077995
    24420.024400       0.075728
    24479.804200       0.073458
    24539.877300       0.071185
    24600.246000       0.068911
    24660.912500       0.066634
    24721.878900       0.064357
    24783.147500       0.062078
    24844.720500       0.059799
    24906.600200       0.057520
    24968.789000       0.055242
    25031.289100       0.052964
    25094.102900       0.050687
    25157.232700       0.048412
    25220.681000       0.046140
    25284.450100       0.043871
    25348.542500       0.041605
    25412.960600       0.039343
    25477.707000       0.037086
