11,    channel 11 SRF extracted from SRF_FY-3F_MERSI-III.zip(FY3F_MERSI_SRF_CH11_Pub.txt) (received Nov 2023)
Number of data points:
752
Wavenumber (cm-1)   Filter response
    12634.250000       0.003390
    12642.217000       0.003530
    12650.224600       0.003530
    12658.211800       0.003530
    12666.242900       0.003670
    12674.256800       0.003810
    12682.311400       0.003670
    12690.347300       0.003810
    12698.427200       0.003950
    12706.485100       0.003950
    12714.556600       0.004220
    12722.638200       0.004350
    12730.733400       0.004220
    12738.838900       0.004080
    12746.958000       0.003950
    12755.089000       0.003680
    12763.228800       0.003810
    12771.383900       0.003810
    12779.549400       0.003680
    12787.728700       0.003550
    12795.918400       0.003690
    12804.085800       0.003290
    12812.301400       0.003020
    12820.527600       0.003160
    12828.733100       0.003420
    12836.983700       0.003290
    12845.213500       0.003550
    12853.455600       0.003950
    12861.743000       0.004210
    12870.009600       0.004210
    12878.288500       0.004340
    12886.611200       0.004340
    12894.913200       0.004200
    12903.229100       0.003820
    12911.557500       0.003690
    12919.898300       0.003570
    12928.249900       0.003570
    12936.615600       0.003440
    12944.992200       0.003570
    12953.383000       0.003570
    12961.749400       0.003570
    12970.165200       0.003570
    12978.592100       0.003570
    12986.996100       0.003570
    12995.448200       0.003570
    13003.913000       0.003700
    13012.356700       0.003450
    13020.846900       0.003700
    13029.314300       0.004070
    13037.797700       0.004320
    13046.324600       0.004320
    13054.832000       0.004440
    13063.350500       0.004560
    13071.881800       0.004560
    13080.460100       0.004680
    13089.017200       0.004800
    13097.589000       0.004920
    13106.171900       0.004560
    13114.767900       0.004310
    13123.375100       0.004070
    13131.964300       0.003710
    13140.597600       0.003590
    13149.243900       0.003710
    13157.903400       0.003830
    13166.541300       0.003830
    13175.230600       0.003950
    13183.929500       0.003950
    13192.606900       0.003830
    13201.332300       0.003950
    13210.036100       0.003950
    13218.788100       0.004070
    13227.516700       0.004180
    13236.260400       0.004300
    13245.017300       0.004180
    13253.822800       0.004180
    13262.603000       0.004300
    13271.400100       0.004180
    13280.209000       0.004180
    13289.033000       0.004180
    13297.868800       0.004410
    13306.718100       0.004290
    13315.579200       0.004290
    13324.453900       0.004060
    13333.342200       0.003950
    13342.212100       0.003720
    13351.127700       0.003490
    13360.055200       0.003380
    13369.000000       0.003490
    13377.921100       0.003380
    13386.891600       0.003490
    13395.840100       0.003720
    13404.836500       0.004060
    13413.812600       0.004170
    13422.836800       0.004400
    13431.840700       0.004400
    13440.856600       0.004510
    13449.886500       0.003950
    13458.966500       0.003730
    13468.024400       0.003720
    13477.094400       0.003610
    13486.180300       0.003610
    13495.278500       0.003950
    13504.390800       0.003950
    13513.517200       0.003840
    13522.659600       0.003840
    13531.812500       0.003730
    13540.944900       0.003730
    13550.126300       0.003950
    13559.323900       0.003840
    13568.533900       0.003840
    13577.723300       0.003730
    13586.962100       0.003730
    13596.176400       0.003620
    13605.444000       0.003730
    13614.689100       0.003840
    13623.983800       0.004060
    13633.257700       0.004160
    13642.583400       0.004160
    13651.882700       0.004270
    13661.198500       0.004270
    13670.530600       0.004160
    13679.871800       0.004160
    13689.270800       0.004160
    13698.643300       0.004050
    13708.030500       0.004050
    13717.430500       0.004050
    13726.847300       0.003840
    13736.280700       0.003740
    13745.687500       0.003740
    13755.148700       0.003740
    13764.623000       0.003630
    13774.112300       0.003840
    13783.616500       0.004160
    13793.095800       0.004160
    13802.630100       0.004160
    13812.141300       0.004260
    13821.702000       0.004260
    13831.243300       0.004260
    13840.834300       0.004260
    13850.405900       0.004160
    13860.027300       0.004160
    13869.627400       0.004160
    13879.240900       0.003950
    13888.908200       0.003950
    13898.552200       0.004050
    13908.211600       0.004150
    13917.886400       0.003950
    13927.574700       0.003950
    13937.278300       0.004050
    13946.997500       0.003950
    13956.732200       0.003740
    13966.482400       0.003740
    13976.248200       0.003740
    13986.027700       0.003740
    13995.783600       0.004050
    14005.594400       0.004050
    14015.420900       0.003850
    14025.263100       0.003850
    14035.079800       0.003850
    14044.953700       0.003540
    14054.799900       0.003440
    14064.705500       0.003650
    14074.583500       0.003750
    14084.517000       0.003850
    14094.428700       0.004150
    14104.354500       0.004550
    14114.334000       0.004750
    14124.291800       0.004650
    14134.267600       0.004550
    14144.253600       0.004350
    14154.299700       0.004050
    14164.320000       0.003950
    14174.354500       0.003950
    14184.407200       0.003650
    14194.474200       0.003650
    14204.559600       0.003650
    14214.659300       0.003450
    14224.732900       0.003350
    14234.865300       0.003550
    14245.012200       0.003650
    14255.175600       0.003750
    14265.314900       0.003950
    14275.513400       0.004140
    14285.724500       0.004340
    14295.911400       0.004140
    14306.155700       0.004140
    14316.373800       0.004050
    14326.651700       0.003850
    14336.903200       0.003560
    14347.214600       0.003850
    14357.499700       0.003850
    14367.801600       0.003750
    14378.159700       0.003750
    14388.495400       0.003850
    14398.846000       0.003750
    14409.215700       0.003950
    14419.598200       0.003950
    14429.997800       0.004050
    14440.414400       0.004140
    14450.848300       0.004140
    14461.301300       0.004140
    14471.769600       0.004240
    14482.250800       0.004050
    14492.753600       0.003850
    14503.271600       0.003660
    14513.805000       0.003470
    14524.315600       0.003750
    14534.885800       0.003950
    14545.469400       0.003850
    14556.030200       0.003850
    14566.648800       0.003760
    14577.242500       0.003660
    14587.896300       0.003760
    14598.525200       0.003850
    14609.214500       0.003850
    14619.878800       0.004040
    14630.556500       0.004040
    14641.299200       0.003950
    14652.012500       0.004140
    14662.743700       0.004230
    14673.492800       0.003950
    14684.305100       0.003760
    14695.087900       0.004040
    14705.891000       0.003950
    14716.710000       0.003950
    14727.547000       0.004140
    14738.402200       0.004330
    14749.273400       0.004140
    14760.162900       0.004040
    14771.070600       0.004040
    14781.952900       0.004040
    14792.895000       0.004040
    14803.855600       0.004040
    14814.834600       0.004040
    14825.785900       0.003850
    14836.799700       0.003660
    14847.790100       0.003660
    14858.841000       0.003660
    14869.910600       0.003760
    14880.952400       0.003950
    14892.012800       0.004040
    14903.136300       0.003950
    14914.232000       0.004040
    14925.391000       0.004140
    14936.526500       0.004040
    14947.678600       0.004140
    14958.847500       0.004140
    14970.082300       0.004040
    14981.286900       0.004040
    14992.512700       0.004140
    15003.757700       0.004140
    15015.019500       0.003950
    15026.298300       0.003850
    15037.598500       0.003850
    15048.918000       0.003850
    15060.254600       0.003950
    15071.610500       0.004140
    15082.935800       0.004230
    15094.330500       0.004040
    15105.742500       0.004040
    15117.174000       0.003950
    15128.579300       0.004040
    15140.045400       0.003850
    15151.533500       0.003850
    15162.997700       0.003950
    15174.520600       0.004040
    15186.019600       0.003850
    15197.584600       0.004040
    15209.120800       0.004140
    15220.677000       0.003850
    15232.301700       0.003850
    15243.893100       0.003950
    15255.509200       0.003760
    15267.191900       0.003660
    15278.841100       0.003660
    15290.515200       0.003560
    15302.207100       0.003470
    15313.919300       0.003560
    15325.654100       0.003560
    15337.399800       0.003660
    15349.170600       0.003560
    15360.961900       0.003560
    15372.773600       0.003660
    15384.603600       0.003950
    15396.454100       0.003950
    15408.322900       0.003850
    15420.212400       0.003850
    15432.075000       0.003760
    15444.003500       0.003560
    15455.955300       0.003760
    15467.925600       0.003950
    15479.866600       0.004040
    15491.878800       0.004040
    15503.864000       0.004330
    15515.911000       0.004330
    15527.935800       0.004420
    15540.027600       0.004330
    15552.092300       0.004330
    15564.226600       0.004140
    15576.331300       0.003850
    15588.454800       0.003760
    15600.602100       0.003950
    15612.817100       0.003950
    15625.002400       0.003950
    15637.214100       0.004230
    15649.442500       0.004140
    15661.690000       0.003950
    15673.964000       0.004140
    15686.257300       0.004040
    15698.567400       0.003850
    15710.901800       0.003850
    15723.258100       0.003850
    15735.633800       0.003670
    15748.029000       0.003670
    15760.446300       0.003850
    15772.885600       0.003850
    15785.297200       0.003950
    15797.778300       0.004040
    15810.281700       0.004230
    15822.809800       0.004040
    15835.307700       0.003950
    15847.873100       0.003850
    15860.413100       0.003760
    15873.026000       0.003760
    15885.605800       0.003760
    15898.261300       0.004040
    15910.886300       0.004230
    15923.587200       0.004230
    15936.257500       0.004230
    15948.948100       0.004320
    15961.712300       0.004140
    15974.446000       0.003850
    15987.207700       0.003760
    15999.987200       0.003480
    16012.787200       0.003390
    16025.664100       0.003390
    16038.510400       0.003570
    16051.377200       0.003850
    16064.269900       0.004040
    16077.183300       0.004140
    16090.117500       0.004320
    16103.077700       0.004320
    16116.058800       0.004320
    16129.008800       0.004320
    16142.037000       0.004420
    16155.086200       0.004320
    16168.159200       0.004140
    16181.253300       0.003760
    16194.318900       0.003670
    16207.458100       0.003570
    16220.621200       0.003670
    16233.755700       0.004040
    16246.966900       0.004040
    16260.146700       0.003850
    16273.403600       0.003670
    16286.629000       0.003570
    16299.931800       0.003480
    16313.203100       0.004040
    16326.557300       0.004420
    16339.877300       0.004610
    16353.219100       0.004610
    16366.585300       0.004610
    16380.032500       0.004230
    16393.445300       0.004140
    16406.882800       0.004140
    16420.345100       0.004230
    16433.829400       0.004140
    16447.395500       0.004140
    16460.929700       0.004230
    16474.486300       0.004230
    16488.067900       0.004040
    16501.674700       0.003850
    16515.303900       0.003670
    16528.901000       0.003480
    16542.583500       0.003480
    16556.283200       0.003570
    16570.011000       0.003760
    16583.764400       0.003950
    16597.482800       0.003850
    16611.284600       0.003950
    16625.109400       0.004040
    16638.962800       0.004140
    16652.781000       0.004230
    16666.680600       0.004330
    16680.547700       0.004140
    16694.499200       0.004040
    16708.418200       0.003660
    16722.419200       0.003470
    16736.384900       0.003570
    16750.438400       0.003760
    16764.456500       0.003950
    16778.501000       0.004330
    16792.631000       0.004230
    16806.722700       0.004040
    16820.843700       0.003660
    16834.988500       0.003760
    16849.219500       0.003660
    16863.417800       0.003950
    16877.640000       0.004140
    16891.889000       0.004620
    16906.165000       0.004420
    16920.465200       0.004520
    16934.795300       0.004430
    16949.146800       0.004230
    16963.522700       0.004040
    16977.925800       0.003760
    16992.359200       0.003560
    17006.817200       0.003660
    17021.302700       0.003760
    17035.749000       0.003760
    17050.292600       0.003950
    17064.852200       0.004140
    17079.445600       0.004040
    17094.002500       0.004140
    17108.645700       0.004530
    17123.317000       0.004720
    17137.954700       0.005010
    17152.679300       0.005490
    17167.370200       0.005980
    17182.151300       0.006370
    17196.892700       0.007340
    17211.727700       0.008110
    17226.531800       0.008890
    17241.352600       0.009770
    17256.273300       0.010700
    17271.151200       0.011400
    17286.063800       0.012400
    17301.065000       0.013900
    17316.026300       0.015600
    17331.019500       0.017600
    17346.038700       0.020300
    17361.090000       0.023500
    17376.164400       0.027300
    17391.334600       0.032300
    17406.464600       0.037900
    17421.624000       0.045000
    17436.816000       0.054100
    17452.031300       0.065000
    17467.279400       0.078400
    17482.490000       0.095100
    17497.791300       0.115000
    17513.122600       0.137000
    17528.483800       0.163000
    17543.872000       0.192000
    17559.290300       0.222000
    17574.673900       0.255000
    17590.146400       0.290000
    17605.655500       0.326000
    17621.120500       0.365000
    17636.687400       0.404000
    17652.278700       0.446000
    17667.838300       0.487000
    17683.487800       0.528000
    17699.102500       0.568000
    17714.817000       0.610000
    17730.490200       0.647000
    17746.260400       0.686000
    17761.995700       0.723000
    17777.762000       0.760000
    17793.619600       0.794000
    17809.445300       0.829000
    17825.299200       0.862000
    17841.181400       0.888000
    17857.165200       0.912000
    17873.110600       0.934000
    17889.084500       0.950000
    17905.090100       0.962000
    17921.127700       0.974000
    17937.197200       0.986000
    17953.292400       0.989000
    17969.422900       0.993000
    17985.579200       0.996000
    18001.771000       1.000000
    18017.992000       0.997000
    18034.242300       0.998000
    18050.528500       0.995000
    18066.844100       0.989000
    18083.189200       0.978000
    18099.570400       0.966000
    18115.909200       0.953000
    18132.353100       0.932000
    18148.826900       0.911000
    18165.330700       0.890000
    18181.798300       0.865000
    18198.365500       0.834000
    18214.969400       0.804000
    18231.530600       0.773000
    18248.198500       0.735000
    18264.823500       0.696000
    18281.552400       0.656000
    18298.248300       0.617000
    18315.041800       0.575000
    18331.799000       0.537000
    18348.590200       0.497000
    18365.483000       0.460000
    18382.339400       0.420000
    18399.230200       0.383000
    18416.223200       0.343000
    18433.176300       0.308000
    18450.167500       0.272000
    18467.186600       0.240000
    18484.312300       0.209000
    18501.401300       0.181000
    18518.521900       0.154000
    18535.677800       0.131000
    18552.868800       0.110000
    18570.095200       0.091700
    18587.346800       0.077000
    18604.640800       0.065251
    18621.967000       0.054843
    18639.325500       0.046590
    18656.719900       0.039629
    18674.146800       0.033631
    18691.609700       0.028400
    18709.108900       0.024200
    18726.567200       0.021200
    18744.135400       0.018300
    18761.733100       0.016200
    18779.370900       0.014500
    18796.967700       0.012900
    18814.675400       0.011500
    18832.416500       0.010200
    18850.123600       0.009360
    18867.931600       0.008360
    18885.709200       0.007910
    18903.595300       0.007240
    18921.515300       0.006680
    18939.397500       0.006120
    18957.310000       0.005660
    18975.339300       0.005090
    18993.327100       0.004410
    19011.432100       0.003830
    19029.492100       0.003370
    19047.590000       0.003250
    19065.802400       0.002900
    19083.969500       0.003130
    19102.178500       0.003370
    19120.422300       0.003480
    19138.781600       0.003600
    19157.095500       0.003830
    19175.451700       0.003710
    19193.846900       0.003830
    19212.277400       0.003950
    19230.739600       0.003830
    19249.248500       0.003710
    19267.789300       0.003710
    19286.369600       0.003590
    19304.985800       0.003710
    19323.641600       0.003950
    19342.333600       0.004070
    19361.069200       0.003950
    19379.837400       0.003820
    19398.645900       0.003700
    19417.494600       0.003700
    19436.380000       0.003580
    19455.226400       0.003820
    19474.189100       0.003820
    19493.192600       0.003700
    19512.233200       0.003570
    19531.234700       0.003570
    19550.353600       0.003320
    19569.433300       0.003190
    19588.630900       0.003190
    19607.870100       0.002930
    19627.066100       0.002800
    19646.384700       0.002930
    19665.664000       0.003180
    19685.062600       0.003437
    19704.418000       0.003953
    19723.897000       0.004340
    19743.336600       0.004468
    19762.810700       0.004600
    19782.413200       0.004338
    19801.972400       0.004078
    19821.574100       0.004080
    19841.297400       0.004080
    19860.977100       0.003815
    19880.699900       0.003947
    19900.465800       0.003812
    19920.354400       0.003679
    19940.203300       0.003544
    19960.091800       0.003541
    19980.024000       0.003404
    19999.996000       0.003539
    20020.008000       0.003539
    20040.068100       0.003813
    20060.164400       0.004229
    20080.305200       0.004365
    20100.494400       0.004365
    20120.716200       0.004224
    20140.986900       0.004230
    20161.298500       0.004090
    20181.655100       0.004230
    20202.052900       0.004230
    20222.406000       0.004230
    20242.894500       0.004090
    20263.424500       0.003950
    20283.996200       0.004100
    20304.527300       0.004390
    20325.186700       0.004680
    20345.801300       0.004980
    20366.640300       0.005130
    20387.343200       0.004980
    20408.184100       0.004990
    20428.975800       0.004990
    20449.901900       0.004700
    20470.787200       0.004400
    20491.803300       0.004090
    20512.862600       0.003490
    20533.885100       0.003030
    20554.946600       0.002720
    20576.148600       0.003020
    20597.301100       0.003180
    20618.595000       0.003480
    20639.834900       0.003790
    20661.127100       0.003940
    20682.561800       0.003630
    20703.942300       0.003790
    20725.375700       0.003630
    20746.853500       0.003630
    20768.466500       0.004110
    20790.038100       0.004437
    20811.658900       0.004276
    20833.324700       0.004603
    20855.035600       0.004437
    20876.791900       0.003777
    20898.602300       0.003277
    20920.458300       0.002939
    20942.452200       0.002944
    20964.404500       0.003451
    20986.407300       0.003956
    21008.359200       0.004292
    21030.458800       0.004284
    21052.605000       0.003766
    21074.793400       0.003250
    21097.037500       0.002903
    21119.328600       0.003080
    21141.671400       0.003426
    21164.061500       0.003774
    21186.404800       0.004307
    21208.898700       0.004844
    21231.431500       0.004667
    21254.025800       0.004667
    21276.568600       0.004850
    21299.259100       0.004675
    21322.002500       0.004466
    21344.694400       0.004583
    21367.539600       0.004396
    21390.333200       0.003840
    21413.276200       0.003656
    21436.277800       0.004070
    21459.222900       0.003954
    21482.327900       0.004330
    21505.376300       0.004513
    21528.478900       0.004513
    21551.738100       0.003756
    21574.949800       0.003563
    21598.304800       0.003373
    21621.616900       0.003952
    21644.984200       0.004342
    21668.500500       0.004533
    21691.978700       0.004923
    21715.498300       0.005120
    21739.177700       0.004732
    21762.814100       0.004342
    21786.497100       0.004340
    21810.236500       0.004350
    21834.032500       0.004354
    21857.875700       0.004559
    21881.881200       0.004767
    21905.838600       0.005388
    21929.848600       0.005186
    21953.911300       0.004773
    21978.036500       0.004145
    22002.214700       0.004362
    22026.441400       0.003527
    22050.731200       0.003742
    22075.079600       0.003952
    22099.471900       0.004374
    22123.933000       0.003949
    22148.443300       0.004163
    22172.904800       0.003504
    22197.533600       0.003057
    22222.212300       0.002833
    22246.950900       0.002606
    22271.749600       0.002151
    22296.499300       0.002595
    22321.413600       0.002811
    22346.378700       0.002804
    22371.409700       0.002796
    22396.386500       0.002781
    22421.534700       0.002781
    22446.734500       0.003012
    22471.895000       0.003244
    22497.213200       0.003719
    22522.487000       0.004190
    22547.924500       0.003945
    22573.317600       0.003452
    22598.875200       0.003203
    22624.388300       0.002712
    22650.066900       0.003215
    22675.701000       0.003713
    22701.501400       0.004207
    22727.252100       0.004198
    22753.175100       0.003930
    22779.053700       0.003166
    22804.985900       0.002912
    22831.091900       0.002383
    22857.153300       0.002108
    22883.269000       0.002626
    22909.455000       0.002616
    22935.811400       0.002072
    22962.117800       0.002327
    22988.489900       0.002859
    23014.922600       0.002859
    23041.416300       0.003690
    23068.093300       0.003670
    23094.720200       0.003660
    23121.403300       0.003660
    23148.153500       0.003948
    23174.971000       0.003388
    23201.850800       0.003660
    23228.792900       0.003944
    23255.808500       0.003647
    23282.881700       0.003059
    23310.023300       0.002757
    23337.228300       0.002746
    23364.496900       0.002133
    23391.834800       0.002121
    23419.242100       0.002420
    23446.708300       0.002095
    23474.134300       0.002715
    23501.735000       0.003966
    23529.406200       0.004596
    23557.153800       0.004920
    23584.955700       0.005547
    23612.711900       0.004902
    23640.656300       0.003987
    23668.672700       0.003443
    23696.626300       0.002950
    23724.781200       0.002836
    23752.997300       0.003108
    23781.167600       0.003385
    23809.523800       0.004306
    23837.953400       0.004475
    23866.331400       0.004589
    23894.902600       0.005004
    23923.416400       0.005004
    23952.124500       0.004306
    23980.786600       0.003571
    24009.638400       0.003571
    24038.438400       0.002839
