120,   120, MVIRI VIS channel from srf_MET7_2012213_2012214_1801-Release_S10EE_10.dat
Number of data points:
793
Wavenumber (cm-1)   Filter response
     8442.380800       0.000000
     8449.514200       0.000000
     8456.659600       0.000004
     8463.817200       0.000057
     8470.986900       0.000167
     8478.168700       0.000335
     8485.362700       0.000557
     8492.569000       0.000833
     8499.787500       0.001161
     8507.018300       0.001539
     8514.261400       0.001965
     8521.516800       0.002440
     8528.784600       0.002960
     8536.064900       0.003525
     8543.357500       0.004134
     8550.662700       0.004785
     8557.980300       0.005477
     8565.310500       0.006210
     8572.653200       0.006981
     8580.008600       0.007791
     8587.376600       0.008637
     8594.757200       0.009519
     8602.150500       0.010437
     8609.556600       0.011388
     8616.975400       0.012373
     8624.407100       0.013391
     8631.851500       0.014441
     8639.308900       0.015521
     8646.779100       0.016632
     8654.262200       0.017773
     8661.758300       0.018942
     8669.267400       0.020140
     8676.789600       0.021367
     8684.324800       0.022620
     8691.873100       0.023900
     8699.434500       0.025207
     8707.009100       0.026540
     8714.596900       0.027897
     8722.198000       0.029280
     8729.812300       0.030688
     8737.439900       0.032120
     8745.080900       0.033576
     8752.735200       0.035055
     8760.403000       0.036558
     8768.084200       0.038084
     8775.778900       0.039632
     8783.487000       0.041203
     8791.208800       0.042797
     8798.944100       0.044412
     8806.693100       0.046050
     8814.455700       0.047709
     8822.232000       0.049389
     8830.022100       0.051091
     8837.825900       0.052815
     8845.643500       0.054560
     8853.475000       0.056325
     8861.320300       0.058112
     8869.179600       0.059920
     8877.052800       0.061748
     8884.940000       0.063598
     8892.841300       0.065468
     8900.756600       0.067359
     8908.686000       0.069271
     8916.629500       0.071204
     8924.587200       0.073157
     8932.559200       0.075131
     8940.545400       0.077126
     8948.545900       0.079142
     8956.560700       0.081178
     8964.589900       0.083236
     8972.633500       0.085314
     8980.691500       0.087413
     8988.764000       0.089533
     8996.851100       0.091674
     9004.952700       0.093837
     9013.068900       0.096020
     9021.199800       0.098225
     9029.345400       0.100452
     9037.505600       0.102699
     9045.680700       0.104968
     9053.870500       0.107259
     9062.075200       0.109571
     9070.294800       0.111906
     9078.529300       0.114261
     9086.778700       0.116639
     9095.043200       0.119039
     9103.322700       0.121461
     9111.617300       0.123906
     9119.927000       0.126372
     9128.251900       0.128861
     9136.592100       0.131372
     9144.947400       0.133906
     9153.318100       0.136463
     9161.704100       0.139041
     9170.105500       0.141644
     9178.522300       0.144269
     9186.954500       0.146916
     9195.402300       0.149587
     9203.865600       0.152281
     9212.344500       0.154998
     9220.839100       0.157738
     9229.349300       0.160502
     9237.875300       0.163289
     9246.417000       0.166099
     9254.974500       0.168933
     9263.547900       0.171790
     9272.137200       0.174671
     9280.742500       0.177576
     9289.363700       0.180504
     9298.000900       0.183455
     9306.654300       0.186431
     9315.323700       0.189430
     9324.009300       0.192453
     9332.711200       0.195500
     9341.429200       0.198570
     9350.163600       0.201665
     9358.914400       0.204782
     9367.681500       0.207924
     9376.465100       0.211090
     9385.265100       0.214279
     9394.081700       0.217492
     9402.914900       0.220728
     9411.764700       0.223988
     9420.631200       0.227272
     9429.514400       0.230579
     9438.414300       0.233910
     9447.331100       0.237264
     9456.264800       0.240641
     9465.215300       0.244042
     9474.182900       0.247466
     9483.167400       0.250913
     9492.169000       0.254383
     9501.187600       0.257876
     9510.223500       0.261392
     9519.276500       0.264930
     9528.346800       0.268491
     9537.434400       0.272074
     9546.539400       0.275680
     9555.661700       0.279308
     9564.801500       0.282958
     9573.958800       0.286630
     9583.133700       0.290323
     9592.326100       0.294038
     9601.536200       0.297775
     9610.764100       0.301532
     9620.009600       0.305311
     9629.273000       0.309111
     9638.554200       0.312931
     9647.853400       0.316772
     9657.170400       0.320633
     9666.505600       0.324514
     9675.858700       0.328415
     9685.230000       0.332335
     9694.619500       0.336274
     9704.027200       0.340233
     9713.453100       0.344211
     9722.897400       0.348207
     9732.360100       0.352221
     9741.841200       0.356254
     9751.340800       0.360304
     9760.859000       0.364372
     9770.395700       0.368457
     9779.951100       0.372559
     9789.525200       0.376678
     9799.118100       0.380813
     9808.729800       0.384964
     9818.360300       0.389131
     9828.009800       0.393313
     9837.678300       0.397510
     9847.365800       0.401722
     9857.072400       0.405949
     9866.798200       0.410189
     9876.543200       0.414443
     9886.307500       0.418711
     9896.091000       0.422992
     9905.894000       0.427286
     9915.716400       0.431592
     9925.558300       0.435909
     9935.419800       0.440238
     9945.300800       0.444579
     9955.201600       0.448930
     9965.122100       0.453292
     9975.062300       0.457664
     9985.022500       0.462045
     9995.002500       0.466436
    10005.002500       0.470836
    10015.022500       0.475244
    10025.062700       0.479660
    10035.122900       0.484084
    10045.203400       0.488514
    10055.304200       0.492952
    10065.425300       0.497396
    10075.566800       0.501846
    10085.728700       0.506302
    10095.911200       0.510762
    10106.114200       0.515227
    10116.337900       0.519697
    10126.582300       0.524170
    10136.847400       0.528646
    10147.133400       0.533125
    10157.440300       0.537607
    10167.768200       0.542091
    10178.117000       0.546576
    10188.487000       0.551062
    10198.878100       0.555549
    10209.290500       0.560035
    10219.724100       0.564522
    10230.179000       0.569007
    10240.655400       0.573492
    10251.153300       0.577974
    10261.672700       0.582455
    10272.213700       0.586932
    10282.776300       0.591407
    10293.360800       0.595878
    10303.967000       0.600345
    10314.595200       0.604807
    10325.245200       0.609264
    10335.917300       0.613716
    10346.611500       0.618162
    10357.327800       0.622601
    10368.066400       0.627034
    10378.827200       0.631458
    10389.610400       0.635876
    10400.416000       0.640284
    10411.244100       0.644684
    10422.094800       0.649074
    10432.968200       0.653455
    10443.864200       0.657825
    10454.783100       0.662185
    10465.724800       0.666533
    10476.689400       0.670870
    10487.677000       0.675195
    10498.687700       0.679506
    10509.721500       0.683805
    10520.778500       0.688090
    10531.858900       0.692361
    10542.962600       0.696618
    10554.089700       0.700860
    10565.240400       0.705086
    10576.414600       0.709297
    10587.612500       0.713491
    10598.834100       0.717668
    10610.079600       0.721828
    10621.348900       0.725970
    10632.642200       0.730094
    10643.959600       0.734200
    10655.301000       0.738286
    10666.666700       0.742353
    10678.056600       0.746400
    10689.470900       0.750427
    10700.909600       0.754433
    10712.372800       0.758418
    10723.860600       0.762381
    10735.373100       0.766322
    10746.910300       0.770240
    10758.472300       0.774136
    10770.059200       0.778008
    10781.671200       0.781857
    10793.308100       0.785681
    10804.970300       0.789481
    10816.657700       0.793256
    10828.370300       0.797006
    10840.108400       0.800729
    10851.871900       0.804427
    10863.661100       0.808099
    10875.475800       0.811743
    10887.316300       0.815360
    10899.182600       0.818950
    10911.074700       0.822511
    10922.992900       0.826045
    10934.937100       0.829549
    10946.907500       0.833025
    10958.904100       0.836471
    10970.927000       0.839887
    10982.976400       0.843274
    10995.052200       0.846630
    11007.154700       0.849955
    11019.283700       0.853249
    11031.439600       0.856512
    11043.622300       0.859743
    11055.832000       0.862942
    11068.068600       0.866109
    11080.332400       0.869244
    11092.623400       0.872345
    11104.941700       0.875414
    11117.287400       0.878449
    11129.660500       0.881450
    11142.061300       0.884417
    11154.489700       0.887351
    11166.945800       0.890249
    11179.429800       0.893113
    11191.941800       0.895942
    11204.481800       0.898736
    11217.049900       0.901494
    11229.646300       0.904217
    11242.270900       0.906904
    11254.924000       0.909555
    11267.605600       0.912170
    11280.315800       0.914748
    11293.054800       0.917289
    11305.822500       0.919793
    11318.619100       0.922261
    11331.444800       0.924691
    11344.299500       0.927084
    11357.183400       0.929440
    11370.096600       0.931757
    11383.039300       0.934037
    11396.011400       0.936279
    11409.013100       0.938483
    11422.044500       0.940648
    11435.105800       0.942775
    11448.196900       0.944864
    11461.318100       0.946914
    11474.469300       0.948925
    11487.650800       0.950898
    11500.862600       0.952832
    11514.104800       0.954727
    11527.377500       0.956582
    11540.680900       0.958399
    11554.015000       0.960177
    11567.380000       0.961915
    11580.775900       0.963614
    11594.202900       0.965273
    11607.661100       0.966894
    11621.150500       0.968475
    11634.671300       0.970017
    11648.223600       0.971519
    11661.807600       0.972982
    11675.423200       0.974405
    11689.070700       0.975789
    11702.750100       0.977134
    11716.461600       0.978439
    11730.205300       0.979705
    11743.981200       0.980932
    11757.789500       0.982120
    11771.630400       0.983268
    11785.503800       0.984377
    11799.410000       0.985447
    11813.349100       0.986478
    11827.321100       0.987471
    11841.326200       0.988424
    11855.364600       0.989338
    11869.436200       0.990214
    11883.541300       0.991051
    11897.680000       0.991850
    11911.852300       0.992611
    11926.058400       0.993333
    11940.298500       0.994017
    11954.572600       0.994663
    11968.880900       0.995271
    11983.223500       0.995842
    11997.600500       0.996375
    12012.012000       0.996871
    12026.458200       0.997330
    12040.939200       0.997751
    12055.455100       0.998136
    12070.006000       0.998484
    12084.592100       0.998795
    12099.213600       0.999071
    12113.870400       0.999310
    12128.562800       0.999513
    12143.290800       0.999681
    12158.054700       0.999813
    12172.854500       0.999910
    12187.690400       0.999973
    12202.562500       1.000000
    12217.471000       0.999993
    12232.415900       0.999952
    12247.397400       0.999876
    12262.415700       0.999767
    12277.470800       0.999625
    12292.563000       0.999449
    12307.692300       0.999241
    12322.858900       0.999000
    12338.062900       0.998726
    12353.304500       0.998421
    12368.583800       0.998084
    12383.900900       0.997715
    12399.256000       0.997315
    12414.649300       0.996885
    12430.080800       0.996423
    12445.550700       0.995932
    12461.059200       0.995411
    12476.606400       0.994860
    12492.192400       0.994281
    12507.817400       0.993672
    12523.481500       0.993035
    12539.185000       0.992370
    12554.927800       0.991677
    12570.710200       0.990956
    12586.532400       0.990209
    12602.394500       0.989434
    12618.296500       0.988634
    12634.238800       0.987807
    12650.221400       0.986955
    12666.244500       0.986078
    12682.308200       0.985176
    12698.412700       0.984249
    12714.558200       0.983299
    12730.744700       0.982325
    12746.972600       0.981327
    12763.241900       0.980307
    12779.552700       0.979265
    12795.905300       0.978200
    12812.299800       0.977114
    12828.736400       0.976006
    12845.215200       0.974878
    12861.736300       0.973729
    12878.300100       0.972561
    12894.906500       0.971373
    12911.555800       0.970165
    12928.248200       0.968940
    12944.983800       0.967696
    12961.762800       0.966434
    12978.585300       0.965155
    12995.451600       0.963859
    13012.361700       0.962546
    13029.316000       0.961217
    13046.314400       0.959873
    13063.357300       0.958514
    13080.444700       0.957140
    13097.576900       0.955751
    13114.754100       0.954349
    13131.976400       0.952933
    13149.243900       0.951505
    13166.556900       0.950064
    13183.915600       0.948611
    13201.320100       0.947146
    13218.770700       0.945671
    13236.267400       0.944184
    13253.810500       0.942687
    13271.400100       0.941181
    13289.036500       0.939665
    13306.719900       0.938141
    13324.450400       0.936608
    13342.228200       0.935067
    13360.053400       0.933519
    13377.926400       0.931963
    13395.847300       0.930401
    13413.816200       0.928833
    13431.833400       0.927259
    13449.899100       0.925680
    13468.013500       0.924096
    13486.176700       0.922507
    13504.388900       0.920915
    13522.650400       0.919319
    13540.961400       0.917720
    13559.322000       0.916119
    13577.732500       0.914515
    13596.193100       0.912910
    13614.703900       0.911304
    13633.265200       0.909696
    13651.877100       0.908089
    13670.540000       0.906481
    13689.253900       0.904874
    13708.019200       0.903267
    13726.836000       0.901662
    13745.704500       0.900059
    13764.624900       0.898457
    13783.597500       0.896859
    13802.622500       0.895263
    13821.700100       0.893671
    13840.830400       0.892082
    13860.013900       0.890498
    13879.250500       0.888918
    13898.540700       0.887343
    13917.884500       0.885774
    13937.282200       0.884210
    13956.734100       0.882652
    13976.240400       0.881101
    13995.801300       0.879557
    14015.417000       0.878020
    14035.087700       0.876491
    14054.813800       0.874970
    14074.595400       0.873457
    14094.432700       0.871953
    14114.326000       0.870458
    14134.275600       0.868972
    14154.281700       0.867497
    14174.344400       0.866031
    14194.464200       0.864576
    14214.641100       0.863131
    14234.875400       0.861698
    14255.167500       0.860276
    14275.517500       0.858866
    14295.925700       0.857467
    14316.392300       0.856081
    14336.917600       0.854708
    14357.501800       0.853348
    14378.145200       0.852000
    14398.848100       0.850667
    14419.610700       0.849346
    14440.433200       0.848040
    14461.316000       0.846749
    14482.259200       0.845471
    14503.263200       0.844209
    14524.328200       0.842961
    14545.454500       0.841729
    14566.642400       0.840512
    14587.892000       0.839311
    14609.203800       0.838126
    14630.577900       0.836957
    14652.014700       0.835804
    14673.514300       0.834668
    14695.077100       0.833548
    14716.703500       0.832446
    14738.393500       0.831360
    14760.147600       0.830291
    14781.966000       0.829240
    14803.849000       0.828207
    14825.796900       0.827191
    14847.809900       0.826192
    14869.888500       0.825212
    14892.032800       0.824250
    14914.243100       0.823306
    14936.519800       0.822380
    14958.863100       0.821472
    14981.273400       0.820583
    15003.750900       0.819713
    15026.296000       0.818860
    15048.909000       0.818027
    15071.590100       0.817212
    15094.339600       0.816416
    15117.158000       0.815639
    15140.045400       0.814881
    15163.002300       0.814141
    15186.028900       0.813420
    15209.125500       0.812719
    15232.292500       0.812036
    15255.530100       0.811371
    15278.838800       0.810726
    15302.218800       0.810099
    15325.670500       0.809491
    15349.194200       0.808902
    15372.790200       0.808332
    15396.458800       0.807780
    15420.200500       0.807246
    15444.015400       0.806731
    15467.904100       0.806235
    15491.866800       0.805756
    15515.903800       0.805296
    15540.015500       0.804853
    15564.202300       0.804429
    15588.464500       0.804022
    15612.802500       0.803633
    15637.216600       0.803261
    15661.707100       0.802906
    15686.274500       0.802569
    15710.919100       0.802248
    15735.641200       0.801945
    15760.441300       0.801657
    15785.319700       0.801386
    15810.276700       0.801132
    15835.312700       0.800893
    15860.428200       0.800669
    15885.623500       0.800461
    15910.899000       0.800268
    15936.255000       0.800090
    15961.691900       0.799927
    15987.210200       0.799778
    16012.810200       0.799643
    16038.492400       0.799521
    16064.257000       0.799414
    16090.104600       0.799319
    16116.035500       0.799237
    16142.050000       0.799167
    16168.148700       0.799109
    16194.332000       0.799063
    16220.600200       0.799029
    16246.953700       0.799005
    16273.393000       0.798993
    16299.918500       0.798990
    16326.530600       0.798997
    16353.229800       0.799014
    16380.016400       0.799039
    16406.890900       0.799073
    16433.853700       0.799116
    16460.905300       0.799166
    16488.046200       0.799223
    16515.276600       0.799287
    16542.597200       0.799357
    16570.008300       0.799433
    16597.510400       0.799515
    16625.103900       0.799602
    16652.789300       0.799693
    16680.567100       0.799787
    16708.437800       0.799885
    16736.401700       0.799986
    16764.459300       0.800090
    16792.611300       0.800195
    16820.857900       0.800301
    16849.199700       0.800408
    16877.637100       0.800515
    16906.170800       0.800622
    16934.801000       0.800728
    16963.528400       0.800832
    16992.353400       0.800934
    17021.276600       0.801033
    17050.298400       0.801128
    17079.419300       0.801220
    17108.639900       0.801307
    17137.960600       0.801389
    17167.382000       0.801465
    17196.904600       0.801535
    17226.528900       0.801597
    17256.255400       0.801652
    17286.084700       0.801698
    17316.017300       0.801735
    17346.053800       0.801763
    17376.194600       0.801780
    17406.440400       0.801786
    17436.791600       0.801780
    17467.248900       0.801762
    17497.812800       0.801730
    17528.483800       0.801685
    17559.262500       0.801626
    17590.149500       0.801551
    17621.145400       0.801460
    17652.250700       0.801353
    17683.466000       0.801228
    17714.791900       0.801085
    17746.228900       0.800923
    17777.777800       0.800742
    17809.439000       0.800541
    17841.213200       0.800319
    17873.101000       0.800075
    17905.103000       0.799809
    17937.219700       0.799519
    17969.451900       0.799206
    18001.800200       0.798868
    18034.265100       0.798505
    18066.847300       0.798115
    18099.547500       0.797699
    18132.366300       0.797255
    18165.304300       0.796783
    18198.362100       0.796281
    18231.540600       0.795750
    18264.840200       0.795189
    18298.261700       0.794596
    18331.805700       0.793970
    18365.472900       0.793312
    18399.264000       0.792621
    18433.179700       0.791895
    18467.220700       0.791134
    18501.387600       0.790337
    18535.681200       0.789504
    18570.102100       0.788634
    18604.651200       0.787725
    18639.329000       0.786778
    18674.136300       0.785791
    18709.073900       0.784764
    18744.142500       0.783696
    18779.342700       0.782587
    18814.675400       0.781435
    18850.141400       0.780240
    18885.741300       0.779001
    18921.475900       0.777718
    18957.346000       0.776389
    18993.352300       0.775015
    19029.495700       0.773594
    19065.776900       0.772126
    19102.196800       0.770610
    19138.756000       0.769045
    19175.455400       0.767431
    19212.295900       0.765767
    19249.278200       0.764053
    19286.403100       0.762287
    19323.671500       0.760470
    19361.084200       0.758600
    19398.642100       0.756677
    19436.346000       0.754700
    19474.196700       0.752669
    19512.195100       0.750583
    19550.342100       0.748442
    19588.638600       0.746244
    19627.085400       0.743991
    19665.683400       0.741679
    19704.433500       0.739311
    19743.336600       0.736884
    19782.393700       0.734398
    19821.605600       0.731854
    19860.973200       0.729249
    19900.497500       0.726585
    19940.179500       0.723860
    19980.020000       0.721074
    20020.020000       0.718226
    20060.180500       0.715316
    20100.502500       0.712345
    20140.986900       0.709310
    20181.634700       0.706213
    20222.446900       0.703052
    20263.424500       0.699827
    20304.568500       0.696538
    20345.880000       0.693185
    20387.359800       0.689768
    20429.009200       0.686285
    20470.829100       0.682738
    20512.820500       0.679125
    20554.984600       0.675446
    20597.322300       0.671702
    20639.834900       0.667891
    20682.523300       0.664015
    20725.388600       0.660072
    20768.432000       0.656063
    20811.654500       0.651988
    20855.057400       0.647846
    20898.641600       0.643638
    20942.408400       0.639363
    20986.358900       0.635022
    21030.494200       0.630614
    21074.815600       0.626140
    21119.324200       0.621600
    21164.021200       0.616994
    21208.907700       0.612321
    21253.985100       0.607582
    21299.254500       0.602778
    21344.717200       0.597908
    21390.374300       0.592973
    21436.227200       0.587974
    21482.277100       0.582909
    21528.525300       0.577780
    21574.973000       0.572587
    21621.621600       0.567331
    21668.472400       0.562011
    21715.526600       0.556628
    21762.785600       0.551184
    21810.250800       0.545677
    21857.923500       0.540110
    21905.805000       0.534482
    21953.896800       0.528794
    22002.200200       0.523047
    22050.716600       0.517241
    22099.447500       0.511377
    22148.394200       0.505456
    22197.558300       0.499479
    22246.941000       0.493446
    22296.544000       0.487359
    22346.368700       0.481217
    22396.416600       0.475023
    22446.689100       0.468778
    22497.187900       0.462481
    22547.914300       0.456135
    22598.870100       0.449740
    22650.056600       0.443298
    22701.475600       0.436809
    22753.128600       0.430275
    22805.017100       0.423698
    22857.142900       0.417078
    22909.507400       0.410417
    22962.112500       0.403716
    23014.959700       0.396977
    23068.050700       0.390201
    23121.387300       0.383390
    23174.971000       0.376545
    23228.803700       0.369669
    23282.887100       0.362762
    23337.222900       0.355826
    23391.812900       0.348863
    23446.658900       0.341876
    23501.762600       0.334865
    23557.126000       0.327833
    23612.750900       0.320782
    23668.639100       0.313713
    23724.792400       0.306630
    23781.212800       0.299533
    23837.902300       0.292426
    23894.862600       0.285310
    23952.095800       0.278187
    24009.603800       0.271061
    24067.388700       0.263933
    24125.452400       0.256806
    24183.796900       0.249683
    24242.424200       0.242565
    24301.336600       0.235457
    24360.535900       0.228359
    24420.024400       0.221276
    24479.804200       0.214209
    24539.877300       0.207162
    24600.246000       0.200138
    24660.912500       0.193140
    24721.878900       0.186170
    24783.147500       0.179232
    24844.720500       0.172329
    24906.600200       0.165464
    24968.789000       0.158641
    25031.289100       0.151863
    25094.102900       0.145133
    25157.232700       0.138454
    25220.681000       0.131832
    25284.450100       0.125268
    25348.542500       0.118767
    25412.960600       0.112333
    25477.707000       0.105969
