2,   2, MVIRI VIS channel from srf_MET5_1991168_1991169_1801-Release_S10EL_10.dat
Number of data points:
806
Wavenumber (cm-1)   Filter response
     8350.730700       0.000000
     8357.710000       0.000000
     8364.701000       0.000000
     8371.703600       0.000001
     8378.718100       0.000004
     8385.744200       0.000009
     8392.782200       0.000016
     8399.832000       0.000026
     8406.893700       0.000040
     8413.967200       0.000057
     8421.052600       0.000080
     8428.150000       0.000107
     8435.259400       0.000139
     8442.380800       0.000178
     8449.514200       0.000223
     8456.659600       0.000274
     8463.817200       0.000332
     8470.986900       0.000398
     8478.168700       0.000471
     8485.362700       0.000552
     8492.569000       0.000642
     8499.787500       0.000741
     8507.018300       0.000848
     8514.261400       0.000965
     8521.516800       0.001092
     8528.784600       0.001228
     8536.064900       0.001374
     8543.357500       0.001531
     8550.662700       0.001699
     8557.980300       0.001878
     8565.310500       0.002067
     8572.653200       0.002268
     8580.008600       0.002481
     8587.376600       0.002706
     8594.757200       0.002942
     8602.150500       0.003191
     8609.556600       0.003453
     8616.975400       0.003727
     8624.407100       0.004014
     8631.851500       0.004313
     8639.308900       0.004626
     8646.779100       0.004953
     8654.262200       0.005293
     8661.758300       0.005646
     8669.267400       0.006014
     8676.789600       0.006396
     8684.324800       0.006791
     8691.873100       0.007201
     8699.434500       0.007626
     8707.009100       0.008065
     8714.596900       0.008519
     8722.198000       0.008988
     8729.812300       0.009471
     8737.439900       0.009970
     8745.080900       0.010485
     8752.735200       0.011014
     8760.403000       0.011560
     8768.084200       0.012120
     8775.778900       0.012697
     8783.487000       0.013290
     8791.208800       0.013898
     8798.944100       0.014523
     8806.693100       0.015164
     8814.455700       0.015821
     8822.232000       0.016495
     8830.022100       0.017186
     8837.825900       0.017893
     8845.643500       0.018617
     8853.475000       0.019358
     8861.320300       0.020116
     8869.179600       0.020892
     8877.052800       0.021684
     8884.940000       0.022494
     8892.841300       0.023321
     8900.756600       0.024167
     8908.686000       0.025029
     8916.629500       0.025910
     8924.587200       0.026808
     8932.559200       0.027724
     8940.545400       0.028659
     8948.545900       0.029612
     8956.560700       0.030583
     8964.589900       0.031572
     8972.633500       0.032580
     8980.691500       0.033607
     8988.764000       0.034653
     8996.851100       0.035717
     9004.952700       0.036800
     9013.068900       0.037902
     9021.199800       0.039024
     9029.345400       0.040164
     9037.505600       0.041324
     9045.680700       0.042504
     9053.870500       0.043703
     9062.075200       0.044922
     9070.294800       0.046160
     9078.529300       0.047418
     9086.778700       0.048696
     9095.043200       0.049995
     9103.322700       0.051313
     9111.617300       0.052652
     9119.927000       0.054011
     9128.251900       0.055390
     9136.592100       0.056790
     9144.947400       0.058210
     9153.318100       0.059652
     9161.704100       0.061113
     9170.105500       0.062596
     9178.522300       0.064100
     9186.954500       0.065625
     9195.402300       0.067171
     9203.865600       0.068738
     9212.344500       0.070327
     9220.839100       0.071937
     9229.349300       0.073569
     9237.875300       0.075222
     9246.417000       0.076897
     9254.974500       0.078593
     9263.547900       0.080312
     9272.137200       0.082052
     9280.742500       0.083815
     9289.363700       0.085599
     9298.000900       0.087405
     9306.654300       0.089234
     9315.323700       0.091085
     9324.009300       0.092959
     9332.711200       0.094855
     9341.429200       0.096773
     9350.163600       0.098714
     9358.914400       0.100677
     9367.681500       0.102663
     9376.465100       0.104672
     9385.265100       0.106704
     9394.081700       0.108758
     9402.914900       0.110835
     9411.764700       0.112936
     9420.631200       0.115059
     9429.514400       0.117205
     9438.414300       0.119375
     9447.331100       0.121567
     9456.264800       0.123783
     9465.215300       0.126022
     9474.182900       0.128284
     9483.167400       0.130569
     9492.169000       0.132878
     9501.187600       0.135210
     9510.223500       0.137565
     9519.276500       0.139944
     9528.346800       0.142346
     9537.434400       0.144771
     9546.539400       0.147220
     9555.661700       0.149692
     9564.801500       0.152187
     9573.958800       0.154706
     9583.133700       0.157249
     9592.326100       0.159814
     9601.536200       0.162403
     9610.764100       0.165016
     9620.009600       0.167651
     9629.273000       0.170311
     9638.554200       0.172993
     9647.853400       0.175699
     9657.170400       0.178428
     9666.505600       0.181180
     9675.858700       0.183955
     9685.230000       0.186754
     9694.619500       0.189575
     9704.027200       0.192420
     9713.453100       0.195288
     9722.897400       0.198179
     9732.360100       0.201092
     9741.841200       0.204028
     9751.340800       0.206987
     9760.859000       0.209969
     9770.395700       0.212974
     9779.951100       0.216001
     9789.525200       0.219050
     9799.118100       0.222122
     9808.729800       0.225216
     9818.360300       0.228333
     9828.009800       0.231471
     9837.678300       0.234632
     9847.365800       0.237814
     9857.072400       0.241018
     9866.798200       0.244244
     9876.543200       0.247491
     9886.307500       0.250760
     9896.091000       0.254050
     9905.894000       0.257361
     9915.716400       0.260693
     9925.558300       0.264046
     9935.419800       0.267420
     9945.300800       0.270815
     9955.201600       0.274230
     9965.122100       0.277665
     9975.062300       0.281121
     9985.022500       0.284596
     9995.002500       0.288092
    10005.002500       0.291606
    10015.022500       0.295141
    10025.062700       0.298694
    10035.122900       0.302267
    10045.203400       0.305859
    10055.304200       0.309469
    10065.425300       0.313098
    10075.566800       0.316745
    10085.728700       0.320411
    10095.911200       0.324094
    10106.114200       0.327795
    10116.337900       0.331513
    10126.582300       0.335249
    10136.847400       0.339002
    10147.133400       0.342772
    10157.440300       0.346558
    10167.768200       0.350360
    10178.117000       0.354179
    10188.487000       0.358013
    10198.878100       0.361863
    10209.290500       0.365729
    10219.724100       0.369609
    10230.179000       0.373505
    10240.655400       0.377415
    10251.153300       0.381339
    10261.672700       0.385277
    10272.213700       0.389229
    10282.776300       0.393195
    10293.360800       0.397174
    10303.967000       0.401165
    10314.595200       0.405169
    10325.245200       0.409186
    10335.917300       0.413215
    10346.611500       0.417255
    10357.327800       0.421307
    10368.066400       0.425370
    10378.827200       0.429444
    10389.610400       0.433528
    10400.416000       0.437623
    10411.244100       0.441727
    10422.094800       0.445841
    10432.968200       0.449964
    10443.864200       0.454097
    10454.783100       0.458237
    10465.724800       0.462386
    10476.689400       0.466543
    10487.677000       0.470707
    10498.687700       0.474879
    10509.721500       0.479057
    10520.778500       0.483242
    10531.858900       0.487434
    10542.962600       0.491631
    10554.089700       0.495833
    10565.240400       0.500041
    10576.414600       0.504253
    10587.612500       0.508470
    10598.834100       0.512691
    10610.079600       0.516916
    10621.348900       0.521143
    10632.642200       0.525374
    10643.959600       0.529608
    10655.301000       0.533843
    10666.666700       0.538080
    10678.056600       0.542319
    10689.470900       0.546559
    10700.909600       0.550800
    10712.372800       0.555040
    10723.860600       0.559281
    10735.373100       0.563521
    10746.910300       0.567761
    10758.472300       0.571999
    10770.059200       0.576236
    10781.671200       0.580470
    10793.308100       0.584702
    10804.970300       0.588932
    10816.657700       0.593158
    10828.370300       0.597380
    10840.108400       0.601599
    10851.871900       0.605813
    10863.661100       0.610022
    10875.475800       0.614227
    10887.316300       0.618425
    10899.182600       0.622618
    10911.074700       0.626804
    10922.992900       0.630984
    10934.937100       0.635156
    10946.907500       0.639321
    10958.904100       0.643478
    10970.927000       0.647627
    10982.976400       0.651767
    10995.052200       0.655898
    11007.154700       0.660019
    11019.283700       0.664131
    11031.439600       0.668232
    11043.622300       0.672322
    11055.832000       0.676401
    11068.068600       0.680469
    11080.332400       0.684525
    11092.623400       0.688569
    11104.941700       0.692600
    11117.287400       0.696618
    11129.660500       0.700622
    11142.061300       0.704613
    11154.489700       0.708589
    11166.945800       0.712551
    11179.429800       0.716498
    11191.941800       0.720430
    11204.481800       0.724346
    11217.049900       0.728245
    11229.646300       0.732128
    11242.270900       0.735995
    11254.924000       0.739844
    11267.605600       0.743675
    11280.315800       0.747489
    11293.054800       0.751284
    11305.822500       0.755060
    11318.619100       0.758818
    11331.444800       0.762556
    11344.299500       0.766274
    11357.183400       0.769972
    11370.096600       0.773650
    11383.039300       0.777306
    11396.011400       0.780942
    11409.013100       0.784556
    11422.044500       0.788148
    11435.105800       0.791718
    11448.196900       0.795266
    11461.318100       0.798790
    11474.469300       0.802291
    11487.650800       0.805769
    11500.862600       0.809224
    11514.104800       0.812653
    11527.377500       0.816059
    11540.680900       0.819439
    11554.015000       0.822795
    11567.380000       0.826125
    11580.775900       0.829429
    11594.202900       0.832708
    11607.661100       0.835960
    11621.150500       0.839186
    11634.671300       0.842384
    11648.223600       0.845556
    11661.807600       0.848700
    11675.423200       0.851817
    11689.070700       0.854905
    11702.750100       0.857966
    11716.461600       0.860998
    11730.205300       0.864001
    11743.981200       0.866975
    11757.789500       0.869920
    11771.630400       0.872835
    11785.503800       0.875721
    11799.410000       0.878577
    11813.349100       0.881403
    11827.321100       0.884198
    11841.326200       0.886963
    11855.364600       0.889697
    11869.436200       0.892400
    11883.541300       0.895071
    11897.680000       0.897712
    11911.852300       0.900320
    11926.058400       0.902897
    11940.298500       0.905442
    11954.572600       0.907955
    11968.880900       0.910435
    11983.223500       0.912883
    11997.600500       0.915299
    12012.012000       0.917681
    12026.458200       0.920031
    12040.939200       0.922347
    12055.455100       0.924630
    12070.006000       0.926880
    12084.592100       0.929097
    12099.213600       0.931279
    12113.870400       0.933428
    12128.562800       0.935543
    12143.290800       0.937625
    12158.054700       0.939672
    12172.854500       0.941685
    12187.690400       0.943664
    12202.562500       0.945608
    12217.471000       0.947518
    12232.415900       0.949394
    12247.397400       0.951235
    12262.415700       0.953041
    12277.470800       0.954813
    12292.563000       0.956550
    12307.692300       0.958253
    12322.858900       0.959921
    12338.062900       0.961553
    12353.304500       0.963152
    12368.583800       0.964715
    12383.900900       0.966243
    12399.256000       0.967737
    12414.649300       0.969196
    12430.080800       0.970620
    12445.550700       0.972009
    12461.059200       0.973364
    12476.606400       0.974683
    12492.192400       0.975968
    12507.817400       0.977218
    12523.481500       0.978434
    12539.185000       0.979615
    12554.927800       0.980761
    12570.710200       0.981873
    12586.532400       0.982951
    12602.394500       0.983994
    12618.296500       0.985003
    12634.238800       0.985977
    12650.221400       0.986918
    12666.244500       0.987825
    12682.308200       0.988698
    12698.412700       0.989537
    12714.558200       0.990342
    12730.744700       0.991114
    12746.972600       0.991852
    12763.241900       0.992558
    12779.552700       0.993230
    12795.905300       0.993869
    12812.299800       0.994475
    12828.736400       0.995049
    12845.215200       0.995590
    12861.736300       0.996099
    12878.300100       0.996575
    12894.906500       0.997020
    12911.555800       0.997433
    12928.248200       0.997814
    12944.983800       0.998164
    12961.762800       0.998482
    12978.585300       0.998770
    12995.451600       0.999027
    13012.361700       0.999253
    13029.316000       0.999449
    13046.314400       0.999614
    13063.357300       0.999750
    13080.444700       0.999857
    13097.576900       0.999933
    13114.754100       0.999981
    13131.976400       1.000000
    13149.243900       0.999990
    13166.556900       0.999952
    13183.915600       0.999886
    13201.320100       0.999792
    13218.770700       0.999670
    13236.267400       0.999521
    13253.810500       0.999345
    13271.400100       0.999143
    13289.036500       0.998914
    13306.719900       0.998659
    13324.450400       0.998378
    13342.228200       0.998072
    13360.053400       0.997741
    13377.926400       0.997385
    13395.847300       0.997004
    13413.816200       0.996599
    13431.833400       0.996170
    13449.899100       0.995718
    13468.013500       0.995243
    13486.176700       0.994745
    13504.388900       0.994224
    13522.650400       0.993682
    13540.961400       0.993117
    13559.322000       0.992531
    13577.732500       0.991924
    13596.193100       0.991297
    13614.703900       0.990649
    13633.265200       0.989981
    13651.877100       0.989293
    13670.540000       0.988587
    13689.253900       0.987861
    13708.019200       0.987117
    13726.836000       0.986356
    13745.704500       0.985576
    13764.624900       0.984779
    13783.597500       0.983965
    13802.622500       0.983135
    13821.700100       0.982289
    13840.830400       0.981427
    13860.013900       0.980549
    13879.250500       0.979657
    13898.540700       0.978751
    13917.884500       0.977830
    13937.282200       0.976895
    13956.734100       0.975948
    13976.240400       0.974987
    13995.801300       0.974014
    14015.417000       0.973029
    14035.087700       0.972032
    14054.813800       0.971025
    14074.595400       0.970006
    14094.432700       0.968977
    14114.326000       0.967938
    14134.275600       0.966890
    14154.281700       0.965832
    14174.344400       0.964766
    14194.464200       0.963691
    14214.641100       0.962609
    14234.875400       0.961519
    14255.167500       0.960422
    14275.517500       0.959319
    14295.925700       0.958209
    14316.392300       0.957094
    14336.917600       0.955973
    14357.501800       0.954847
    14378.145200       0.953717
    14398.848100       0.952583
    14419.610700       0.951445
    14440.433200       0.950303
    14461.316000       0.949159
    14482.259200       0.948013
    14503.263200       0.946864
    14524.328200       0.945714
    14545.454500       0.944562
    14566.642400       0.943410
    14587.892000       0.942257
    14609.203800       0.941104
    14630.577900       0.939951
    14652.014700       0.938800
    14673.514300       0.937649
    14695.077100       0.936500
    14716.703500       0.935352
    14738.393500       0.934208
    14760.147600       0.933065
    14781.966000       0.931926
    14803.849000       0.930790
    14825.796900       0.929658
    14847.809900       0.928530
    14869.888500       0.927407
    14892.032800       0.926288
    14914.243100       0.925175
    14936.519800       0.924068
    14958.863100       0.922966
    14981.273400       0.921870
    15003.750900       0.920781
    15026.296000       0.919700
    15048.909000       0.918625
    15071.590100       0.917558
    15094.339600       0.916499
    15117.158000       0.915448
    15140.045400       0.914406
    15163.002300       0.913372
    15186.028900       0.912348
    15209.125500       0.911333
    15232.292500       0.910328
    15255.530100       0.909332
    15278.838800       0.908347
    15302.218800       0.907373
    15325.670500       0.906410
    15349.194200       0.905457
    15372.790200       0.904516
    15396.458800       0.903587
    15420.200500       0.902669
    15444.015400       0.901763
    15467.904100       0.900870
    15491.866800       0.899989
    15515.903800       0.899121
    15540.015500       0.898265
    15564.202300       0.897423
    15588.464500       0.896594
    15612.802500       0.895779
    15637.216600       0.894977
    15661.707100       0.894189
    15686.274500       0.893416
    15710.919100       0.892656
    15735.641200       0.891910
    15760.441300       0.891179
    15785.319700       0.890463
    15810.276700       0.889761
    15835.312700       0.889074
    15860.428200       0.888402
    15885.623500       0.887745
    15910.899000       0.887103
    15936.255000       0.886476
    15961.691900       0.885864
    15987.210200       0.885268
    16012.810200       0.884687
    16038.492400       0.884121
    16064.257000       0.883571
    16090.104600       0.883036
    16116.035500       0.882517
    16142.050000       0.882013
    16168.148700       0.881525
    16194.332000       0.881052
    16220.600200       0.880594
    16246.953700       0.880152
    16273.393000       0.879726
    16299.918500       0.879314
    16326.530600       0.878918
    16353.229800       0.878537
    16380.016400       0.878171
    16406.890900       0.877820
    16433.853700       0.877484
    16460.905300       0.877162
    16488.046200       0.876856
    16515.276600       0.876564
    16542.597200       0.876286
    16570.008300       0.876022
    16597.510400       0.875773
    16625.103900       0.875537
    16652.789300       0.875315
    16680.567100       0.875107
    16708.437800       0.874912
    16736.401700       0.874730
    16764.459300       0.874561
    16792.611300       0.874404
    16820.857900       0.874260
    16849.199700       0.874128
    16877.637100       0.874008
    16906.170800       0.873899
    16934.801000       0.873802
    16963.528400       0.873715
    16992.353400       0.873640
    17021.276600       0.873574
    17050.298400       0.873519
    17079.419300       0.873473
    17108.639900       0.873436
    17137.960600       0.873409
    17167.382000       0.873390
    17196.904600       0.873379
    17226.528900       0.873375
    17256.255400       0.873379
    17286.084700       0.873390
    17316.017300       0.873408
    17346.053800       0.873431
    17376.194600       0.873460
    17406.440400       0.873494
    17436.791600       0.873533
    17467.248900       0.873575
    17497.812800       0.873622
    17528.483800       0.873671
    17559.262500       0.873723
    17590.149500       0.873777
    17621.145400       0.873833
    17652.250700       0.873889
    17683.466000       0.873946
    17714.791900       0.874003
    17746.228900       0.874059
    17777.777800       0.874113
    17809.439000       0.874166
    17841.213200       0.874216
    17873.101000       0.874262
    17905.103000       0.874305
    17937.219700       0.874343
    17969.451900       0.874376
    18001.800200       0.874404
    18034.265100       0.874424
    18066.847300       0.874438
    18099.547500       0.874443
    18132.366300       0.874440
    18165.304300       0.874427
    18198.362100       0.874405
    18231.540600       0.874372
    18264.840200       0.874327
    18298.261700       0.874269
    18331.805700       0.874199
    18365.472900       0.874115
    18399.264000       0.874016
    18433.179700       0.873902
    18467.220700       0.873771
    18501.387600       0.873624
    18535.681200       0.873458
    18570.102100       0.873274
    18604.651200       0.873071
    18639.329000       0.872847
    18674.136300       0.872602
    18709.073900       0.872335
    18744.142500       0.872045
    18779.342700       0.871732
    18814.675400       0.871393
    18850.141400       0.871029
    18885.741300       0.870639
    18921.475900       0.870222
    18957.346000       0.869776
    18993.352300       0.869301
    19029.495700       0.868796
    19065.776900       0.868260
    19102.196800       0.867693
    19138.756000       0.867092
    19175.455400       0.866458
    19212.295900       0.865789
    19249.278200       0.865085
    19286.403100       0.864343
    19323.671500       0.863565
    19361.084200       0.862748
    19398.642100       0.861891
    19436.346000       0.860995
    19474.196700       0.860056
    19512.195100       0.859076
    19550.342100       0.858052
    19588.638600       0.856984
    19627.085400       0.855871
    19665.683400       0.854711
    19704.433500       0.853505
    19743.336600       0.852250
    19782.393700       0.850946
    19821.605600       0.849592
    19860.973200       0.848187
    19900.497500       0.846729
    19940.179500       0.845219
    19980.020000       0.843654
    20020.020000       0.842035
    20060.180500       0.840359
    20100.502500       0.838627
    20140.986900       0.836836
    20181.634700       0.834987
    20222.446900       0.833077
    20263.424500       0.831107
    20304.568500       0.829075
    20345.880000       0.826980
    20387.359800       0.824821
    20429.009200       0.822597
    20470.829100       0.820308
    20512.820500       0.817952
    20554.984600       0.815529
    20597.322300       0.813037
    20639.834900       0.810476
    20682.523300       0.807844
    20725.388600       0.805141
    20768.432000       0.802366
    20811.654500       0.799518
    20855.057400       0.796596
    20898.641600       0.793599
    20942.408400       0.790526
    20986.358900       0.787377
    21030.494200       0.784150
    21074.815600       0.780845
    21119.324200       0.777461
    21164.021200       0.773997
    21208.907700       0.770453
    21253.985100       0.766826
    21299.254500       0.763118
    21344.717200       0.759326
    21390.374300       0.755450
    21436.227200       0.751490
    21482.277100       0.747444
    21528.525300       0.743313
    21574.973000       0.739094
    21621.621600       0.734788
    21668.472400       0.730394
    21715.526600       0.725911
    21762.785600       0.721339
    21810.250800       0.716677
    21857.923500       0.711924
    21905.805000       0.707079
    21953.896800       0.702143
    22002.200200       0.697115
    22050.716600       0.691994
    22099.447500       0.686779
    22148.394200       0.681471
    22197.558300       0.676068
    22246.941000       0.670570
    22296.544000       0.664978
    22346.368700       0.659289
    22396.416600       0.653505
    22446.689100       0.647625
    22497.187900       0.641648
    22547.914300       0.635574
    22598.870100       0.629402
    22650.056600       0.623134
    22701.475600       0.616768
    22753.128600       0.610304
    22805.017100       0.603742
    22857.142900       0.597082
    22909.507400       0.590324
    22962.112500       0.583468
    23014.959700       0.576513
    23068.050700       0.569460
    23121.387300       0.562309
    23174.971000       0.555060
    23228.803700       0.547712
    23282.887100       0.540267
    23337.222900       0.532724
    23391.812900       0.525083
    23446.658900       0.517345
    23501.762600       0.509510
    23557.126000       0.501578
    23612.750900       0.493550
    23668.639100       0.485425
    23724.792400       0.477205
    23781.212800       0.468890
    23837.902300       0.460480
    23894.862600       0.451976
    23952.095800       0.443378
    24009.603800       0.434688
    24067.388700       0.425905
    24125.452400       0.417031
    24183.796900       0.408067
    24242.424200       0.399012
    24301.336600       0.389868
    24360.535900       0.380636
    24420.024400       0.371317
    24479.804200       0.361911
    24539.877300       0.352421
    24600.246000       0.342846
    24660.912500       0.333189
    24721.878900       0.323449
    24783.147500       0.313629
    24844.720500       0.303730
    24906.600200       0.293753
    24968.789000       0.283700
    25031.289100       0.273572
    25094.102900       0.263370
    25157.232700       0.253096
    25220.681000       0.242752
    25284.450100       0.232339
    25348.542500       0.221860
    25412.960600       0.211315
    25477.707000       0.200708
