   5  ,noaa_16_hirs_05.flt
Number of data points:
82
Wavenumber (cm-1)   Filter response
      694.000000       0.000000
      698.390000       0.014437
      698.830000       0.015822
      699.140000       0.017198
      699.520000       0.017266
      699.830000       0.021315
      700.340000       0.026769
      700.780000       0.030914
      701.340000       0.037840
      701.660000       0.044733
      702.220000       0.053156
      702.720000       0.061632
      703.100000       0.068728
      703.410000       0.082724
      703.670000       0.098128
      704.040000       0.117900
      704.360000       0.137740
      704.740000       0.160560
      704.990000       0.180520
      705.300000       0.203410
      705.680000       0.237720
      706.120000       0.286450
      706.690000       0.352770
      707.070000       0.411990
      707.640000       0.490730
      708.270000       0.574660
      708.840000       0.659060
      709.220000       0.708480
      709.530000       0.750560
      710.100000       0.800090
      710.540000       0.843420
      710.980000       0.876800
      711.170000       0.894090
      711.550000       0.911190
      711.990000       0.924390
      712.300000       0.935330
      712.740000       0.948650
      713.180000       0.956100
      713.680000       0.965520
      714.310000       0.977370
      714.880000       0.987350
      715.310000       0.995070
      715.570000       1.000000
      715.880000       0.996340
      716.190000       0.995690
      716.570000       0.994160
      716.880000       0.993640
      717.390000       0.996080
      717.890000       0.992350
      718.260000       0.982930
      718.580000       0.974460
      719.020000       0.969990
      719.460000       0.959240
      719.770000       0.947380
      720.210000       0.931340
      720.650000       0.913460
      721.150000       0.887950
      721.650000       0.863840
      722.150000       0.826900
      722.650000       0.780190
      723.210000       0.727080
      723.900000       0.653300
      724.650000       0.567840
      725.330000       0.479760
      726.210000       0.391300
      726.960000       0.300040
      727.580000       0.240610
      728.270000       0.193950
      728.770000       0.164850
      729.210000       0.147090
      729.460000       0.120820
      730.150000       0.094716
      730.900000       0.075102
      731.400000       0.056909
      731.970000       0.045339
      732.660000       0.040459
      733.350000       0.033830
      733.980000       0.028843
      734.160000       0.030568
      734.290000       0.023790
      734.420000       0.018703
      738.000000       0.000000
