115,   115, MVIRI VIS channel from srf_MET7_2011348_2011349_1801-Release_S10EE_10.dat
Number of data points:
793
Wavenumber (cm-1)   Filter response
     8442.380800       0.000000
     8449.514200       0.000000
     8456.659600       0.000004
     8463.817200       0.000056
     8470.986900       0.000167
     8478.168700       0.000334
     8485.362700       0.000556
     8492.569000       0.000831
     8499.787500       0.001158
     8507.018300       0.001536
     8514.261400       0.001962
     8521.516800       0.002435
     8528.784600       0.002954
     8536.064900       0.003518
     8543.357500       0.004126
     8550.662700       0.004776
     8557.980300       0.005467
     8565.310500       0.006198
     8572.653200       0.006968
     8580.008600       0.007776
     8587.376600       0.008620
     8594.757200       0.009501
     8602.150500       0.010417
     8609.556600       0.011367
     8616.975400       0.012350
     8624.407100       0.013366
     8631.851500       0.014413
     8639.308900       0.015492
     8646.779100       0.016601
     8654.262200       0.017739
     8661.758300       0.018907
     8669.267400       0.020103
     8676.789600       0.021327
     8684.324800       0.022578
     8691.873100       0.023856
     8699.434500       0.025160
     8707.009100       0.026491
     8714.596900       0.027846
     8722.198000       0.029227
     8729.812300       0.030632
     8737.439900       0.032061
     8745.080900       0.033515
     8752.735200       0.034991
     8760.403000       0.036492
     8768.084200       0.038015
     8775.778900       0.039560
     8783.487000       0.041129
     8791.208800       0.042719
     8798.944100       0.044332
     8806.693100       0.045967
     8814.455700       0.047623
     8822.232000       0.049301
     8830.022100       0.051000
     8837.825900       0.052721
     8845.643500       0.054463
     8853.475000       0.056225
     8861.320300       0.058009
     8869.179600       0.059814
     8877.052800       0.061640
     8884.940000       0.063486
     8892.841300       0.065353
     8900.756600       0.067241
     8908.686000       0.069150
     8916.629500       0.071080
     8924.587200       0.073030
     8932.559200       0.075001
     8940.545400       0.076993
     8948.545900       0.079005
     8956.560700       0.081038
     8964.589900       0.083093
     8972.633500       0.085167
     8980.691500       0.087263
     8988.764000       0.089381
     8996.851100       0.091518
     9004.952700       0.093678
     9013.068900       0.095858
     9021.199800       0.098059
     9029.345400       0.100282
     9037.505600       0.102527
     9045.680700       0.104792
     9053.870500       0.107080
     9062.075200       0.109389
     9070.294800       0.111719
     9078.529300       0.114072
     9086.778700       0.116446
     9095.043200       0.118843
     9103.322700       0.121261
     9111.617300       0.123702
     9119.927000       0.126165
     9128.251900       0.128650
     9136.592100       0.131158
     9144.947400       0.133688
     9153.318100       0.136241
     9161.704100       0.138817
     9170.105500       0.141415
     9178.522300       0.144036
     9186.954500       0.146680
     9195.402300       0.149348
     9203.865600       0.152038
     9212.344500       0.154751
     9220.839100       0.157488
     9229.349300       0.160248
     9237.875300       0.163031
     9246.417000       0.165837
     9254.974500       0.168668
     9263.547900       0.171521
     9272.137200       0.174398
     9280.742500       0.177299
     9289.363700       0.180223
     9298.000900       0.183171
     9306.654300       0.186143
     9315.323700       0.189138
     9324.009300       0.192158
     9332.711200       0.195201
     9341.429200       0.198267
     9350.163600       0.201358
     9358.914400       0.204472
     9367.681500       0.207610
     9376.465100       0.210771
     9385.265100       0.213956
     9394.081700       0.217165
     9402.914900       0.220398
     9411.764700       0.223654
     9420.631200       0.226934
     9429.514400       0.230237
     9438.414300       0.233564
     9447.331100       0.236914
     9456.264800       0.240288
     9465.215300       0.243685
     9474.182900       0.247105
     9483.167400       0.250548
     9492.169000       0.254014
     9501.187600       0.257503
     9510.223500       0.261015
     9519.276500       0.264549
     9528.346800       0.268107
     9537.434400       0.271687
     9546.539400       0.275288
     9555.661700       0.278912
     9564.801500       0.282558
     9573.958800       0.286226
     9583.133700       0.289916
     9592.326100       0.293627
     9601.536200       0.297360
     9610.764100       0.301114
     9620.009600       0.304889
     9629.273000       0.308685
     9638.554200       0.312501
     9647.853400       0.316338
     9657.170400       0.320195
     9666.505600       0.324073
     9675.858700       0.327970
     9685.230000       0.331886
     9694.619500       0.335822
     9704.027200       0.339777
     9713.453100       0.343751
     9722.897400       0.347744
     9732.360100       0.351755
     9741.841200       0.355784
     9751.340800       0.359830
     9760.859000       0.363895
     9770.395700       0.367976
     9779.951100       0.372075
     9789.525200       0.376190
     9799.118100       0.380322
     9808.729800       0.384469
     9818.360300       0.388633
     9828.009800       0.392811
     9837.678300       0.397006
     9847.365800       0.401214
     9857.072400       0.405437
     9866.798200       0.409675
     9876.543200       0.413926
     9886.307500       0.418190
     9896.091000       0.422468
     9905.894000       0.426758
     9915.716400       0.431061
     9925.558300       0.435376
     9935.419800       0.439702
     9945.300800       0.444040
     9955.201600       0.448388
     9965.122100       0.452747
     9975.062300       0.457116
     9985.022500       0.461494
     9995.002500       0.465883
    10005.002500       0.470279
    10015.022500       0.474685
    10025.062700       0.479098
    10035.122900       0.483519
    10045.203400       0.487947
    10055.304200       0.492383
    10065.425300       0.496824
    10075.566800       0.501272
    10085.728700       0.505725
    10095.911200       0.510183
    10106.114200       0.514646
    10116.337900       0.519113
    10126.582300       0.523584
    10136.847400       0.528058
    10147.133400       0.532535
    10157.440300       0.537015
    10167.768200       0.541496
    10178.117000       0.545979
    10188.487000       0.550464
    10198.878100       0.554949
    10209.290500       0.559434
    10219.724100       0.563918
    10230.179000       0.568402
    10240.655400       0.572885
    10251.153300       0.577366
    10261.672700       0.581845
    10272.213700       0.586322
    10282.776300       0.590795
    10293.360800       0.595265
    10303.967000       0.599730
    10314.595200       0.604191
    10325.245200       0.608648
    10335.917300       0.613098
    10346.611500       0.617543
    10357.327800       0.621982
    10368.066400       0.626413
    10378.827200       0.630837
    10389.610400       0.635254
    10400.416000       0.639661
    10411.244100       0.644061
    10422.094800       0.648450
    10432.968200       0.652831
    10443.864200       0.657201
    10454.783100       0.661560
    10465.724800       0.665908
    10476.689400       0.670245
    10487.677000       0.674569
    10498.687700       0.678881
    10509.721500       0.683180
    10520.778500       0.687465
    10531.858900       0.691737
    10542.962600       0.695994
    10554.089700       0.700236
    10565.240400       0.704463
    10576.414600       0.708673
    10587.612500       0.712868
    10598.834100       0.717046
    10610.079600       0.721207
    10621.348900       0.725350
    10632.642200       0.729475
    10643.959600       0.733581
    10655.301000       0.737669
    10666.666700       0.741737
    10678.056600       0.745785
    10689.470900       0.749813
    10700.909600       0.753821
    10712.372800       0.757807
    10723.860600       0.761771
    10735.373100       0.765714
    10746.910300       0.769634
    10758.472300       0.773531
    10770.059200       0.777405
    10781.671200       0.781256
    10793.308100       0.785082
    10804.970300       0.788884
    10816.657700       0.792661
    10828.370300       0.796413
    10840.108400       0.800139
    10851.871900       0.803839
    10863.661100       0.807513
    10875.475800       0.811160
    10887.316300       0.814780
    10899.182600       0.818372
    10911.074700       0.821936
    10922.992900       0.825473
    10934.937100       0.828980
    10946.907500       0.832458
    10958.904100       0.835908
    10970.927000       0.839327
    10982.976400       0.842717
    10995.052200       0.846076
    11007.154700       0.849405
    11019.283700       0.852702
    11031.439600       0.855969
    11043.622300       0.859204
    11055.832000       0.862406
    11068.068600       0.865577
    11080.332400       0.868715
    11092.623400       0.871821
    11104.941700       0.874893
    11117.287400       0.877932
    11129.660500       0.880938
    11142.061300       0.883909
    11154.489700       0.886847
    11166.945800       0.889750
    11179.429800       0.892618
    11191.941800       0.895452
    11204.481800       0.898250
    11217.049900       0.901013
    11229.646300       0.903740
    11242.270900       0.906432
    11254.924000       0.909088
    11267.605600       0.911707
    11280.315800       0.914290
    11293.054800       0.916837
    11305.822500       0.919346
    11318.619100       0.921819
    11331.444800       0.924255
    11344.299500       0.926653
    11357.183400       0.929014
    11370.096600       0.931337
    11383.039300       0.933622
    11396.011400       0.935870
    11409.013100       0.938079
    11422.044500       0.940250
    11435.105800       0.942383
    11448.196900       0.944477
    11461.318100       0.946533
    11474.469300       0.948551
    11487.650800       0.950529
    11500.862600       0.952469
    11514.104800       0.954370
    11527.377500       0.956232
    11540.680900       0.958055
    11554.015000       0.959839
    11567.380000       0.961583
    11580.775900       0.963289
    11594.202900       0.964955
    11607.661100       0.966582
    11621.150500       0.968169
    11634.671300       0.969718
    11648.223600       0.971226
    11661.807600       0.972696
    11675.423200       0.974126
    11689.070700       0.975517
    11702.750100       0.976869
    11716.461600       0.978181
    11730.205300       0.979454
    11743.981200       0.980688
    11757.789500       0.981882
    11771.630400       0.983038
    11785.503800       0.984154
    11799.410000       0.985231
    11813.349100       0.986270
    11827.321100       0.987269
    11841.326200       0.988230
    11855.364600       0.989151
    11869.436200       0.990035
    11883.541300       0.990879
    11897.680000       0.991686
    11911.852300       0.992454
    11926.058400       0.993183
    11940.298500       0.993875
    11954.572600       0.994529
    11968.880900       0.995145
    11983.223500       0.995723
    11997.600500       0.996264
    12012.012000       0.996767
    12026.458200       0.997234
    12040.939200       0.997663
    12055.455100       0.998055
    12070.006000       0.998411
    12084.592100       0.998731
    12099.213600       0.999014
    12113.870400       0.999261
    12128.562800       0.999472
    12143.290800       0.999648
    12158.054700       0.999788
    12172.854500       0.999893
    12187.690400       0.999964
    12202.562500       0.999999
    12217.471000       1.000000
    12232.415900       0.999967
    12247.397400       0.999900
    12262.415700       0.999799
    12277.470800       0.999664
    12292.563000       0.999497
    12307.692300       0.999297
    12322.858900       0.999064
    12338.062900       0.998798
    12353.304500       0.998501
    12368.583800       0.998172
    12383.900900       0.997812
    12399.256000       0.997420
    12414.649300       0.996998
    12430.080800       0.996545
    12445.550700       0.996062
    12461.059200       0.995549
    12476.606400       0.995007
    12492.192400       0.994435
    12507.817400       0.993835
    12523.481500       0.993206
    12539.185000       0.992549
    12554.927800       0.991864
    12570.710200       0.991152
    12586.532400       0.990413
    12602.394500       0.989647
    12618.296500       0.988855
    12634.238800       0.988037
    12650.221400       0.987193
    12666.244500       0.986324
    12682.308200       0.985430
    12698.412700       0.984512
    12714.558200       0.983570
    12730.744700       0.982604
    12746.972600       0.981615
    12763.241900       0.980603
    12779.552700       0.979568
    12795.905300       0.978512
    12812.299800       0.977434
    12828.736400       0.976335
    12845.215200       0.975215
    12861.736300       0.974074
    12878.300100       0.972914
    12894.906500       0.971734
    12911.555800       0.970535
    12928.248200       0.969318
    12944.983800       0.968082
    12961.762800       0.966828
    12978.585300       0.965557
    12995.451600       0.964269
    13012.361700       0.962965
    13029.316000       0.961644
    13046.314400       0.960308
    13063.357300       0.958957
    13080.444700       0.957591
    13097.576900       0.956211
    13114.754100       0.954817
    13131.976400       0.953409
    13149.243900       0.951989
    13166.556900       0.950556
    13183.915600       0.949111
    13201.320100       0.947654
    13218.770700       0.946187
    13236.267400       0.944708
    13253.810500       0.943220
    13271.400100       0.941721
    13289.036500       0.940214
    13306.719900       0.938697
    13324.450400       0.937172
    13342.228200       0.935639
    13360.053400       0.934098
    13377.926400       0.932551
    13395.847300       0.930997
    13413.816200       0.929436
    13431.833400       0.927870
    13449.899100       0.926299
    13468.013500       0.924723
    13486.176700       0.923142
    13504.388900       0.921558
    13522.650400       0.919970
    13540.961400       0.918379
    13559.322000       0.916785
    13577.732500       0.915189
    13596.193100       0.913592
    13614.703900       0.911993
    13633.265200       0.910394
    13651.877100       0.908794
    13670.540000       0.907194
    13689.253900       0.905594
    13708.019200       0.903995
    13726.836000       0.902398
    13745.704500       0.900802
    13764.624900       0.899209
    13783.597500       0.897618
    13802.622500       0.896029
    13821.700100       0.894445
    13840.830400       0.892864
    13860.013900       0.891287
    13879.250500       0.889715
    13898.540700       0.888148
    13917.884500       0.886586
    13937.282200       0.885030
    13956.734100       0.883480
    13976.240400       0.881936
    13995.801300       0.880400
    14015.417000       0.878871
    14035.087700       0.877349
    14054.813800       0.875835
    14074.595400       0.874330
    14094.432700       0.872834
    14114.326000       0.871346
    14134.275600       0.869868
    14154.281700       0.868400
    14174.344400       0.866942
    14194.464200       0.865494
    14214.641100       0.864057
    14234.875400       0.862631
    14255.167500       0.861217
    14275.517500       0.859814
    14295.925700       0.858424
    14316.392300       0.857045
    14336.917600       0.855680
    14357.501800       0.854327
    14378.145200       0.852987
    14398.848100       0.851661
    14419.610700       0.850349
    14440.433200       0.849050
    14461.316000       0.847766
    14482.259200       0.846497
    14503.263200       0.845242
    14524.328200       0.844002
    14545.454500       0.842778
    14566.642400       0.841569
    14587.892000       0.840375
    14609.203800       0.839198
    14630.577900       0.838036
    14652.014700       0.836891
    14673.514300       0.835763
    14695.077100       0.834651
    14716.703500       0.833556
    14738.393500       0.832479
    14760.147600       0.831418
    14781.966000       0.830375
    14803.849000       0.829349
    14825.796900       0.828341
    14847.809900       0.827351
    14869.888500       0.826378
    14892.032800       0.825424
    14914.243100       0.824488
    14936.519800       0.823570
    14958.863100       0.822671
    14981.273400       0.821790
    15003.750900       0.820927
    15026.296000       0.820084
    15048.909000       0.819258
    15071.590100       0.818452
    15094.339600       0.817664
    15117.158000       0.816895
    15140.045400       0.816145
    15163.002300       0.815414
    15186.028900       0.814702
    15209.125500       0.814008
    15232.292500       0.813334
    15255.530100       0.812678
    15278.838800       0.812041
    15302.218800       0.811423
    15325.670500       0.810824
    15349.194200       0.810244
    15372.790200       0.809682
    15396.458800       0.809139
    15420.200500       0.808614
    15444.015400       0.808108
    15467.904100       0.807620
    15491.866800       0.807151
    15515.903800       0.806699
    15540.015500       0.806266
    15564.202300       0.805850
    15588.464500       0.805453
    15612.802500       0.805073
    15637.216600       0.804710
    15661.707100       0.804365
    15686.274500       0.804037
    15710.919100       0.803725
    15735.641200       0.803431
    15760.441300       0.803153
    15785.319700       0.802892
    15810.276700       0.802646
    15835.312700       0.802417
    15860.428200       0.802203
    15885.623500       0.802005
    15910.899000       0.801822
    15936.255000       0.801654
    15961.691900       0.801500
    15987.210200       0.801361
    16012.810200       0.801236
    16038.492400       0.801124
    16064.257000       0.801026
    16090.104600       0.800942
    16116.035500       0.800870
    16142.050000       0.800810
    16168.148700       0.800763
    16194.332000       0.800727
    16220.600200       0.800703
    16246.953700       0.800690
    16273.393000       0.800687
    16299.918500       0.800695
    16326.530600       0.800713
    16353.229800       0.800740
    16380.016400       0.800776
    16406.890900       0.800821
    16433.853700       0.800873
    16460.905300       0.800934
    16488.046200       0.801002
    16515.276600       0.801077
    16542.597200       0.801158
    16570.008300       0.801245
    16597.510400       0.801338
    16625.103900       0.801435
    16652.789300       0.801537
    16680.567100       0.801643
    16708.437800       0.801752
    16736.401700       0.801864
    16764.459300       0.801979
    16792.611300       0.802095
    16820.857900       0.802212
    16849.199700       0.802331
    16877.637100       0.802449
    16906.170800       0.802567
    16934.801000       0.802684
    16963.528400       0.802799
    16992.353400       0.802913
    17021.276600       0.803023
    17050.298400       0.803130
    17079.419300       0.803233
    17108.639900       0.803332
    17137.960600       0.803425
    17167.382000       0.803513
    17196.904600       0.803594
    17226.528900       0.803668
    17256.255400       0.803734
    17286.084700       0.803792
    17316.017300       0.803840
    17346.053800       0.803879
    17376.194600       0.803908
    17406.440400       0.803925
    17436.791600       0.803931
    17467.248900       0.803924
    17497.812800       0.803905
    17528.483800       0.803871
    17559.262500       0.803823
    17590.149500       0.803759
    17621.145400       0.803680
    17652.250700       0.803584
    17683.466000       0.803471
    17714.791900       0.803339
    17746.228900       0.803189
    17777.777800       0.803019
    17809.439000       0.802829
    17841.213200       0.802618
    17873.101000       0.802385
    17905.103000       0.802130
    17937.219700       0.801852
    17969.451900       0.801549
    18001.800200       0.801222
    18034.265100       0.800870
    18066.847300       0.800492
    18099.547500       0.800086
    18132.366300       0.799653
    18165.304300       0.799191
    18198.362100       0.798701
    18231.540600       0.798180
    18264.840200       0.797629
    18298.261700       0.797046
    18331.805700       0.796431
    18365.472900       0.795783
    18399.264000       0.795102
    18433.179700       0.794386
    18467.220700       0.793635
    18501.387600       0.792848
    18535.681200       0.792024
    18570.102100       0.791163
    18604.651200       0.790264
    18639.329000       0.789326
    18674.136300       0.788349
    18709.073900       0.787331
    18744.142500       0.786272
    18779.342700       0.785171
    18814.675400       0.784028
    18850.141400       0.782841
    18885.741300       0.781611
    18921.475900       0.780336
    18957.346000       0.779015
    18993.352300       0.777649
    19029.495700       0.776235
    19065.776900       0.774775
    19102.196800       0.773266
    19138.756000       0.771708
    19175.455400       0.770101
    19212.295900       0.768444
    19249.278200       0.766736
    19286.403100       0.764976
    19323.671500       0.763165
    19361.084200       0.761301
    19398.642100       0.759383
    19436.346000       0.757412
    19474.196700       0.755386
    19512.195100       0.753305
    19550.342100       0.751169
    19588.638600       0.748976
    19627.085400       0.746726
    19665.683400       0.744419
    19704.433500       0.742054
    19743.336600       0.739630
    19782.393700       0.737148
    19821.605600       0.734606
    19860.973200       0.732004
    19900.497500       0.729342
    19940.179500       0.726619
    19980.020000       0.723835
    20020.020000       0.720988
    20060.180500       0.718080
    20100.502500       0.715109
    20140.986900       0.712075
    20181.634700       0.708977
    20222.446900       0.705816
    20263.424500       0.702591
    20304.568500       0.699302
    20345.880000       0.695947
    20387.359800       0.692528
    20429.009200       0.689044
    20470.829100       0.685494
    20512.820500       0.681878
    20554.984600       0.678196
    20597.322300       0.674449
    20639.834900       0.670635
    20682.523300       0.666754
    20725.388600       0.662807
    20768.432000       0.658793
    20811.654500       0.654713
    20855.057400       0.650565
    20898.641600       0.646351
    20942.408400       0.642070
    20986.358900       0.637722
    21030.494200       0.633307
    21074.815600       0.628825
    21119.324200       0.624276
    21164.021200       0.619661
    21208.907700       0.614980
    21253.985100       0.610232
    21299.254500       0.605418
    21344.717200       0.600537
    21390.374300       0.595592
    21436.227200       0.590581
    21482.277100       0.585504
    21528.525300       0.580363
    21574.973000       0.575158
    21621.621600       0.569888
    21668.472400       0.564555
    21715.526600       0.559159
    21762.785600       0.553700
    21810.250800       0.548179
    21857.923500       0.542596
    21905.805000       0.536952
    21953.896800       0.531248
    22002.200200       0.525484
    22050.716600       0.519661
    22099.447500       0.513779
    22148.394200       0.507840
    22197.558300       0.501844
    22246.941000       0.495792
    22296.544000       0.489686
    22346.368700       0.483524
    22396.416600       0.477310
    22446.689100       0.471043
    22497.187900       0.464725
    22547.914300       0.458357
    22598.870100       0.451940
    22650.056600       0.445475
    22701.475600       0.438963
    22753.128600       0.432405
    22805.017100       0.425804
    22857.142900       0.419159
    22909.507400       0.412473
    22962.112500       0.405747
    23014.959700       0.398982
    23068.050700       0.392179
    23121.387300       0.385342
    23174.971000       0.378469
    23228.803700       0.371565
    23282.887100       0.364630
    23337.222900       0.357666
    23391.812900       0.350674
    23446.658900       0.343657
    23501.762600       0.336617
    23557.126000       0.329555
    23612.750900       0.322473
    23668.639100       0.315374
    23724.792400       0.308259
    23781.212800       0.301131
    23837.902300       0.293992
    23894.862600       0.286843
    23952.095800       0.279689
    24009.603800       0.272530
    24067.388700       0.265369
    24125.452400       0.258208
    24183.796900       0.251051
    24242.424200       0.243900
    24301.336600       0.236757
    24360.535900       0.229625
    24420.024400       0.222507
    24479.804200       0.215406
    24539.877300       0.208324
    24600.246000       0.201265
    24660.912500       0.194231
    24721.878900       0.187226
    24783.147500       0.180252
    24844.720500       0.173314
    24906.600200       0.166413
    24968.789000       0.159554
    25031.289100       0.152740
    25094.102900       0.145974
    25157.232700       0.139261
    25220.681000       0.132602
    25284.450100       0.126003
    25348.542500       0.119466
    25412.960600       0.112997
    25477.707000       0.106597
