   4  ,metop_02_hirs_04.flt
Number of data points:
364
Wavenumber (cm-1)   Filter response
      683.200000       0.000000
      683.300000       0.002179
      683.400000       0.002216
      683.500000       0.002276
      683.600000       0.002359
      683.700000       0.002466
      683.800000       0.002595
      683.900000       0.002746
      684.000000       0.002915
      684.100000       0.003098
      684.200000       0.003292
      684.300000       0.003494
      684.400000       0.003700
      684.500000       0.003906
      684.600000       0.004109
      684.700000       0.004306
      684.800000       0.004494
      684.900000       0.004672
      685.000000       0.004841
      685.100000       0.005001
      685.200000       0.005154
      685.300000       0.005303
      685.400000       0.005452
      685.500000       0.005607
      685.600000       0.005772
      685.700000       0.005953
      685.800000       0.006156
      685.900000       0.006386
      686.000000       0.006646
      686.100000       0.006949
      686.200000       0.007288
      686.300000       0.007665
      686.400000       0.008079
      686.500000       0.008525
      686.600000       0.009002
      686.700000       0.009502
      686.800000       0.010019
      686.900000       0.010546
      687.000000       0.011074
      687.100000       0.011596
      687.200000       0.012105
      687.300000       0.012593
      687.400000       0.013056
      687.500000       0.013491
      687.600000       0.013897
      687.700000       0.014275
      687.800000       0.014629
      687.900000       0.014964
      688.000000       0.015289
      688.100000       0.015608
      688.200000       0.015939
      688.300000       0.016294
      688.400000       0.016688
      688.500000       0.017135
      688.600000       0.017649
      688.700000       0.018245
      688.800000       0.015949
      688.900000       0.016322
      689.000000       0.016921
      689.100000       0.017770
      689.200000       0.018880
      689.300000       0.020255
      689.400000       0.021889
      689.500000       0.023763
      689.600000       0.025856
      689.700000       0.028137
      689.800000       0.030574
      689.900000       0.033136
      690.000000       0.035793
      690.100000       0.038511
      690.200000       0.041284
      690.300000       0.044104
      690.400000       0.046976
      690.500000       0.049915
      690.600000       0.052949
      690.700000       0.056113
      690.800000       0.059448
      690.900000       0.063002
      691.000000       0.066829
      691.100000       0.070978
      691.200000       0.075503
      691.300000       0.080451
      691.400000       0.085869
      691.500000       0.091795
      691.600000       0.098266
      691.700000       0.105310
      691.800000       0.112960
      691.900000       0.121240
      692.000000       0.130180
      692.100000       0.139830
      692.200000       0.150200
      692.300000       0.161330
      692.400000       0.173270
      692.500000       0.186050
      692.600000       0.199740
      692.700000       0.214380
      692.800000       0.230000
      692.900000       0.246650
      693.000000       0.264360
      693.100000       0.283150
      693.200000       0.303010
      693.300000       0.323930
      693.400000       0.345890
      693.500000       0.368820
      693.600000       0.392640
      693.700000       0.417270
      693.800000       0.442580
      693.900000       0.468450
      694.000000       0.494740
      694.100000       0.521210
      694.200000       0.547780
      694.300000       0.574300
      694.400000       0.600600
      694.500000       0.626570
      694.600000       0.652030
      694.700000       0.676860
      694.800000       0.700930
      694.900000       0.724110
      695.000000       0.746310
      695.100000       0.767420
      695.200000       0.787370
      695.300000       0.806070
      695.400000       0.823460
      695.500000       0.839460
      695.600000       0.854050
      695.700000       0.867170
      695.800000       0.878810
      695.900000       0.888940
      696.000000       0.897590
      696.100000       0.904250
      696.200000       0.909480
      696.300000       0.913340
      696.400000       0.915920
      696.500000       0.917320
      696.600000       0.917630
      696.700000       0.916980
      696.800000       0.915490
      696.900000       0.913310
      697.000000       0.910580
      697.100000       0.907420
      697.200000       0.903970
      697.300000       0.900340
      697.400000       0.896640
      697.500000       0.892950
      697.600000       0.889340
      697.700000       0.885880
      697.800000       0.882600
      697.900000       0.879540
      698.000000       0.876720
      698.100000       0.874540
      698.200000       0.872630
      698.300000       0.870990
      698.400000       0.869660
      698.500000       0.868620
      698.600000       0.867900
      698.700000       0.867500
      698.800000       0.867460
      698.900000       0.867790
      699.000000       0.868510
      699.100000       0.869650
      699.200000       0.871210
      699.300000       0.873190
      699.400000       0.875580
      699.500000       0.878360
      699.600000       0.881500
      699.700000       0.884950
      699.800000       0.888670
      699.900000       0.892600
      700.000000       0.896660
      700.100000       0.900980
      700.200000       0.905320
      700.300000       0.909630
      700.400000       0.913860
      700.500000       0.917960
      700.600000       0.921890
      700.700000       0.925650
      700.800000       0.929210
      700.900000       0.932570
      701.000000       0.935740
      701.100000       0.938720
      701.200000       0.941540
      701.300000       0.944190
      701.400000       0.946690
      701.500000       0.949040
      701.600000       0.951240
      701.700000       0.953280
      701.800000       0.955140
      701.900000       0.956820
      702.000000       0.958290
      702.100000       0.959050
      702.200000       0.959570
      702.300000       0.959830
      702.400000       0.959820
      702.500000       0.959520
      702.600000       0.958970
      702.700000       0.958160
      702.800000       0.957130
      702.900000       0.955900
      703.000000       0.954530
      703.100000       0.953030
      703.200000       0.951460
      703.300000       0.949880
      703.400000       0.948320
      703.500000       0.946820
      703.600000       0.945410
      703.700000       0.944120
      703.800000       0.942960
      703.900000       0.941960
      704.000000       0.941110
      704.100000       0.940640
      704.200000       0.940360
      704.300000       0.940250
      704.400000       0.940310
      704.500000       0.940550
      704.600000       0.940980
      704.700000       0.941610
      704.800000       0.942450
      704.900000       0.943530
      705.000000       0.944860
      705.100000       0.946460
      705.200000       0.948350
      705.300000       0.950550
      705.400000       0.953050
      705.500000       0.955850
      705.600000       0.958960
      705.700000       0.962330
      705.800000       0.965940
      705.900000       0.969750
      706.000000       0.973700
      706.100000       0.977630
      706.200000       0.981550
      706.300000       0.985360
      706.400000       0.988960
      706.500000       0.992250
      706.600000       0.995120
      706.700000       0.997440
      706.800000       0.999110
      706.900000       1.000000
      707.000000       0.999990
      707.100000       0.998980
      707.200000       0.996840
      707.300000       0.993480
      707.400000       0.988800
      707.500000       0.982710
      707.600000       0.975150
      707.700000       0.966060
      707.800000       0.955390
      707.900000       0.943120
      708.000000       0.929250
      708.100000       0.913570
      708.200000       0.896340
      708.300000       0.877620
      708.400000       0.857470
      708.500000       0.835980
      708.600000       0.813240
      708.700000       0.789370
      708.800000       0.764490
      708.900000       0.738720
      709.000000       0.712210
      709.100000       0.685070
      709.200000       0.657460
      709.300000       0.629520
      709.400000       0.601370
      709.500000       0.573170
      709.600000       0.545040
      709.700000       0.517110
      709.800000       0.489520
      709.900000       0.462380
      710.000000       0.435820
      710.100000       0.410090
      710.200000       0.385140
      710.300000       0.361090
      710.400000       0.338010
      710.500000       0.315980
      710.600000       0.295080
      710.700000       0.275340
      710.800000       0.256790
      710.900000       0.239440
      711.000000       0.223270
      711.100000       0.208250
      711.200000       0.194330
      711.300000       0.181430
      711.400000       0.169490
      711.500000       0.158400
      711.600000       0.148070
      711.700000       0.138410
      711.800000       0.129340
      711.900000       0.120760
      712.000000       0.112620
      712.100000       0.104860
      712.200000       0.097447
      712.300000       0.090378
      712.400000       0.083652
      712.500000       0.077283
      712.600000       0.071300
      712.700000       0.065734
      712.800000       0.060620
      712.900000       0.055989
      713.000000       0.051862
      713.100000       0.048250
      713.200000       0.045149
      713.300000       0.042537
      713.400000       0.040378
      713.500000       0.038617
      713.600000       0.037189
      713.700000       0.036019
      713.800000       0.035030
      713.900000       0.034141
      714.000000       0.033278
      714.100000       0.032373
      714.200000       0.031382
      714.300000       0.030273
      714.400000       0.029033
      714.500000       0.027666
      714.600000       0.026193
      714.700000       0.024650
      714.800000       0.023083
      714.900000       0.021544
      715.000000       0.020085
      715.100000       0.018756
      715.200000       0.017596
      715.300000       0.016633
      715.400000       0.015880
      715.500000       0.015336
      715.600000       0.014982
      715.700000       0.014788
      715.800000       0.014712
      715.900000       0.014703
      716.000000       0.014712
      716.100000       0.014684
      716.200000       0.014580
      716.300000       0.014367
      716.400000       0.014027
      716.500000       0.013553
      716.600000       0.012956
      716.700000       0.012261
      716.800000       0.011503
      716.900000       0.010725
      717.000000       0.009975
      717.100000       0.009300
      717.200000       0.008743
      717.300000       0.008335
      717.400000       0.008098
      717.500000       0.009892
      717.600000       0.009691
      717.700000       0.009486
      717.800000       0.009274
      717.900000       0.009052
      718.000000       0.008818
      718.100000       0.008576
      718.200000       0.008321
      718.300000       0.008054
      718.400000       0.007776
      718.500000       0.007490
      718.600000       0.007198
      718.700000       0.006905
      718.800000       0.006615
      718.900000       0.006335
      719.000000       0.006069
      719.100000       0.005822
      719.200000       0.005601
      719.300000       0.005410
      719.400000       0.005254
      719.500000       0.000000
