38,   38, MVIRI VIS channel from srf_MET2_1986303_1986304_1801-Release_S10EL_10.dat
Number of data points:
730
Wavenumber (cm-1)   Filter response
     8916.629500       0.000000
     8924.587200       0.000000
     8932.559200       0.000002
     8940.545400       0.000011
     8948.545900       0.000032
     8956.560700       0.000069
     8964.589900       0.000126
     8972.633500       0.000208
     8980.691500       0.000318
     8988.764000       0.000461
     8996.851100       0.000640
     9004.952700       0.000858
     9013.068900       0.001119
     9021.199800       0.001427
     9029.345400       0.001783
     9037.505600       0.002191
     9045.680700       0.002655
     9053.870500       0.003175
     9062.075200       0.003756
     9070.294800       0.004399
     9078.529300       0.005106
     9086.778700       0.005880
     9095.043200       0.006723
     9103.322700       0.007635
     9111.617300       0.008621
     9119.927000       0.009679
     9128.251900       0.010814
     9136.592100       0.012025
     9144.947400       0.013314
     9153.318100       0.014682
     9161.704100       0.016130
     9170.105500       0.017660
     9178.522300       0.019273
     9186.954500       0.020968
     9195.402300       0.022747
     9203.865600       0.024610
     9212.344500       0.026559
     9220.839100       0.028593
     9229.349300       0.030713
     9237.875300       0.032919
     9246.417000       0.035211
     9254.974500       0.037590
     9263.547900       0.040055
     9272.137200       0.042607
     9280.742500       0.045246
     9289.363700       0.047971
     9298.000900       0.050783
     9306.654300       0.053681
     9315.323700       0.056664
     9324.009300       0.059734
     9332.711200       0.062888
     9341.429200       0.066127
     9350.163600       0.069449
     9358.914400       0.072856
     9367.681500       0.076345
     9376.465100       0.079917
     9385.265100       0.083569
     9394.081700       0.087304
     9402.914900       0.091117
     9411.764700       0.095010
     9420.631200       0.098982
     9429.514400       0.103031
     9438.414300       0.107156
     9447.331100       0.111357
     9456.264800       0.115633
     9465.215300       0.119982
     9474.182900       0.124403
     9483.167400       0.128896
     9492.169000       0.133459
     9501.187600       0.138091
     9510.223500       0.142791
     9519.276500       0.147557
     9528.346800       0.152390
     9537.434400       0.157287
     9546.539400       0.162246
     9555.661700       0.167267
     9564.801500       0.172349
     9573.958800       0.177490
     9583.133700       0.182689
     9592.326100       0.187944
     9601.536200       0.193255
     9610.764100       0.198619
     9620.009600       0.204036
     9629.273000       0.209504
     9638.554200       0.215021
     9647.853400       0.220587
     9657.170400       0.226199
     9666.505600       0.231858
     9675.858700       0.237560
     9685.230000       0.243305
     9694.619500       0.249091
     9704.027200       0.254917
     9713.453100       0.260781
     9722.897400       0.266683
     9732.360100       0.272619
     9741.841200       0.278590
     9751.340800       0.284593
     9760.859000       0.290628
     9770.395700       0.296693
     9779.951100       0.302785
     9789.525200       0.308905
     9799.118100       0.315051
     9808.729800       0.321220
     9818.360300       0.327413
     9828.009800       0.333626
     9837.678300       0.339859
     9847.365800       0.346111
     9857.072400       0.352380
     9866.798200       0.358665
     9876.543200       0.364964
     9886.307500       0.371277
     9896.091000       0.377601
     9905.894000       0.383935
     9915.716400       0.390278
     9925.558300       0.396629
     9935.419800       0.402987
     9945.300800       0.409349
     9955.201600       0.415715
     9965.122100       0.422084
     9975.062300       0.428454
     9985.022500       0.434824
     9995.002500       0.441193
    10005.002500       0.447560
    10015.022500       0.453922
    10025.062700       0.460280
    10035.122900       0.466632
    10045.203400       0.472976
    10055.304200       0.479313
    10065.425300       0.485639
    10075.566800       0.491955
    10085.728700       0.498259
    10095.911200       0.504551
    10106.114200       0.510828
    10116.337900       0.517090
    10126.582300       0.523336
    10136.847400       0.529565
    10147.133400       0.535776
    10157.440300       0.541967
    10167.768200       0.548139
    10178.117000       0.554289
    10188.487000       0.560417
    10198.878100       0.566522
    10209.290500       0.572603
    10219.724100       0.578659
    10230.179000       0.584690
    10240.655400       0.590693
    10251.153300       0.596670
    10261.672700       0.602617
    10272.213700       0.608536
    10282.776300       0.614424
    10293.360800       0.620282
    10303.967000       0.626108
    10314.595200       0.631902
    10325.245200       0.637662
    10335.917300       0.643389
    10346.611500       0.649082
    10357.327800       0.654738
    10368.066400       0.660359
    10378.827200       0.665944
    10389.610400       0.671491
    10400.416000       0.677000
    10411.244100       0.682471
    10422.094800       0.687902
    10432.968200       0.693294
    10443.864200       0.698646
    10454.783100       0.703957
    10465.724800       0.709227
    10476.689400       0.714455
    10487.677000       0.719640
    10498.687700       0.724783
    10509.721500       0.729882
    10520.778500       0.734937
    10531.858900       0.739949
    10542.962600       0.744916
    10554.089700       0.749837
    10565.240400       0.754714
    10576.414600       0.759544
    10587.612500       0.764328
    10598.834100       0.769066
    10610.079600       0.773757
    10621.348900       0.778401
    10632.642200       0.782997
    10643.959600       0.787546
    10655.301000       0.792047
    10666.666700       0.796499
    10678.056600       0.800902
    10689.470900       0.805257
    10700.909600       0.809564
    10712.372800       0.813820
    10723.860600       0.818028
    10735.373100       0.822185
    10746.910300       0.826294
    10758.472300       0.830352
    10770.059200       0.834360
    10781.671200       0.838318
    10793.308100       0.842225
    10804.970300       0.846083
    10816.657700       0.849889
    10828.370300       0.853646
    10840.108400       0.857351
    10851.871900       0.861006
    10863.661100       0.864610
    10875.475800       0.868164
    10887.316300       0.871666
    10899.182600       0.875118
    10911.074700       0.878519
    10922.992900       0.881869
    10934.937100       0.885169
    10946.907500       0.888417
    10958.904100       0.891615
    10970.927000       0.894763
    10982.976400       0.897859
    10995.052200       0.900905
    11007.154700       0.903901
    11019.283700       0.906846
    11031.439600       0.909741
    11043.622300       0.912586
    11055.832000       0.915381
    11068.068600       0.918125
    11080.332400       0.920820
    11092.623400       0.923465
    11104.941700       0.926061
    11117.287400       0.928607
    11129.660500       0.931104
    11142.061300       0.933552
    11154.489700       0.935951
    11166.945800       0.938302
    11179.429800       0.940604
    11191.941800       0.942857
    11204.481800       0.945062
    11217.049900       0.947220
    11229.646300       0.949329
    11242.270900       0.951392
    11254.924000       0.953407
    11267.605600       0.955375
    11280.315800       0.957296
    11293.054800       0.959170
    11305.822500       0.960998
    11318.619100       0.962780
    11331.444800       0.964517
    11344.299500       0.966207
    11357.183400       0.967853
    11370.096600       0.969453
    11383.039300       0.971009
    11396.011400       0.972520
    11409.013100       0.973987
    11422.044500       0.975410
    11435.105800       0.976789
    11448.196900       0.978125
    11461.318100       0.979418
    11474.469300       0.980668
    11487.650800       0.981876
    11500.862600       0.983042
    11514.104800       0.984166
    11527.377500       0.985248
    11540.680900       0.986289
    11554.015000       0.987289
    11567.380000       0.988249
    11580.775900       0.989168
    11594.202900       0.990047
    11607.661100       0.990887
    11621.150500       0.991687
    11634.671300       0.992448
    11648.223600       0.993171
    11661.807600       0.993855
    11675.423200       0.994501
    11689.070700       0.995110
    11702.750100       0.995681
    11716.461600       0.996215
    11730.205300       0.996712
    11743.981200       0.997173
    11757.789500       0.997598
    11771.630400       0.997987
    11785.503800       0.998340
    11799.410000       0.998659
    11813.349100       0.998942
    11827.321100       0.999192
    11841.326200       0.999407
    11855.364600       0.999588
    11869.436200       0.999736
    11883.541300       0.999851
    11897.680000       0.999933
    11911.852300       0.999983
    11926.058400       1.000000
    11940.298500       0.999986
    11954.572600       0.999940
    11968.880900       0.999862
    11983.223500       0.999754
    11997.600500       0.999616
    12012.012000       0.999447
    12026.458200       0.999248
    12040.939200       0.999020
    12055.455100       0.998762
    12070.006000       0.998475
    12084.592100       0.998160
    12099.213600       0.997816
    12113.870400       0.997444
    12128.562800       0.997044
    12143.290800       0.996617
    12158.054700       0.996163
    12172.854500       0.995682
    12187.690400       0.995174
    12202.562500       0.994640
    12217.471000       0.994080
    12232.415900       0.993494
    12247.397400       0.992883
    12262.415700       0.992246
    12277.470800       0.991585
    12292.563000       0.990899
    12307.692300       0.990189
    12322.858900       0.989454
    12338.062900       0.988696
    12353.304500       0.987915
    12368.583800       0.987110
    12383.900900       0.986282
    12399.256000       0.985431
    12414.649300       0.984558
    12430.080800       0.983662
    12445.550700       0.982745
    12461.059200       0.981806
    12476.606400       0.980845
    12492.192400       0.979863
    12507.817400       0.978861
    12523.481500       0.977837
    12539.185000       0.976793
    12554.927800       0.975728
    12570.710200       0.974643
    12586.532400       0.973539
    12602.394500       0.972415
    12618.296500       0.971271
    12634.238800       0.970108
    12650.221400       0.968926
    12666.244500       0.967725
    12682.308200       0.966506
    12698.412700       0.965268
    12714.558200       0.964012
    12730.744700       0.962739
    12746.972600       0.961447
    12763.241900       0.960138
    12779.552700       0.958811
    12795.905300       0.957467
    12812.299800       0.956106
    12828.736400       0.954728
    12845.215200       0.953333
    12861.736300       0.951922
    12878.300100       0.950494
    12894.906500       0.949050
    12911.555800       0.947590
    12928.248200       0.946115
    12944.983800       0.944623
    12961.762800       0.943116
    12978.585300       0.941593
    12995.451600       0.940056
    13012.361700       0.938503
    13029.316000       0.936935
    13046.314400       0.935352
    13063.357300       0.933755
    13080.444700       0.932143
    13097.576900       0.930517
    13114.754100       0.928876
    13131.976400       0.927222
    13149.243900       0.925553
    13166.556900       0.923870
    13183.915600       0.922174
    13201.320100       0.920464
    13218.770700       0.918740
    13236.267400       0.917003
    13253.810500       0.915252
    13271.400100       0.913489
    13289.036500       0.911712
    13306.719900       0.909922
    13324.450400       0.908120
    13342.228200       0.906304
    13360.053400       0.904477
    13377.926400       0.902636
    13395.847300       0.900783
    13413.816200       0.898917
    13431.833400       0.897040
    13449.899100       0.895150
    13468.013500       0.893248
    13486.176700       0.891334
    13504.388900       0.889408
    13522.650400       0.887470
    13540.961400       0.885520
    13559.322000       0.883559
    13577.732500       0.881586
    13596.193100       0.879602
    13614.703900       0.877606
    13633.265200       0.875599
    13651.877100       0.873580
    13670.540000       0.871550
    13689.253900       0.869509
    13708.019200       0.867457
    13726.836000       0.865395
    13745.704500       0.863321
    13764.624900       0.861236
    13783.597500       0.859140
    13802.622500       0.857034
    13821.700100       0.854917
    13840.830400       0.852790
    13860.013900       0.850652
    13879.250500       0.848503
    13898.540700       0.846345
    13917.884500       0.844176
    13937.282200       0.841996
    13956.734100       0.839806
    13976.240400       0.837607
    13995.801300       0.835397
    14015.417000       0.833177
    14035.087700       0.830947
    14054.813800       0.828707
    14074.595400       0.826458
    14094.432700       0.824199
    14114.326000       0.821930
    14134.275600       0.819651
    14154.281700       0.817363
    14174.344400       0.815065
    14194.464200       0.812758
    14214.641100       0.810441
    14234.875400       0.808115
    14255.167500       0.805780
    14275.517500       0.803436
    14295.925700       0.801082
    14316.392300       0.798719
    14336.917600       0.796347
    14357.501800       0.793967
    14378.145200       0.791577
    14398.848100       0.789179
    14419.610700       0.786772
    14440.433200       0.784356
    14461.316000       0.781931
    14482.259200       0.779498
    14503.263200       0.777056
    14524.328200       0.774606
    14545.454500       0.772148
    14566.642400       0.769681
    14587.892000       0.767206
    14609.203800       0.764723
    14630.577900       0.762232
    14652.014700       0.759733
    14673.514300       0.757226
    14695.077100       0.754711
    14716.703500       0.752188
    14738.393500       0.749658
    14760.147600       0.747120
    14781.966000       0.744574
    14803.849000       0.742021
    14825.796900       0.739460
    14847.809900       0.736893
    14869.888500       0.734318
    14892.032800       0.731736
    14914.243100       0.729146
    14936.519800       0.726550
    14958.863100       0.723947
    14981.273400       0.721338
    15003.750900       0.718721
    15026.296000       0.716098
    15048.909000       0.713469
    15071.590100       0.710833
    15094.339600       0.708191
    15117.158000       0.705542
    15140.045400       0.702888
    15163.002300       0.700227
    15186.028900       0.697561
    15209.125500       0.694888
    15232.292500       0.692210
    15255.530100       0.689527
    15278.838800       0.686838
    15302.218800       0.684143
    15325.670500       0.681444
    15349.194200       0.678739
    15372.790200       0.676029
    15396.458800       0.673314
    15420.200500       0.670595
    15444.015400       0.667870
    15467.904100       0.665141
    15491.866800       0.662408
    15515.903800       0.659670
    15540.015500       0.656928
    15564.202300       0.654182
    15588.464500       0.651432
    15612.802500       0.648678
    15637.216600       0.645921
    15661.707100       0.643159
    15686.274500       0.640395
    15710.919100       0.637627
    15735.641200       0.634856
    15760.441300       0.632081
    15785.319700       0.629304
    15810.276700       0.626524
    15835.312700       0.623741
    15860.428200       0.620956
    15885.623500       0.618168
    15910.899000       0.615379
    15936.255000       0.612587
    15961.691900       0.609793
    15987.210200       0.606997
    16012.810200       0.604199
    16038.492400       0.601400
    16064.257000       0.598600
    16090.104600       0.595798
    16116.035500       0.592995
    16142.050000       0.590191
    16168.148700       0.587386
    16194.332000       0.584581
    16220.600200       0.581775
    16246.953700       0.578968
    16273.393000       0.576162
    16299.918500       0.573355
    16326.530600       0.570548
    16353.229800       0.567742
    16380.016400       0.564936
    16406.890900       0.562130
    16433.853700       0.559325
    16460.905300       0.556521
    16488.046200       0.553718
    16515.276600       0.550915
    16542.597200       0.548114
    16570.008300       0.545315
    16597.510400       0.542517
    16625.103900       0.539721
    16652.789300       0.536926
    16680.567100       0.534134
    16708.437800       0.531343
    16736.401700       0.528555
    16764.459300       0.525769
    16792.611300       0.522986
    16820.857900       0.520206
    16849.199700       0.517428
    16877.637100       0.514654
    16906.170800       0.511882
    16934.801000       0.509114
    16963.528400       0.506350
    16992.353400       0.503589
    17021.276600       0.500831
    17050.298400       0.498077
    17079.419300       0.495328
    17108.639900       0.492583
    17137.960600       0.489841
    17167.382000       0.487104
    17196.904600       0.484372
    17226.528900       0.481645
    17256.255400       0.478922
    17286.084700       0.476204
    17316.017300       0.473491
    17346.053800       0.470783
    17376.194600       0.468081
    17406.440400       0.465384
    17436.791600       0.462692
    17467.248900       0.460006
    17497.812800       0.457326
    17528.483800       0.454652
    17559.262500       0.451983
    17590.149500       0.449321
    17621.145400       0.446665
    17652.250700       0.444015
    17683.466000       0.441372
    17714.791900       0.438735
    17746.228900       0.436104
    17777.777800       0.433481
    17809.439000       0.430864
    17841.213200       0.428254
    17873.101000       0.425650
    17905.103000       0.423054
    17937.219700       0.420465
    17969.451900       0.417883
    18001.800200       0.415308
    18034.265100       0.412741
    18066.847300       0.410181
    18099.547500       0.407628
    18132.366300       0.405083
    18165.304300       0.402545
    18198.362100       0.400015
    18231.540600       0.397493
    18264.840200       0.394978
    18298.261700       0.392472
    18331.805700       0.389972
    18365.472900       0.387481
    18399.264000       0.384997
    18433.179700       0.382522
    18467.220700       0.380054
    18501.387600       0.377594
    18535.681200       0.375142
    18570.102100       0.372698
    18604.651200       0.370262
    18639.329000       0.367833
    18674.136300       0.365413
    18709.073900       0.363001
    18744.142500       0.360596
    18779.342700       0.358200
    18814.675400       0.355811
    18850.141400       0.353430
    18885.741300       0.351057
    18921.475900       0.348692
    18957.346000       0.346334
    18993.352300       0.343985
    19029.495700       0.341643
    19065.776900       0.339308
    19102.196800       0.336982
    19138.756000       0.334662
    19175.455400       0.332351
    19212.295900       0.330046
    19249.278200       0.327749
    19286.403100       0.325459
    19323.671500       0.323177
    19361.084200       0.320901
    19398.642100       0.318633
    19436.346000       0.316372
    19474.196700       0.314117
    19512.195100       0.311869
    19550.342100       0.309627
    19588.638600       0.307393
    19627.085400       0.305164
    19665.683400       0.302942
    19704.433500       0.300726
    19743.336600       0.298516
    19782.393700       0.296312
    19821.605600       0.294113
    19860.973200       0.291921
    19900.497500       0.289734
    19940.179500       0.287552
    19980.020000       0.285375
    20020.020000       0.283203
    20060.180500       0.281037
    20100.502500       0.278874
    20140.986900       0.276717
    20181.634700       0.274564
    20222.446900       0.272415
    20263.424500       0.270270
    20304.568500       0.268129
    20345.880000       0.265991
    20387.359800       0.263857
    20429.009200       0.261727
    20470.829100       0.259599
    20512.820500       0.257474
    20554.984600       0.255352
    20597.322300       0.253233
    20639.834900       0.251115
    20682.523300       0.249000
    20725.388600       0.246887
    20768.432000       0.244775
    20811.654500       0.242665
    20855.057400       0.240556
    20898.641600       0.238448
    20942.408400       0.236341
    20986.358900       0.234234
    21030.494200       0.232128
    21074.815600       0.230022
    21119.324200       0.227915
    21164.021200       0.225809
    21208.907700       0.223702
    21253.985100       0.221593
    21299.254500       0.219484
    21344.717200       0.217374
    21390.374300       0.215262
    21436.227200       0.213149
    21482.277100       0.211033
    21528.525300       0.208916
    21574.973000       0.206796
    21621.621600       0.204673
    21668.472400       0.202547
    21715.526600       0.200419
    21762.785600       0.198287
    21810.250800       0.196151
    21857.923500       0.194012
    21905.805000       0.191869
    21953.896800       0.189722
    22002.200200       0.187570
    22050.716600       0.185414
    22099.447500       0.183253
    22148.394200       0.181086
    22197.558300       0.178915
    22246.941000       0.176738
    22296.544000       0.174556
    22346.368700       0.172368
    22396.416600       0.170174
    22446.689100       0.167974
    22497.187900       0.165767
    22547.914300       0.163554
    22598.870100       0.161334
    22650.056600       0.159108
    22701.475600       0.156875
    22753.128600       0.154634
    22805.017100       0.152387
    22857.142900       0.150132
    22909.507400       0.147870
    22962.112500       0.145600
    23014.959700       0.143323
    23068.050700       0.141038
    23121.387300       0.138745
    23174.971000       0.136444
    23228.803700       0.134136
    23282.887100       0.131819
    23337.222900       0.129495
    23391.812900       0.127162
    23446.658900       0.124822
    23501.762600       0.122474
    23557.126000       0.120117
    23612.750900       0.117753
    23668.639100       0.115381
    23724.792400       0.113001
    23781.212800       0.110613
    23837.902300       0.108217
    23894.862600       0.105815
    23952.095800       0.103404
    24009.603800       0.100986
    24067.388700       0.098561
    24125.452400       0.096130
    24183.796900       0.093691
    24242.424200       0.091246
    24301.336600       0.088795
    24360.535900       0.086337
    24420.024400       0.083874
    24479.804200       0.081405
    24539.877300       0.078931
    24600.246000       0.076452
    24660.912500       0.073969
    24721.878900       0.071481
    24783.147500       0.068990
    24844.720500       0.066496
    24906.600200       0.063998
    24968.789000       0.061499
    25031.289100       0.058997
    25094.102900       0.056495
    25157.232700       0.053991
    25220.681000       0.051487
    25284.450100       0.048984
    25348.542500       0.046482
    25412.960600       0.043981
    25477.707000       0.041483
