119,   119, MVIRI VIS channel from srf_MET7_2012168_2012169_1801-Release_S10EE_10.dat
Number of data points:
793
Wavenumber (cm-1)   Filter response
     8442.380800       0.000000
     8449.514200       0.000000
     8456.659600       0.000004
     8463.817200       0.000057
     8470.986900       0.000167
     8478.168700       0.000335
     8485.362700       0.000557
     8492.569000       0.000833
     8499.787500       0.001160
     8507.018300       0.001538
     8514.261400       0.001965
     8521.516800       0.002439
     8528.784600       0.002959
     8536.064900       0.003524
     8543.357500       0.004132
     8550.662700       0.004783
     8557.980300       0.005475
     8565.310500       0.006208
     8572.653200       0.006979
     8580.008600       0.007788
     8587.376600       0.008634
     8594.757200       0.009516
     8602.150500       0.010433
     8609.556600       0.011384
     8616.975400       0.012369
     8624.407100       0.013386
     8631.851500       0.014435
     8639.308900       0.015515
     8646.779100       0.016626
     8654.262200       0.017766
     8661.758300       0.018936
     8669.267400       0.020133
     8676.789600       0.021359
     8684.324800       0.022612
     8691.873100       0.023892
     8699.434500       0.025198
     8707.009100       0.026530
     8714.596900       0.027887
     8722.198000       0.029270
     8729.812300       0.030677
     8737.439900       0.032109
     8745.080900       0.033564
     8752.735200       0.035043
     8760.403000       0.036545
     8768.084200       0.038071
     8775.778900       0.039619
     8783.487000       0.041189
     8791.208800       0.042782
     8798.944100       0.044397
     8806.693100       0.046034
     8814.455700       0.047692
     8822.232000       0.049372
     8830.022100       0.051074
     8837.825900       0.052797
     8845.643500       0.054541
     8853.475000       0.056306
     8861.320300       0.058092
     8869.179600       0.059900
     8877.052800       0.061728
     8884.940000       0.063577
     8892.841300       0.065446
     8900.756600       0.067337
     8908.686000       0.069248
     8916.629500       0.071180
     8924.587200       0.073133
     8932.559200       0.075106
     8940.545400       0.077101
     8948.545900       0.079116
     8956.560700       0.081151
     8964.589900       0.083208
     8972.633500       0.085286
     8980.691500       0.087384
     8988.764000       0.089504
     8996.851100       0.091645
     9004.952700       0.093806
     9013.068900       0.095989
     9021.199800       0.098194
     9029.345400       0.100419
     9037.505600       0.102666
     9045.680700       0.104935
     9053.870500       0.107225
     9062.075200       0.109536
     9070.294800       0.111870
     9078.529300       0.114225
     9086.778700       0.116603
     9095.043200       0.119002
     9103.322700       0.121423
     9111.617300       0.123867
     9119.927000       0.126332
     9128.251900       0.128821
     9136.592100       0.131331
     9144.947400       0.133864
     9153.318100       0.136420
     9161.704100       0.138999
     9170.105500       0.141600
     9178.522300       0.144224
     9186.954500       0.146871
     9195.402300       0.149541
     9203.865600       0.152234
     9212.344500       0.154951
     9220.839100       0.157690
     9229.349300       0.160453
     9237.875300       0.163240
     9246.417000       0.166049
     9254.974500       0.168882
     9263.547900       0.171739
     9272.137200       0.174619
     9280.742500       0.177523
     9289.363700       0.180450
     9298.000900       0.183401
     9306.654300       0.186376
     9315.323700       0.189374
     9324.009300       0.192397
     9332.711200       0.195443
     9341.429200       0.198512
     9350.163600       0.201606
     9358.914400       0.204723
     9367.681500       0.207864
     9376.465100       0.211029
     9385.265100       0.214217
     9394.081700       0.217429
     9402.914900       0.220665
     9411.764700       0.223924
     9420.631200       0.227207
     9429.514400       0.230514
     9438.414300       0.233844
     9447.331100       0.237197
     9456.264800       0.240574
     9465.215300       0.243974
     9474.182900       0.247397
     9483.167400       0.250843
     9492.169000       0.254312
     9501.187600       0.257805
     9510.223500       0.261320
     9519.276500       0.264857
     9528.346800       0.268418
     9537.434400       0.272000
     9546.539400       0.275605
     9555.661700       0.279232
     9564.801500       0.282881
     9573.958800       0.286553
     9583.133700       0.290246
     9592.326100       0.293960
     9601.536200       0.297696
     9610.764100       0.301453
     9620.009600       0.305231
     9629.273000       0.309030
     9638.554200       0.312849
     9647.853400       0.316689
     9657.170400       0.320549
     9666.505600       0.324430
     9675.858700       0.328330
     9685.230000       0.332249
     9694.619500       0.336188
     9704.027200       0.340146
     9713.453100       0.344123
     9722.897400       0.348119
     9732.360100       0.352132
     9741.841200       0.356164
     9751.340800       0.360213
     9760.859000       0.364281
     9770.395700       0.368365
     9779.951100       0.372467
     9789.525200       0.376585
     9799.118100       0.380719
     9808.729800       0.384869
     9818.360300       0.389036
     9828.009800       0.393217
     9837.678300       0.397414
     9847.365800       0.401626
     9857.072400       0.405851
     9866.798200       0.410091
     9876.543200       0.414345
     9886.307500       0.418612
     9896.091000       0.422892
     9905.894000       0.427185
     9915.716400       0.431490
     9925.558300       0.435807
     9935.419800       0.440136
     9945.300800       0.444476
     9955.201600       0.448827
     9965.122100       0.453188
     9975.062300       0.457559
     9985.022500       0.461940
     9995.002500       0.466331
    10005.002500       0.470730
    10015.022500       0.475137
    10025.062700       0.479553
    10035.122900       0.483976
    10045.203400       0.488406
    10055.304200       0.492844
    10065.425300       0.497287
    10075.566800       0.501736
    10085.728700       0.506191
    10095.911200       0.510652
    10106.114200       0.515116
    10116.337900       0.519585
    10126.582300       0.524058
    10136.847400       0.528534
    10147.133400       0.533013
    10157.440300       0.537494
    10167.768200       0.541977
    10178.117000       0.546462
    10188.487000       0.550947
    10198.878100       0.555434
    10209.290500       0.559920
    10219.724100       0.564407
    10230.179000       0.568892
    10240.655400       0.573376
    10251.153300       0.577858
    10261.672700       0.582338
    10272.213700       0.586816
    10282.776300       0.591290
    10293.360800       0.595761
    10303.967000       0.600228
    10314.595200       0.604690
    10325.245200       0.609147
    10335.917300       0.613598
    10346.611500       0.618044
    10357.327800       0.622483
    10368.066400       0.626915
    10378.827200       0.631340
    10389.610400       0.635757
    10400.416000       0.640165
    10411.244100       0.644565
    10422.094800       0.648955
    10432.968200       0.653336
    10443.864200       0.657706
    10454.783100       0.662066
    10465.724800       0.666414
    10476.689400       0.670751
    10487.677000       0.675075
    10498.687700       0.679387
    10509.721500       0.683686
    10520.778500       0.687971
    10531.858900       0.692242
    10542.962600       0.696499
    10554.089700       0.700741
    10565.240400       0.704967
    10576.414600       0.709178
    10587.612500       0.713372
    10598.834100       0.717549
    10610.079600       0.721709
    10621.348900       0.725852
    10632.642200       0.729976
    10643.959600       0.734082
    10655.301000       0.738169
    10666.666700       0.742236
    10678.056600       0.746283
    10689.470900       0.750310
    10700.909600       0.754316
    10712.372800       0.758301
    10723.860600       0.762265
    10735.373100       0.766206
    10746.910300       0.770125
    10758.472300       0.774021
    10770.059200       0.777893
    10781.671200       0.781742
    10793.308100       0.785567
    10804.970300       0.789367
    10816.657700       0.793143
    10828.370300       0.796893
    10840.108400       0.800617
    10851.871900       0.804315
    10863.661100       0.807987
    10875.475800       0.811632
    10887.316300       0.815249
    10899.182600       0.818839
    10911.074700       0.822402
    10922.992900       0.825935
    10934.937100       0.829441
    10946.907500       0.832917
    10958.904100       0.836363
    10970.927000       0.839781
    10982.976400       0.843167
    10995.052200       0.846524
    11007.154700       0.849850
    11019.283700       0.853145
    11031.439600       0.856408
    11043.622300       0.859640
    11055.832000       0.862840
    11068.068600       0.866008
    11080.332400       0.869143
    11092.623400       0.872245
    11104.941700       0.875314
    11117.287400       0.878350
    11129.660500       0.881352
    11142.061300       0.884320
    11154.489700       0.887254
    11166.945800       0.890154
    11179.429800       0.893019
    11191.941800       0.895849
    11204.481800       0.898643
    11217.049900       0.901403
    11229.646300       0.904126
    11242.270900       0.906814
    11254.924000       0.909466
    11267.605600       0.912081
    11280.315800       0.914660
    11293.054800       0.917203
    11305.822500       0.919708
    11318.619100       0.922177
    11331.444800       0.924608
    11344.299500       0.927002
    11357.183400       0.929358
    11370.096600       0.931677
    11383.039300       0.933958
    11396.011400       0.936201
    11409.013100       0.938406
    11422.044500       0.940572
    11435.105800       0.942701
    11448.196900       0.944790
    11461.318100       0.946842
    11474.469300       0.948854
    11487.650800       0.950828
    11500.862600       0.952763
    11514.104800       0.954659
    11527.377500       0.956516
    11540.680900       0.958333
    11554.015000       0.960112
    11567.380000       0.961852
    11580.775900       0.963552
    11594.202900       0.965213
    11607.661100       0.966834
    11621.150500       0.968417
    11634.671300       0.969960
    11648.223600       0.971463
    11661.807600       0.972927
    11675.423200       0.974352
    11689.070700       0.975738
    11702.750100       0.977084
    11716.461600       0.978390
    11730.205300       0.979658
    11743.981200       0.980886
    11757.789500       0.982075
    11771.630400       0.983224
    11785.503800       0.984335
    11799.410000       0.985406
    11813.349100       0.986439
    11827.321100       0.987432
    11841.326200       0.988387
    11855.364600       0.989303
    11869.436200       0.990180
    11883.541300       0.991019
    11897.680000       0.991819
    11911.852300       0.992581
    11926.058400       0.993304
    11940.298500       0.993990
    11954.572600       0.994638
    11968.880900       0.995247
    11983.223500       0.995820
    11997.600500       0.996354
    12012.012000       0.996851
    12026.458200       0.997311
    12040.939200       0.997734
    12055.455100       0.998121
    12070.006000       0.998470
    12084.592100       0.998783
    12099.213600       0.999060
    12113.870400       0.999301
    12128.562800       0.999506
    12143.290800       0.999675
    12158.054700       0.999809
    12172.854500       0.999907
    12187.690400       0.999971
    12202.562500       1.000000
    12217.471000       0.999994
    12232.415900       0.999955
    12247.397400       0.999881
    12262.415700       0.999774
    12277.470800       0.999633
    12292.563000       0.999459
    12307.692300       0.999252
    12322.858900       0.999012
    12338.062900       0.998740
    12353.304500       0.998436
    12368.583800       0.998101
    12383.900900       0.997734
    12399.256000       0.997335
    12414.649300       0.996906
    12430.080800       0.996447
    12445.550700       0.995957
    12461.059200       0.995438
    12476.606400       0.994889
    12492.192400       0.994310
    12507.817400       0.993703
    12523.481500       0.993068
    12539.185000       0.992404
    12554.927800       0.991713
    12570.710200       0.990994
    12586.532400       0.990248
    12602.394500       0.989475
    12618.296500       0.988676
    12634.238800       0.987851
    12650.221400       0.987001
    12666.244500       0.986125
    12682.308200       0.985225
    12698.412700       0.984300
    12714.558200       0.983351
    12730.744700       0.982378
    12746.972600       0.981382
    12763.241900       0.980364
    12779.552700       0.979323
    12795.905300       0.978260
    12812.299800       0.977175
    12828.736400       0.976069
    12845.215200       0.974942
    12861.736300       0.973795
    12878.300100       0.972628
    12894.906500       0.971442
    12911.555800       0.970236
    12928.248200       0.969012
    12944.983800       0.967770
    12961.762800       0.966509
    12978.585300       0.965232
    12995.451600       0.963937
    13012.361700       0.962626
    13029.316000       0.961299
    13046.314400       0.959956
    13063.357300       0.958599
    13080.444700       0.957226
    13097.576900       0.955839
    13114.754100       0.954438
    13131.976400       0.953024
    13149.243900       0.951597
    13166.556900       0.950158
    13183.915600       0.948706
    13201.320100       0.947243
    13218.770700       0.945769
    13236.267400       0.944284
    13253.810500       0.942789
    13271.400100       0.941284
    13289.036500       0.939770
    13306.719900       0.938247
    13324.450400       0.936716
    13342.228200       0.935176
    13360.053400       0.933629
    13377.926400       0.932075
    13395.847300       0.930515
    13413.816200       0.928948
    13431.833400       0.927376
    13449.899100       0.925798
    13468.013500       0.924215
    13486.176700       0.922629
    13504.388900       0.921038
    13522.650400       0.919443
    13540.961400       0.917846
    13559.322000       0.916246
    13577.732500       0.914644
    13596.193100       0.913040
    13614.703900       0.911435
    13633.265200       0.909830
    13651.877100       0.908223
    13670.540000       0.906617
    13689.253900       0.905011
    13708.019200       0.903406
    13726.836000       0.901803
    13745.704500       0.900201
    13764.624900       0.898601
    13783.597500       0.897004
    13802.622500       0.895409
    13821.700100       0.893819
    13840.830400       0.892232
    13860.013900       0.890649
    13879.250500       0.889070
    13898.540700       0.887497
    13917.884500       0.885929
    13937.282200       0.884367
    13956.734100       0.882810
    13976.240400       0.881261
    13995.801300       0.879718
    14015.417000       0.878183
    14035.087700       0.876655
    14054.813800       0.875135
    14074.595400       0.873624
    14094.432700       0.872121
    14114.326000       0.870628
    14134.275600       0.869144
    14154.281700       0.867669
    14174.344400       0.866205
    14194.464200       0.864751
    14214.641100       0.863308
    14234.875400       0.861876
    14255.167500       0.860456
    14275.517500       0.859047
    14295.925700       0.857650
    14316.392300       0.856265
    14336.917600       0.854894
    14357.501800       0.853535
    14378.145200       0.852189
    14398.848100       0.850857
    14419.610700       0.849538
    14440.433200       0.848233
    14461.316000       0.846943
    14482.259200       0.845667
    14503.263200       0.844406
    14524.328200       0.843160
    14545.454500       0.841929
    14566.642400       0.840714
    14587.892000       0.839515
    14609.203800       0.838331
    14630.577900       0.837163
    14652.014700       0.836012
    14673.514300       0.834877
    14695.077100       0.833759
    14716.703500       0.832658
    14738.393500       0.831574
    14760.147600       0.830507
    14781.966000       0.829457
    14803.849000       0.828425
    14825.796900       0.827410
    14847.809900       0.826414
    14869.888500       0.825435
    14892.032800       0.824474
    14914.243100       0.823532
    14936.519800       0.822607
    14958.863100       0.821701
    14981.273400       0.820814
    15003.750900       0.819945
    15026.296000       0.819094
    15048.909000       0.818262
    15071.590100       0.817449
    15094.339600       0.816655
    15117.158000       0.815879
    15140.045400       0.815122
    15163.002300       0.814384
    15186.028900       0.813665
    15209.125500       0.812965
    15232.292500       0.812283
    15255.530100       0.811621
    15278.838800       0.810977
    15302.218800       0.810352
    15325.670500       0.809746
    15349.194200       0.809158
    15372.790200       0.808590
    15396.458800       0.808039
    15420.200500       0.807508
    15444.015400       0.806994
    15467.904100       0.806499
    15491.866800       0.806022
    15515.903800       0.805564
    15540.015500       0.805123
    15564.202300       0.804700
    15588.464500       0.804295
    15612.802500       0.803908
    15637.216600       0.803538
    15661.707100       0.803185
    15686.274500       0.802849
    15710.919100       0.802530
    15735.641200       0.802228
    15760.441300       0.801943
    15785.319700       0.801674
    15810.276700       0.801421
    15835.312700       0.801184
    15860.428200       0.800962
    15885.623500       0.800756
    15910.899000       0.800565
    15936.255000       0.800389
    15961.691900       0.800227
    15987.210200       0.800080
    16012.810200       0.799947
    16038.492400       0.799827
    16064.257000       0.799721
    16090.104600       0.799628
    16116.035500       0.799548
    16142.050000       0.799481
    16168.148700       0.799425
    16194.332000       0.799381
    16220.600200       0.799348
    16246.953700       0.799327
    16273.393000       0.799316
    16299.918500       0.799315
    16326.530600       0.799324
    16353.229800       0.799343
    16380.016400       0.799371
    16406.890900       0.799407
    16433.853700       0.799451
    16460.905300       0.799503
    16488.046200       0.799562
    16515.276600       0.799629
    16542.597200       0.799701
    16570.008300       0.799779
    16597.510400       0.799863
    16625.103900       0.799952
    16652.789300       0.800045
    16680.567100       0.800141
    16708.437800       0.800242
    16736.401700       0.800345
    16764.459300       0.800450
    16792.611300       0.800557
    16820.857900       0.800666
    16849.199700       0.800775
    16877.637100       0.800884
    16906.170800       0.800993
    16934.801000       0.801101
    16963.528400       0.801207
    16992.353400       0.801311
    17021.276600       0.801413
    17050.298400       0.801510
    17079.419300       0.801604
    17108.639900       0.801694
    17137.960600       0.801778
    17167.382000       0.801856
    17196.904600       0.801928
    17226.528900       0.801992
    17256.255400       0.802049
    17286.084700       0.802098
    17316.017300       0.802137
    17346.053800       0.802167
    17376.194600       0.802186
    17406.440400       0.802194
    17436.791600       0.802191
    17467.248900       0.802175
    17497.812800       0.802145
    17528.483800       0.802102
    17559.262500       0.802045
    17590.149500       0.801972
    17621.145400       0.801884
    17652.250700       0.801778
    17683.466000       0.801656
    17714.791900       0.801515
    17746.228900       0.801356
    17777.777800       0.801177
    17809.439000       0.800978
    17841.213200       0.800758
    17873.101000       0.800516
    17905.103000       0.800252
    17937.219700       0.799964
    17969.451900       0.799653
    18001.800200       0.799317
    18034.265100       0.798956
    18066.847300       0.798569
    18099.547500       0.798154
    18132.366300       0.797713
    18165.304300       0.797242
    18198.362100       0.796743
    18231.540600       0.796214
    18264.840200       0.795654
    18298.261700       0.795063
    18331.805700       0.794440
    18365.472900       0.793784
    18399.264000       0.793094
    18433.179700       0.792370
    18467.220700       0.791611
    18501.387600       0.790816
    18535.681200       0.789985
    18570.102100       0.789116
    18604.651200       0.788210
    18639.329000       0.787264
    18674.136300       0.786279
    18709.073900       0.785254
    18744.142500       0.784188
    18779.342700       0.783080
    18814.675400       0.781930
    18850.141400       0.780736
    18885.741300       0.779499
    18921.475900       0.778217
    18957.346000       0.776890
    18993.352300       0.775517
    19029.495700       0.774098
    19065.776900       0.772631
    19102.196800       0.771117
    19138.756000       0.769553
    19175.455400       0.767941
    19212.295900       0.766278
    19249.278200       0.764565
    19286.403100       0.762800
    19323.671500       0.760984
    19361.084200       0.759115
    19398.642100       0.757193
    19436.346000       0.755217
    19474.196700       0.753187
    19512.195100       0.751102
    19550.342100       0.748962
    19588.638600       0.746765
    19627.085400       0.744512
    19665.683400       0.742202
    19704.433500       0.739834
    19743.336600       0.737408
    19782.393700       0.734923
    19821.605600       0.732379
    19860.973200       0.729775
    19900.497500       0.727111
    19940.179500       0.724386
    19980.020000       0.721600
    20020.020000       0.718753
    20060.180500       0.715843
    20100.502500       0.712872
    20140.986900       0.709837
    20181.634700       0.706740
    20222.446900       0.703579
    20263.424500       0.700354
    20304.568500       0.697065
    20345.880000       0.693712
    20387.359800       0.690294
    20429.009200       0.686811
    20470.829100       0.683263
    20512.820500       0.679650
    20554.984600       0.675970
    20597.322300       0.672225
    20639.834900       0.668414
    20682.523300       0.664537
    20725.388600       0.660594
    20768.432000       0.656584
    20811.654500       0.652508
    20855.057400       0.648365
    20898.641600       0.644155
    20942.408400       0.639879
    20986.358900       0.635537
    21030.494200       0.631128
    21074.815600       0.626652
    21119.324200       0.622110
    21164.021200       0.617502
    21208.907700       0.612828
    21253.985100       0.608088
    21299.254500       0.603281
    21344.717200       0.598410
    21390.374300       0.593473
    21436.227200       0.588471
    21482.277100       0.583404
    21528.525300       0.578273
    21574.973000       0.573077
    21621.621600       0.567818
    21668.472400       0.562496
    21715.526600       0.557111
    21762.785600       0.551664
    21810.250800       0.546154
    21857.923500       0.540584
    21905.805000       0.534953
    21953.896800       0.529262
    22002.200200       0.523511
    22050.716600       0.517702
    22099.447500       0.511835
    22148.394200       0.505911
    22197.558300       0.499930
    22246.941000       0.493893
    22296.544000       0.487802
    22346.368700       0.481657
    22396.416600       0.475459
    22446.689100       0.469209
    22497.187900       0.462909
    22547.914300       0.456559
    22598.870100       0.450159
    22650.056600       0.443713
    22701.475600       0.437220
    22753.128600       0.430681
    22805.017100       0.424099
    22857.142900       0.417475
    22909.507400       0.410809
    22962.112500       0.404103
    23014.959700       0.397359
    23068.050700       0.390578
    23121.387300       0.383762
    23174.971000       0.376912
    23228.803700       0.370030
    23282.887100       0.363118
    23337.222900       0.356176
    23391.812900       0.349208
    23446.658900       0.342215
    23501.762600       0.335199
    23557.126000       0.328161
    23612.750900       0.321104
    23668.639100       0.314030
    23724.792400       0.306940
    23781.212800       0.299838
    23837.902300       0.292724
    23894.862600       0.285602
    23952.095800       0.278473
    24009.603800       0.271341
    24067.388700       0.264207
    24125.452400       0.257074
    24183.796900       0.249944
    24242.424200       0.242820
    24301.336600       0.235704
    24360.535900       0.228600
    24420.024400       0.221510
    24479.804200       0.214437
    24539.877300       0.207384
    24600.246000       0.200353
    24660.912500       0.193347
    24721.878900       0.186371
    24783.147500       0.179426
    24844.720500       0.172516
    24906.600200       0.165645
    24968.789000       0.158815
    25031.289100       0.152030
    25094.102900       0.145293
    25157.232700       0.138608
    25220.681000       0.131978
    25284.450100       0.125408
    25348.542500       0.118900
    25412.960600       0.112459
    25477.707000       0.106088
