91,   91, MVIRI VIS channel from srf_MET7_2008348_2008349_1801-Release_S10EE_10.dat
Number of data points:
793
Wavenumber (cm-1)   Filter response
     8442.380800       0.000000
     8449.514200       0.000000
     8456.659600       0.000004
     8463.817200       0.000056
     8470.986900       0.000165
     8478.168700       0.000330
     8485.362700       0.000550
     8492.569000       0.000822
     8499.787500       0.001146
     8507.018300       0.001519
     8514.261400       0.001940
     8521.516800       0.002408
     8528.784600       0.002922
     8536.064900       0.003480
     8543.357500       0.004081
     8550.662700       0.004724
     8557.980300       0.005407
     8565.310500       0.006131
     8572.653200       0.006892
     8580.008600       0.007691
     8587.376600       0.008527
     8594.757200       0.009399
     8602.150500       0.010305
     8609.556600       0.011245
     8616.975400       0.012217
     8624.407100       0.013223
     8631.851500       0.014259
     8639.308900       0.015326
     8646.779100       0.016424
     8654.262200       0.017551
     8661.758300       0.018706
     8669.267400       0.019890
     8676.789600       0.021101
     8684.324800       0.022340
     8691.873100       0.023605
     8699.434500       0.024896
     8707.009100       0.026213
     8714.596900       0.027555
     8722.198000       0.028921
     8729.812300       0.030313
     8737.439900       0.031728
     8745.080900       0.033167
     8752.735200       0.034629
     8760.403000       0.036114
     8768.084200       0.037623
     8775.778900       0.039153
     8783.487000       0.040706
     8791.208800       0.042281
     8798.944100       0.043879
     8806.693100       0.045498
     8814.455700       0.047138
     8822.232000       0.048800
     8830.022100       0.050483
     8837.825900       0.052187
     8845.643500       0.053913
     8853.475000       0.055659
     8861.320300       0.057426
     8869.179600       0.059214
     8877.052800       0.061023
     8884.940000       0.062852
     8892.841300       0.064702
     8900.756600       0.066573
     8908.686000       0.068464
     8916.629500       0.070376
     8924.587200       0.072308
     8932.559200       0.074262
     8940.545400       0.076235
     8948.545900       0.078230
     8956.560700       0.080245
     8964.589900       0.082281
     8972.633500       0.084338
     8980.691500       0.086415
     8988.764000       0.088514
     8996.851100       0.090633
     9004.952700       0.092773
     9013.068900       0.094935
     9021.199800       0.097117
     9029.345400       0.099321
     9037.505600       0.101546
     9045.680700       0.103793
     9053.870500       0.106061
     9062.075200       0.108350
     9070.294800       0.110662
     9078.529300       0.112994
     9086.778700       0.115349
     9095.043200       0.117726
     9103.322700       0.120124
     9111.617300       0.122545
     9119.927000       0.124988
     9128.251900       0.127453
     9136.592100       0.129941
     9144.947400       0.132451
     9153.318100       0.134983
     9161.704100       0.137538
     9170.105500       0.140116
     9178.522300       0.142717
     9186.954500       0.145340
     9195.402300       0.147987
     9203.865600       0.150656
     9212.344500       0.153348
     9220.839100       0.156064
     9229.349300       0.158803
     9237.875300       0.161565
     9246.417000       0.164350
     9254.974500       0.167159
     9263.547900       0.169992
     9272.137200       0.172847
     9280.742500       0.175727
     9289.363700       0.178629
     9298.000900       0.181556
     9306.654300       0.184506
     9315.323700       0.187480
     9324.009300       0.190477
     9332.711200       0.193499
     9341.429200       0.196543
     9350.163600       0.199612
     9358.914400       0.202704
     9367.681500       0.205820
     9376.465100       0.208960
     9385.265100       0.212123
     9394.081700       0.215311
     9402.914900       0.218521
     9411.764700       0.221755
     9420.631200       0.225013
     9429.514400       0.228294
     9438.414300       0.231599
     9447.331100       0.234927
     9456.264800       0.238279
     9465.215300       0.241654
     9474.182900       0.245051
     9483.167400       0.248473
     9492.169000       0.251916
     9501.187600       0.255384
     9510.223500       0.258874
     9519.276500       0.262386
     9528.346800       0.265921
     9537.434400       0.269479
     9546.539400       0.273059
     9555.661700       0.276661
     9564.801500       0.280285
     9573.958800       0.283931
     9583.133700       0.287599
     9592.326100       0.291289
     9601.536200       0.295000
     9610.764100       0.298732
     9620.009600       0.302485
     9629.273000       0.306260
     9638.554200       0.310054
     9647.853400       0.313870
     9657.170400       0.317706
     9666.505600       0.321562
     9675.858700       0.325438
     9685.230000       0.329333
     9694.619500       0.333248
     9704.027200       0.337182
     9713.453100       0.341135
     9722.897400       0.345107
     9732.360100       0.349097
     9741.841200       0.353106
     9751.340800       0.357132
     9760.859000       0.361176
     9770.395700       0.365238
     9779.951100       0.369316
     9789.525200       0.373411
     9799.118100       0.377523
     9808.729800       0.381651
     9818.360300       0.385795
     9828.009800       0.389954
     9837.678300       0.394129
     9847.365800       0.398319
     9857.072400       0.402523
     9866.798200       0.406742
     9876.543200       0.410974
     9886.307500       0.415221
     9896.091000       0.419480
     9905.894000       0.423753
     9915.716400       0.428038
     9925.558300       0.432335
     9935.419800       0.436644
     9945.300800       0.440964
     9955.201600       0.445295
     9965.122100       0.449638
     9975.062300       0.453990
     9985.022500       0.458352
     9995.002500       0.462725
    10005.002500       0.467106
    10015.022500       0.471495
    10025.062700       0.475893
    10035.122900       0.480299
    10045.203400       0.484713
    10055.304200       0.489133
    10065.425300       0.493560
    10075.566800       0.497994
    10085.728700       0.502433
    10095.911200       0.506878
    10106.114200       0.511328
    10116.337900       0.515782
    10126.582300       0.520240
    10136.847400       0.524702
    10147.133400       0.529167
    10157.440300       0.533635
    10167.768200       0.538105
    10178.117000       0.542577
    10188.487000       0.547050
    10198.878100       0.551524
    10209.290500       0.555999
    10219.724100       0.560474
    10230.179000       0.564948
    10240.655400       0.569422
    10251.153300       0.573894
    10261.672700       0.578365
    10272.213700       0.582833
    10282.776300       0.587298
    10293.360800       0.591760
    10303.967000       0.596219
    10314.595200       0.600673
    10325.245200       0.605123
    10335.917300       0.609567
    10346.611500       0.614006
    10357.327800       0.618439
    10368.066400       0.622866
    10378.827200       0.627285
    10389.610400       0.631698
    10400.416000       0.636102
    10411.244100       0.640497
    10422.094800       0.644884
    10432.968200       0.649262
    10443.864200       0.653629
    10454.783100       0.657987
    10465.724800       0.662333
    10476.689400       0.666669
    10487.677000       0.670993
    10498.687700       0.675304
    10509.721500       0.679603
    10520.778500       0.683889
    10531.858900       0.688161
    10542.962600       0.692420
    10554.089700       0.696664
    10565.240400       0.700893
    10576.414600       0.705106
    10587.612500       0.709304
    10598.834100       0.713485
    10610.079600       0.717650
    10621.348900       0.721797
    10632.642200       0.725927
    10643.959600       0.730039
    10655.301000       0.734132
    10666.666700       0.738206
    10678.056600       0.742261
    10689.470900       0.746296
    10700.909600       0.750310
    10712.372800       0.754304
    10723.860600       0.758277
    10735.373100       0.762228
    10746.910300       0.766158
    10758.472300       0.770065
    10770.059200       0.773949
    10781.671200       0.777809
    10793.308100       0.781647
    10804.970300       0.785460
    10816.657700       0.789249
    10828.370300       0.793013
    10840.108400       0.796752
    10851.871900       0.800465
    10863.661100       0.804152
    10875.475800       0.807813
    10887.316300       0.811447
    10899.182600       0.815054
    10911.074700       0.818634
    10922.992900       0.822186
    10934.937100       0.825710
    10946.907500       0.829205
    10958.904100       0.832671
    10970.927000       0.836108
    10982.976400       0.839516
    10995.052200       0.842894
    11007.154700       0.846241
    11019.283700       0.849558
    11031.439600       0.852844
    11043.622300       0.856099
    11055.832000       0.859322
    11068.068600       0.862514
    11080.332400       0.865674
    11092.623400       0.868801
    11104.941700       0.871896
    11117.287400       0.874958
    11129.660500       0.877986
    11142.061300       0.880981
    11154.489700       0.883943
    11166.945800       0.886870
    11179.429800       0.889763
    11191.941800       0.892622
    11204.481800       0.895446
    11217.049900       0.898235
    11229.646300       0.900989
    11242.270900       0.903707
    11254.924000       0.906390
    11267.605600       0.909037
    11280.315800       0.911648
    11293.054800       0.914223
    11305.822500       0.916762
    11318.619100       0.919264
    11331.444800       0.921729
    11344.299500       0.924157
    11357.183400       0.926548
    11370.096600       0.928902
    11383.039300       0.931218
    11396.011400       0.933497
    11409.013100       0.935738
    11422.044500       0.937941
    11435.105800       0.940107
    11448.196900       0.942234
    11461.318100       0.944323
    11474.469300       0.946374
    11487.650800       0.948387
    11500.862600       0.950361
    11514.104800       0.952296
    11527.377500       0.954193
    11540.680900       0.956051
    11554.015000       0.957870
    11567.380000       0.959651
    11580.775900       0.961393
    11594.202900       0.963095
    11607.661100       0.964759
    11621.150500       0.966384
    11634.671300       0.967969
    11648.223600       0.969516
    11661.807600       0.971023
    11675.423200       0.972492
    11689.070700       0.973921
    11702.750100       0.975312
    11716.461600       0.976663
    11730.205300       0.977976
    11743.981200       0.979249
    11757.789500       0.980483
    11771.630400       0.981679
    11785.503800       0.982836
    11799.410000       0.983954
    11813.349100       0.985033
    11827.321100       0.986073
    11841.326200       0.987075
    11855.364600       0.988039
    11869.436200       0.988964
    11883.541300       0.989850
    11897.680000       0.990699
    11911.852300       0.991509
    11926.058400       0.992282
    11940.298500       0.993016
    11954.572600       0.993713
    11968.880900       0.994372
    11983.223500       0.994994
    11997.600500       0.995578
    12012.012000       0.996126
    12026.458200       0.996636
    12040.939200       0.997109
    12055.455100       0.997546
    12070.006000       0.997946
    12084.592100       0.998310
    12099.213600       0.998638
    12113.870400       0.998930
    12128.562800       0.999187
    12143.290800       0.999408
    12158.054700       0.999593
    12172.854500       0.999744
    12187.690400       0.999859
    12202.562500       0.999941
    12217.471000       0.999987
    12232.415900       1.000000
    12247.397400       0.999979
    12262.415700       0.999924
    12277.470800       0.999836
    12292.563000       0.999715
    12307.692300       0.999561
    12322.858900       0.999374
    12338.062900       0.999156
    12353.304500       0.998905
    12368.583800       0.998623
    12383.900900       0.998309
    12399.256000       0.997964
    12414.649300       0.997589
    12430.080800       0.997183
    12445.550700       0.996747
    12461.059200       0.996281
    12476.606400       0.995786
    12492.192400       0.995261
    12507.817400       0.994708
    12523.481500       0.994126
    12539.185000       0.993516
    12554.927800       0.992879
    12570.710200       0.992214
    12586.532400       0.991522
    12602.394500       0.990803
    12618.296500       0.990058
    12634.238800       0.989287
    12650.221400       0.988491
    12666.244500       0.987669
    12682.308200       0.986823
    12698.412700       0.985952
    12714.558200       0.985057
    12730.744700       0.984138
    12746.972600       0.983196
    12763.241900       0.982231
    12779.552700       0.981244
    12795.905300       0.980235
    12812.299800       0.979204
    12828.736400       0.978152
    12845.215200       0.977079
    12861.736300       0.975986
    12878.300100       0.974872
    12894.906500       0.973739
    12911.555800       0.972587
    12928.248200       0.971417
    12944.983800       0.970228
    12961.762800       0.969021
    12978.585300       0.967797
    12995.451600       0.966555
    13012.361700       0.965297
    13029.316000       0.964024
    13046.314400       0.962734
    13063.357300       0.961429
    13080.444700       0.960110
    13097.576900       0.958776
    13114.754100       0.957428
    13131.976400       0.956066
    13149.243900       0.954692
    13166.556900       0.953305
    13183.915600       0.951906
    13201.320100       0.950496
    13218.770700       0.949074
    13236.267400       0.947641
    13253.810500       0.946198
    13271.400100       0.944746
    13289.036500       0.943284
    13306.719900       0.941813
    13324.450400       0.940333
    13342.228200       0.938845
    13360.053400       0.937350
    13377.926400       0.935848
    13395.847300       0.934339
    13413.816200       0.932824
    13431.833400       0.931302
    13449.899100       0.929776
    13468.013500       0.928245
    13486.176700       0.926709
    13504.388900       0.925169
    13522.650400       0.923626
    13540.961400       0.922080
    13559.322000       0.920531
    13577.732500       0.918979
    13596.193100       0.917426
    13614.703900       0.915872
    13633.265200       0.914317
    13651.877100       0.912761
    13670.540000       0.911205
    13689.253900       0.909650
    13708.019200       0.908095
    13726.836000       0.906542
    13745.704500       0.904990
    13764.624900       0.903440
    13783.597500       0.901893
    13802.622500       0.900349
    13821.700100       0.898808
    13840.830400       0.897271
    13860.013900       0.895738
    13879.250500       0.894209
    13898.540700       0.892686
    13917.884500       0.891168
    13937.282200       0.889655
    13956.734100       0.888149
    13976.240400       0.886649
    13995.801300       0.885156
    14015.417000       0.883670
    14035.087700       0.882192
    14054.813800       0.880722
    14074.595400       0.879260
    14094.432700       0.877807
    14114.326000       0.876363
    14134.275600       0.874929
    14154.281700       0.873504
    14174.344400       0.872089
    14194.464200       0.870685
    14214.641100       0.869292
    14234.875400       0.867909
    14255.167500       0.866539
    14275.517500       0.865180
    14295.925700       0.863832
    14316.392300       0.862498
    14336.917600       0.861176
    14357.501800       0.859867
    14378.145200       0.858571
    14398.848100       0.857289
    14419.610700       0.856020
    14440.433200       0.854766
    14461.316000       0.853526
    14482.259200       0.852300
    14503.263200       0.851089
    14524.328200       0.849894
    14545.454500       0.848714
    14566.642400       0.847549
    14587.892000       0.846400
    14609.203800       0.845267
    14630.577900       0.844151
    14652.014700       0.843050
    14673.514300       0.841967
    14695.077100       0.840900
    14716.703500       0.839850
    14738.393500       0.838818
    14760.147600       0.837802
    14781.966000       0.836805
    14803.849000       0.835825
    14825.796900       0.834862
    14847.809900       0.833918
    14869.888500       0.832992
    14892.032800       0.832084
    14914.243100       0.831194
    14936.519800       0.830323
    14958.863100       0.829470
    14981.273400       0.828636
    15003.750900       0.827820
    15026.296000       0.827023
    15048.909000       0.826246
    15071.590100       0.825487
    15094.339600       0.824747
    15117.158000       0.824026
    15140.045400       0.823324
    15163.002300       0.822641
    15186.028900       0.821977
    15209.125500       0.821332
    15232.292500       0.820707
    15255.530100       0.820100
    15278.838800       0.819513
    15302.218800       0.818944
    15325.670500       0.818395
    15349.194200       0.817864
    15372.790200       0.817353
    15396.458800       0.816860
    15420.200500       0.816386
    15444.015400       0.815931
    15467.904100       0.815494
    15491.866800       0.815076
    15515.903800       0.814676
    15540.015500       0.814295
    15564.202300       0.813932
    15588.464500       0.813586
    15612.802500       0.813259
    15637.216600       0.812950
    15661.707100       0.812658
    15686.274500       0.812383
    15710.919100       0.812126
    15735.641200       0.811885
    15760.441300       0.811662
    15785.319700       0.811455
    15810.276700       0.811264
    15835.312700       0.811090
    15860.428200       0.810932
    15885.623500       0.810789
    15910.899000       0.810662
    15936.255000       0.810550
    15961.691900       0.810453
    15987.210200       0.810371
    16012.810200       0.810303
    16038.492400       0.810249
    16064.257000       0.810208
    16090.104600       0.810182
    16116.035500       0.810168
    16142.050000       0.810167
    16168.148700       0.810178
    16194.332000       0.810202
    16220.600200       0.810237
    16246.953700       0.810283
    16273.393000       0.810341
    16299.918500       0.810408
    16326.530600       0.810486
    16353.229800       0.810574
    16380.016400       0.810671
    16406.890900       0.810777
    16433.853700       0.810892
    16460.905300       0.811014
    16488.046200       0.811144
    16515.276600       0.811281
    16542.597200       0.811425
    16570.008300       0.811575
    16597.510400       0.811730
    16625.103900       0.811891
    16652.789300       0.812056
    16680.567100       0.812225
    16708.437800       0.812398
    16736.401700       0.812574
    16764.459300       0.812753
    16792.611300       0.812934
    16820.857900       0.813116
    16849.199700       0.813299
    16877.637100       0.813482
    16906.170800       0.813665
    16934.801000       0.813847
    16963.528400       0.814028
    16992.353400       0.814207
    17021.276600       0.814383
    17050.298400       0.814556
    17079.419300       0.814725
    17108.639900       0.814890
    17137.960600       0.815049
    17167.382000       0.815203
    17196.904600       0.815350
    17226.528900       0.815491
    17256.255400       0.815623
    17286.084700       0.815748
    17316.017300       0.815863
    17346.053800       0.815968
    17376.194600       0.816063
    17406.440400       0.816147
    17436.791600       0.816220
    17467.248900       0.816280
    17497.812800       0.816326
    17528.483800       0.816359
    17559.262500       0.816377
    17590.149500       0.816380
    17621.145400       0.816367
    17652.250700       0.816337
    17683.466000       0.816289
    17714.791900       0.816223
    17746.228900       0.816139
    17777.777800       0.816034
    17809.439000       0.815910
    17841.213200       0.815764
    17873.101000       0.815596
    17905.103000       0.815405
    17937.219700       0.815191
    17969.451900       0.814953
    18001.800200       0.814690
    18034.265100       0.814401
    18066.847300       0.814085
    18099.547500       0.813742
    18132.366300       0.813371
    18165.304300       0.812972
    18198.362100       0.812543
    18231.540600       0.812083
    18264.840200       0.811592
    18298.261700       0.811070
    18331.805700       0.810515
    18365.472900       0.809926
    18399.264000       0.809303
    18433.179700       0.808645
    18467.220700       0.807952
    18501.387600       0.807221
    18535.681200       0.806454
    18570.102100       0.805649
    18604.651200       0.804804
    18639.329000       0.803920
    18674.136300       0.802996
    18709.073900       0.802031
    18744.142500       0.801024
    18779.342700       0.799974
    18814.675400       0.798881
    18850.141400       0.797744
    18885.741300       0.796562
    18921.475900       0.795334
    18957.346000       0.794060
    18993.352300       0.792739
    19029.495700       0.791371
    19065.776900       0.789954
    19102.196800       0.788488
    19138.756000       0.786971
    19175.455400       0.785405
    19212.295900       0.783787
    19249.278200       0.782117
    19286.403100       0.780395
    19323.671500       0.778619
    19361.084200       0.776789
    19398.642100       0.774905
    19436.346000       0.772966
    19474.196700       0.770971
    19512.195100       0.768919
    19550.342100       0.766810
    19588.638600       0.764644
    19627.085400       0.762419
    19665.683400       0.760136
    19704.433500       0.757793
    19743.336600       0.755390
    19782.393700       0.752927
    19821.605600       0.750402
    19860.973200       0.747816
    19900.497500       0.745168
    19940.179500       0.742457
    19980.020000       0.739684
    20020.020000       0.736846
    20060.180500       0.733945
    20100.502500       0.730980
    20140.986900       0.727949
    20181.634700       0.724854
    20222.446900       0.721693
    20263.424500       0.718465
    20304.568500       0.715172
    20345.880000       0.711812
    20387.359800       0.708385
    20429.009200       0.704890
    20470.829100       0.701329
    20512.820500       0.697699
    20554.984600       0.694001
    20597.322300       0.690235
    20639.834900       0.686401
    20682.523300       0.682498
    20725.388600       0.678526
    20768.432000       0.674485
    20811.654500       0.670375
    20855.057400       0.666196
    20898.641600       0.661948
    20942.408400       0.657630
    20986.358900       0.653244
    21030.494200       0.648788
    21074.815600       0.644263
    21119.324200       0.639668
    21164.021200       0.635005
    21208.907700       0.630273
    21253.985100       0.625471
    21299.254500       0.620602
    21344.717200       0.615663
    21390.374300       0.610657
    21436.227200       0.605582
    21482.277100       0.600440
    21528.525300       0.595230
    21574.973000       0.589954
    21621.621600       0.584610
    21668.472400       0.579201
    21715.526600       0.573725
    21762.785600       0.568185
    21810.250800       0.562579
    21857.923500       0.556909
    21905.805000       0.551175
    21953.896800       0.545379
    22002.200200       0.539519
    22050.716600       0.533598
    22099.447500       0.527616
    22148.394200       0.521574
    22197.558300       0.515472
    22246.941000       0.509311
    22296.544000       0.503092
    22346.368700       0.496817
    22396.416600       0.490485
    22446.689100       0.484099
    22497.187900       0.477659
    22547.914300       0.471165
    22598.870100       0.464620
    22650.056600       0.458024
    22701.475600       0.451379
    22753.128600       0.444686
    22805.017100       0.437946
    22857.142900       0.431160
    22909.507400       0.424330
    22962.112500       0.417457
    23014.959700       0.410543
    23068.050700       0.403590
    23121.387300       0.396598
    23174.971000       0.389569
    23228.803700       0.382506
    23282.887100       0.375409
    23337.222900       0.368281
    23391.812900       0.361124
    23446.658900       0.353938
    23501.762600       0.346727
    23557.126000       0.339492
    23612.750900       0.332236
    23668.639100       0.324959
    23724.792400       0.317665
    23781.212800       0.310356
    23837.902300       0.303033
    23894.862600       0.295700
    23952.095800       0.288358
    24009.603800       0.281010
    24067.388700       0.273658
    24125.452400       0.266306
    24183.796900       0.258955
    24242.424200       0.251608
    24301.336600       0.244269
    24360.535900       0.236939
    24420.024400       0.229622
    24479.804200       0.222320
    24539.877300       0.215037
    24600.246000       0.207775
    24660.912500       0.200538
    24721.878900       0.193329
    24783.147500       0.186150
    24844.720500       0.179007
    24906.600200       0.171900
    24968.789000       0.164835
    25031.289100       0.157815
    25094.102900       0.150843
    25157.232700       0.143923
    25220.681000       0.137059
    25284.450100       0.130254
    25348.542500       0.123512
    25412.960600       0.116838
    25477.707000       0.110235
