57,   57, MVIRI VIS channel from srf_MET7_2004258_2004259_1801-Release_S10EE_10.dat
Number of data points:
793
Wavenumber (cm-1)   Filter response
     8442.380800       0.000000
     8449.514200       0.000000
     8456.659600       0.000004
     8463.817200       0.000055
     8470.986900       0.000161
     8478.168700       0.000323
     8485.362700       0.000538
     8492.569000       0.000804
     8499.787500       0.001120
     8507.018300       0.001485
     8514.261400       0.001897
     8521.516800       0.002355
     8528.784600       0.002857
     8536.064900       0.003403
     8543.357500       0.003991
     8550.662700       0.004620
     8557.980300       0.005289
     8565.310500       0.005997
     8572.653200       0.006742
     8580.008600       0.007524
     8587.376600       0.008342
     8594.757200       0.009195
     8602.150500       0.010082
     8609.556600       0.011002
     8616.975400       0.011954
     8624.407100       0.012938
     8631.851500       0.013953
     8639.308900       0.014998
     8646.779100       0.016072
     8654.262200       0.017176
     8661.758300       0.018307
     8669.267400       0.019467
     8676.789600       0.020653
     8684.324800       0.021866
     8691.873100       0.023105
     8699.434500       0.024370
     8707.009100       0.025660
     8714.596900       0.026975
     8722.198000       0.028314
     8729.812300       0.029677
     8737.439900       0.031064
     8745.080900       0.032475
     8752.735200       0.033908
     8760.403000       0.035364
     8768.084200       0.036842
     8775.778900       0.038343
     8783.487000       0.039865
     8791.208800       0.041410
     8798.944100       0.042976
     8806.693100       0.044563
     8814.455700       0.046172
     8822.232000       0.047802
     8830.022100       0.049453
     8837.825900       0.051125
     8845.643500       0.052817
     8853.475000       0.054530
     8861.320300       0.056264
     8869.179600       0.058019
     8877.052800       0.059793
     8884.940000       0.061589
     8892.841300       0.063404
     8900.756600       0.065241
     8908.686000       0.067097
     8916.629500       0.068974
     8924.587200       0.070871
     8932.559200       0.072789
     8940.545400       0.074727
     8948.545900       0.076685
     8956.560700       0.078664
     8964.589900       0.080664
     8972.633500       0.082684
     8980.691500       0.084724
     8988.764000       0.086786
     8996.851100       0.088868
     9004.952700       0.090971
     9013.068900       0.093094
     9021.199800       0.095239
     9029.345400       0.097405
     9037.505600       0.099592
     9045.680700       0.101800
     9053.870500       0.104029
     9062.075200       0.106280
     9070.294800       0.108552
     9078.529300       0.110846
     9086.778700       0.113161
     9095.043200       0.115498
     9103.322700       0.117857
     9111.617300       0.120238
     9119.927000       0.122640
     9128.251900       0.125065
     9136.592100       0.127512
     9144.947400       0.129982
     9153.318100       0.132473
     9161.704100       0.134987
     9170.105500       0.137524
     9178.522300       0.140084
     9186.954500       0.142665
     9195.402300       0.145270
     9203.865600       0.147898
     9212.344500       0.150548
     9220.839100       0.153222
     9229.349300       0.155918
     9237.875300       0.158638
     9246.417000       0.161381
     9254.974500       0.164148
     9263.547900       0.166937
     9272.137200       0.169750
     9280.742500       0.172586
     9289.363700       0.175446
     9298.000900       0.178329
     9306.654300       0.181236
     9315.323700       0.184166
     9324.009300       0.187121
     9332.711200       0.190098
     9341.429200       0.193099
     9350.163600       0.196124
     9358.914400       0.199172
     9367.681500       0.202245
     9376.465100       0.205340
     9385.265100       0.208459
     9394.081700       0.211602
     9402.914900       0.214769
     9411.764700       0.217959
     9420.631200       0.221172
     9429.514400       0.224409
     9438.414300       0.227670
     9447.331100       0.230953
     9456.264800       0.234260
     9465.215300       0.237591
     9474.182900       0.240944
     9483.167400       0.244321
     9492.169000       0.247720
     9501.187600       0.251143
     9510.223500       0.254588
     9519.276500       0.258056
     9528.346800       0.261547
     9537.434400       0.265061
     9546.539400       0.268596
     9555.661700       0.272154
     9564.801500       0.275734
     9573.958800       0.279336
     9583.133700       0.282960
     9592.326100       0.286605
     9601.536200       0.290273
     9610.764100       0.293961
     9620.009600       0.297671
     9629.273000       0.301401
     9638.554200       0.305153
     9647.853400       0.308925
     9657.170400       0.312717
     9666.505600       0.316530
     9675.858700       0.320364
     9685.230000       0.324216
     9694.619500       0.328089
     9704.027200       0.331980
     9713.453100       0.335891
     9722.897400       0.339821
     9732.360100       0.343769
     9741.841200       0.347736
     9751.340800       0.351721
     9760.859000       0.355724
     9770.395700       0.359745
     9779.951100       0.363782
     9789.525200       0.367837
     9799.118100       0.371909
     9808.729800       0.375997
     9818.360300       0.380102
     9828.009800       0.384221
     9837.678300       0.388357
     9847.365800       0.392509
     9857.072400       0.396674
     9866.798200       0.400855
     9876.543200       0.405050
     9886.307500       0.409259
     9896.091000       0.413482
     9905.894000       0.417717
     9915.716400       0.421966
     9925.558300       0.426227
     9935.419800       0.430501
     9945.300800       0.434786
     9955.201600       0.439083
     9965.122100       0.443391
     9975.062300       0.447709
     9985.022500       0.452038
     9995.002500       0.456377
    10005.002500       0.460726
    10015.022500       0.465084
    10025.062700       0.469450
    10035.122900       0.473825
    10045.203400       0.478208
    10055.304200       0.482599
    10065.425300       0.486996
    10075.566800       0.491401
    10085.728700       0.495811
    10095.911200       0.500228
    10106.114200       0.504651
    10116.337900       0.509078
    10126.582300       0.513510
    10136.847400       0.517946
    10147.133400       0.522386
    10157.440300       0.526829
    10167.768200       0.531275
    10178.117000       0.535724
    10188.487000       0.540175
    10198.878100       0.544627
    10209.290500       0.549080
    10219.724100       0.553534
    10230.179000       0.557989
    10240.655400       0.562443
    10251.153300       0.566896
    10261.672700       0.571348
    10272.213700       0.575799
    10282.776300       0.580247
    10293.360800       0.584694
    10303.967000       0.589137
    10314.595200       0.593576
    10325.245200       0.598012
    10335.917300       0.602443
    10346.611500       0.606870
    10357.327800       0.611291
    10368.066400       0.615706
    10378.827200       0.620115
    10389.610400       0.624518
    10400.416000       0.628913
    10411.244100       0.633301
    10422.094800       0.637681
    10432.968200       0.642052
    10443.864200       0.646414
    10454.783100       0.650766
    10465.724800       0.655109
    10476.689400       0.659441
    10487.677000       0.663762
    10498.687700       0.668072
    10509.721500       0.672370
    10520.778500       0.676656
    10531.858900       0.680929
    10542.962600       0.685189
    10554.089700       0.689435
    10565.240400       0.693667
    10576.414600       0.697885
    10587.612500       0.702087
    10598.834100       0.706275
    10610.079600       0.710446
    10621.348900       0.714601
    10632.642200       0.718739
    10643.959600       0.722860
    10655.301000       0.726963
    10666.666700       0.731048
    10678.056600       0.735115
    10689.470900       0.739162
    10700.909600       0.743191
    10712.372800       0.747199
    10723.860600       0.751187
    10735.373100       0.755155
    10746.910300       0.759101
    10758.472300       0.763026
    10770.059200       0.766929
    10781.671200       0.770809
    10793.308100       0.774667
    10804.970300       0.778502
    10816.657700       0.782313
    10828.370300       0.786101
    10840.108400       0.789864
    10851.871900       0.793602
    10863.661100       0.797315
    10875.475800       0.801003
    10887.316300       0.804665
    10899.182600       0.808301
    10911.074700       0.811910
    10922.992900       0.815492
    10934.937100       0.819047
    10946.907500       0.822575
    10958.904100       0.826074
    10970.927000       0.829545
    10982.976400       0.832987
    10995.052200       0.836401
    11007.154700       0.839785
    11019.283700       0.843139
    11031.439600       0.846464
    11043.622300       0.849758
    11055.832000       0.853021
    11068.068600       0.856254
    11080.332400       0.859456
    11092.623400       0.862626
    11104.941700       0.865764
    11117.287400       0.868870
    11129.660500       0.871944
    11142.061300       0.874985
    11154.489700       0.877993
    11166.945800       0.880968
    11179.429800       0.883910
    11191.941800       0.886818
    11204.481800       0.889693
    11217.049900       0.892533
    11229.646300       0.895338
    11242.270900       0.898110
    11254.924000       0.900846
    11267.605600       0.903548
    11280.315800       0.906214
    11293.054800       0.908844
    11305.822500       0.911439
    11318.619100       0.913999
    11331.444800       0.916522
    11344.299500       0.919009
    11357.183400       0.921460
    11370.096600       0.923875
    11383.039300       0.926252
    11396.011400       0.928593
    11409.013100       0.930897
    11422.044500       0.933164
    11435.105800       0.935394
    11448.196900       0.937586
    11461.318100       0.939741
    11474.469300       0.941858
    11487.650800       0.943937
    11500.862600       0.945979
    11514.104800       0.947983
    11527.377500       0.949949
    11540.680900       0.951877
    11554.015000       0.953767
    11567.380000       0.955618
    11580.775900       0.957432
    11594.202900       0.959207
    11607.661100       0.960943
    11621.150500       0.962642
    11634.671300       0.964301
    11648.223600       0.965923
    11661.807600       0.967506
    11675.423200       0.969050
    11689.070700       0.970557
    11702.750100       0.972024
    11716.461600       0.973453
    11730.205300       0.974844
    11743.981200       0.976196
    11757.789500       0.977510
    11771.630400       0.978785
    11785.503800       0.980022
    11799.410000       0.981221
    11813.349100       0.982382
    11827.321100       0.983504
    11841.326200       0.984588
    11855.364600       0.985635
    11869.436200       0.986643
    11883.541300       0.987614
    11897.680000       0.988546
    11911.852300       0.989441
    11926.058400       0.990299
    11940.298500       0.991119
    11954.572600       0.991902
    11968.880900       0.992647
    11983.223500       0.993356
    11997.600500       0.994027
    12012.012000       0.994662
    12026.458200       0.995260
    12040.939200       0.995822
    12055.455100       0.996347
    12070.006000       0.996836
    12084.592100       0.997289
    12099.213600       0.997707
    12113.870400       0.998089
    12128.562800       0.998435
    12143.290800       0.998746
    12158.054700       0.999023
    12172.854500       0.999264
    12187.690400       0.999471
    12202.562500       0.999644
    12217.471000       0.999782
    12232.415900       0.999887
    12247.397400       0.999958
    12262.415700       0.999995
    12277.470800       1.000000
    12292.563000       0.999972
    12307.692300       0.999911
    12322.858900       0.999817
    12338.062900       0.999692
    12353.304500       0.999535
    12368.583800       0.999346
    12383.900900       0.999126
    12399.256000       0.998876
    12414.649300       0.998594
    12430.080800       0.998283
    12445.550700       0.997941
    12461.059200       0.997570
    12476.606400       0.997169
    12492.192400       0.996739
    12507.817400       0.996281
    12523.481500       0.995794
    12539.185000       0.995279
    12554.927800       0.994737
    12570.710200       0.994167
    12586.532400       0.993570
    12602.394500       0.992946
    12618.296500       0.992296
    12634.238800       0.991621
    12650.221400       0.990919
    12666.244500       0.990193
    12682.308200       0.989442
    12698.412700       0.988666
    12714.558200       0.987866
    12730.744700       0.987043
    12746.972600       0.986196
    12763.241900       0.985327
    12779.552700       0.984435
    12795.905300       0.983521
    12812.299800       0.982585
    12828.736400       0.981628
    12845.215200       0.980650
    12861.736300       0.979651
    12878.300100       0.978633
    12894.906500       0.977595
    12911.555800       0.976538
    12928.248200       0.975462
    12944.983800       0.974368
    12961.762800       0.973255
    12978.585300       0.972126
    12995.451600       0.970979
    13012.361700       0.969815
    13029.316000       0.968635
    13046.314400       0.967440
    13063.357300       0.966229
    13080.444700       0.965004
    13097.576900       0.963763
    13114.754100       0.962509
    13131.976400       0.961242
    13149.243900       0.959961
    13166.556900       0.958667
    13183.915600       0.957362
    13201.320100       0.956044
    13218.770700       0.954715
    13236.267400       0.953376
    13253.810500       0.952026
    13271.400100       0.950666
    13289.036500       0.949296
    13306.719900       0.947917
    13324.450400       0.946530
    13342.228200       0.945135
    13360.053400       0.943732
    13377.926400       0.942321
    13395.847300       0.940904
    13413.816200       0.939480
    13431.833400       0.938051
    13449.899100       0.936616
    13468.013500       0.935176
    13486.176700       0.933731
    13504.388900       0.932283
    13522.650400       0.930831
    13540.961400       0.929375
    13559.322000       0.927917
    13577.732500       0.926456
    13596.193100       0.924994
    13614.703900       0.923530
    13633.265200       0.922065
    13651.877100       0.920599
    13670.540000       0.919133
    13689.253900       0.917668
    13708.019200       0.916203
    13726.836000       0.914740
    13745.704500       0.913278
    13764.624900       0.911818
    13783.597500       0.910360
    13802.622500       0.908905
    13821.700100       0.907454
    13840.830400       0.906006
    13860.013900       0.904562
    13879.250500       0.903123
    13898.540700       0.901689
    13917.884500       0.900260
    13937.282200       0.898836
    13956.734100       0.897419
    13976.240400       0.896008
    13995.801300       0.894604
    14015.417000       0.893208
    14035.087700       0.891819
    14054.813800       0.890437
    14074.595400       0.889065
    14094.432700       0.887701
    14114.326000       0.886346
    14134.275600       0.885000
    14154.281700       0.883665
    14174.344400       0.882339
    14194.464200       0.881024
    14214.641100       0.879720
    14234.875400       0.878427
    14255.167500       0.877145
    14275.517500       0.875876
    14295.925700       0.874618
    14316.392300       0.873373
    14336.917600       0.872141
    14357.501800       0.870921
    14378.145200       0.869715
    14398.848100       0.868523
    14419.610700       0.867345
    14440.433200       0.866181
    14461.316000       0.865031
    14482.259200       0.863896
    14503.263200       0.862776
    14524.328200       0.861671
    14545.454500       0.860582
    14566.642400       0.859509
    14587.892000       0.858452
    14609.203800       0.857410
    14630.577900       0.856385
    14652.014700       0.855377
    14673.514300       0.854386
    14695.077100       0.853412
    14716.703500       0.852455
    14738.393500       0.851515
    14760.147600       0.850593
    14781.966000       0.849689
    14803.849000       0.848803
    14825.796900       0.847935
    14847.809900       0.847085
    14869.888500       0.846254
    14892.032800       0.845441
    14914.243100       0.844646
    14936.519800       0.843871
    14958.863100       0.843114
    14981.273400       0.842376
    15003.750900       0.841658
    15026.296000       0.840958
    15048.909000       0.840278
    15071.590100       0.839617
    15094.339600       0.838975
    15117.158000       0.838353
    15140.045400       0.837750
    15163.002300       0.837167
    15186.028900       0.836603
    15209.125500       0.836059
    15232.292500       0.835535
    15255.530100       0.835029
    15278.838800       0.834544
    15302.218800       0.834078
    15325.670500       0.833631
    15349.194200       0.833204
    15372.790200       0.832796
    15396.458800       0.832408
    15420.200500       0.832039
    15444.015400       0.831689
    15467.904100       0.831358
    15491.866800       0.831046
    15515.903800       0.830753
    15540.015500       0.830479
    15564.202300       0.830224
    15588.464500       0.829987
    15612.802500       0.829769
    15637.216600       0.829569
    15661.707100       0.829387
    15686.274500       0.829223
    15710.919100       0.829077
    15735.641200       0.828949
    15760.441300       0.828838
    15785.319700       0.828744
    15810.276700       0.828667
    15835.312700       0.828607
    15860.428200       0.828564
    15885.623500       0.828536
    15910.899000       0.828525
    15936.255000       0.828530
    15961.691900       0.828550
    15987.210200       0.828585
    16012.810200       0.828636
    16038.492400       0.828701
    16064.257000       0.828780
    16090.104600       0.828873
    16116.035500       0.828980
    16142.050000       0.829101
    16168.148700       0.829234
    16194.332000       0.829380
    16220.600200       0.829538
    16246.953700       0.829709
    16273.393000       0.829890
    16299.918500       0.830083
    16326.530600       0.830287
    16353.229800       0.830501
    16380.016400       0.830724
    16406.890900       0.830957
    16433.853700       0.831200
    16460.905300       0.831450
    16488.046200       0.831709
    16515.276600       0.831975
    16542.597200       0.832249
    16570.008300       0.832529
    16597.510400       0.832816
    16625.103900       0.833108
    16652.789300       0.833405
    16680.567100       0.833707
    16708.437800       0.834013
    16736.401700       0.834322
    16764.459300       0.834634
    16792.611300       0.834949
    16820.857900       0.835266
    16849.199700       0.835584
    16877.637100       0.835903
    16906.170800       0.836222
    16934.801000       0.836540
    16963.528400       0.836857
    16992.353400       0.837173
    17021.276600       0.837486
    17050.298400       0.837797
    17079.419300       0.838104
    17108.639900       0.838406
    17137.960600       0.838704
    17167.382000       0.838996
    17196.904600       0.839282
    17226.528900       0.839562
    17256.255400       0.839833
    17286.084700       0.840097
    17316.017300       0.840351
    17346.053800       0.840596
    17376.194600       0.840830
    17406.440400       0.841054
    17436.791600       0.841265
    17467.248900       0.841465
    17497.812800       0.841651
    17528.483800       0.841823
    17559.262500       0.841980
    17590.149500       0.842122
    17621.145400       0.842248
    17652.250700       0.842356
    17683.466000       0.842447
    17714.791900       0.842520
    17746.228900       0.842573
    17777.777800       0.842607
    17809.439000       0.842619
    17841.213200       0.842610
    17873.101000       0.842579
    17905.103000       0.842524
    17937.219700       0.842446
    17969.451900       0.842343
    18001.800200       0.842214
    18034.265100       0.842059
    18066.847300       0.841876
    18099.547500       0.841666
    18132.366300       0.841427
    18165.304300       0.841159
    18198.362100       0.840860
    18231.540600       0.840529
    18264.840200       0.840167
    18298.261700       0.839772
    18331.805700       0.839344
    18365.472900       0.838880
    18399.264000       0.838382
    18433.179700       0.837848
    18467.220700       0.837276
    18501.387600       0.836667
    18535.681200       0.836019
    18570.102100       0.835332
    18604.651200       0.834605
    18639.329000       0.833837
    18674.136300       0.833027
    18709.073900       0.832174
    18744.142500       0.831278
    18779.342700       0.830338
    18814.675400       0.829353
    18850.141400       0.828322
    18885.741300       0.827244
    18921.475900       0.826119
    18957.346000       0.824946
    18993.352300       0.823723
    19029.495700       0.822451
    19065.776900       0.821129
    19102.196800       0.819755
    19138.756000       0.818330
    19175.455400       0.816851
    19212.295900       0.815319
    19249.278200       0.813733
    19286.403100       0.812092
    19323.671500       0.810395
    19361.084200       0.808641
    19398.642100       0.806831
    19436.346000       0.804962
    19474.196700       0.803035
    19512.195100       0.801049
    19550.342100       0.799003
    19588.638600       0.796896
    19627.085400       0.794729
    19665.683400       0.792499
    19704.433500       0.790207
    19743.336600       0.787851
    19782.393700       0.785432
    19821.605600       0.782949
    19860.973200       0.780401
    19900.497500       0.777787
    19940.179500       0.775108
    19980.020000       0.772362
    20020.020000       0.769549
    20060.180500       0.766668
    20100.502500       0.763719
    20140.986900       0.760702
    20181.634700       0.757615
    20222.446900       0.754459
    20263.424500       0.751234
    20304.568500       0.747938
    20345.880000       0.744571
    20387.359800       0.741133
    20429.009200       0.737624
    20470.829100       0.734042
    20512.820500       0.730389
    20554.984600       0.726664
    20597.322300       0.722866
    20639.834900       0.718994
    20682.523300       0.715050
    20725.388600       0.711032
    20768.432000       0.706941
    20811.654500       0.702776
    20855.057400       0.698537
    20898.641600       0.694224
    20942.408400       0.689837
    20986.358900       0.685376
    21030.494200       0.680841
    21074.815600       0.676231
    21119.324200       0.671548
    21164.021200       0.666790
    21208.907700       0.661958
    21253.985100       0.657051
    21299.254500       0.652072
    21344.717200       0.647018
    21390.374300       0.641891
    21436.227200       0.636690
    21482.277100       0.631417
    21528.525300       0.626070
    21574.973000       0.620651
    21621.621600       0.615160
    21668.472400       0.609597
    21715.526600       0.603963
    21762.785600       0.598258
    21810.250800       0.592482
    21857.923500       0.586636
    21905.805000       0.580721
    21953.896800       0.574738
    22002.200200       0.568685
    22050.716600       0.562566
    22099.447500       0.556380
    22148.394200       0.550127
    22197.558300       0.543810
    22246.941000       0.537428
    22296.544000       0.530982
    22346.368700       0.524474
    22396.416600       0.517904
    22446.689100       0.511273
    22497.187900       0.504582
    22547.914300       0.497833
    22598.870100       0.491026
    22650.056600       0.484164
    22701.475600       0.477246
    22753.128600       0.470274
    22805.017100       0.463249
    22857.142900       0.456174
    22909.507400       0.449049
    22962.112500       0.441876
    23014.959700       0.434656
    23068.050700       0.427390
    23121.387300       0.420081
    23174.971000       0.412731
    23228.803700       0.405340
    23282.887100       0.397911
    23337.222900       0.390445
    23391.812900       0.382945
    23446.658900       0.375412
    23501.762600       0.367848
    23557.126000       0.360256
    23612.750900       0.352637
    23668.639100       0.344994
    23724.792400       0.337329
    23781.212800       0.329644
    23837.902300       0.321942
    23894.862600       0.314225
    23952.095800       0.306495
    24009.603800       0.298755
    24067.388700       0.291008
    24125.452400       0.283257
    24183.796900       0.275504
    24242.424200       0.267751
    24301.336600       0.260003
    24360.535900       0.252261
    24420.024400       0.244529
    24479.804200       0.236810
    24539.877300       0.229108
    24600.246000       0.221424
    24660.912500       0.213763
    24721.878900       0.206129
    24783.147500       0.198523
    24844.720500       0.190951
    24906.600200       0.183416
    24968.789000       0.175921
    25031.289100       0.168470
    25094.102900       0.161067
    25157.232700       0.153716
    25220.681000       0.146420
    25284.450100       0.139185
    25348.542500       0.132014
    25412.960600       0.124911
    25477.707000       0.117881
