124,   124, MVIRI VIS channel from srf_MET7_2013033_2013034_1801-Release_S10EE_10.dat
Number of data points:
793
Wavenumber (cm-1)   Filter response
     8442.380800       0.000000
     8449.514200       0.000000
     8456.659600       0.000004
     8463.817200       0.000057
     8470.986900       0.000168
     8478.168700       0.000335
     8485.362700       0.000558
     8492.569000       0.000834
     8499.787500       0.001162
     8507.018300       0.001541
     8514.261400       0.001968
     8521.516800       0.002443
     8528.784600       0.002964
     8536.064900       0.003530
     8543.357500       0.004140
     8550.662700       0.004792
     8557.980300       0.005486
     8565.310500       0.006219
     8572.653200       0.006991
     8580.008600       0.007802
     8587.376600       0.008649
     8594.757200       0.009533
     8602.150500       0.010452
     8609.556600       0.011405
     8616.975400       0.012391
     8624.407100       0.013410
     8631.851500       0.014461
     8639.308900       0.015543
     8646.779100       0.016656
     8654.262200       0.017798
     8661.758300       0.018969
     8669.267400       0.020169
     8676.789600       0.021397
     8684.324800       0.022652
     8691.873100       0.023934
     8699.434500       0.025243
     8707.009100       0.026577
     8714.596900       0.027937
     8722.198000       0.029322
     8729.812300       0.030731
     8737.439900       0.032165
     8745.080900       0.033623
     8752.735200       0.035104
     8760.403000       0.036609
     8768.084200       0.038137
     8775.778900       0.039687
     8783.487000       0.041260
     8791.208800       0.042856
     8798.944100       0.044473
     8806.693100       0.046113
     8814.455700       0.047774
     8822.232000       0.049457
     8830.022100       0.051161
     8837.825900       0.052887
     8845.643500       0.054634
     8853.475000       0.056402
     8861.320300       0.058191
     8869.179600       0.060001
     8877.052800       0.061832
     8884.940000       0.063684
     8892.841300       0.065556
     8900.756600       0.067450
     8908.686000       0.069364
     8916.629500       0.071299
     8924.587200       0.073255
     8932.559200       0.075231
     8940.545400       0.077228
     8948.545900       0.079246
     8956.560700       0.081285
     8964.589900       0.083345
     8972.633500       0.085426
     8980.691500       0.087527
     8988.764000       0.089650
     8996.851100       0.091794
     9004.952700       0.093959
     9013.068900       0.096145
     9021.199800       0.098352
     9029.345400       0.100581
     9037.505600       0.102831
     9045.680700       0.105103
     9053.870500       0.107396
     9062.075200       0.109712
     9070.294800       0.112048
     9078.529300       0.114407
     9086.778700       0.116787
     9095.043200       0.119190
     9103.322700       0.121615
     9111.617300       0.124062
     9119.927000       0.126531
     9128.251900       0.129022
     9136.592100       0.131537
     9144.947400       0.134073
     9153.318100       0.136632
     9161.704100       0.139214
     9170.105500       0.141819
     9178.522300       0.144447
     9186.954500       0.147097
     9195.402300       0.149771
     9203.865600       0.152467
     9212.344500       0.155187
     9220.839100       0.157930
     9229.349300       0.160697
     9237.875300       0.163486
     9246.417000       0.166299
     9254.974500       0.169136
     9263.547900       0.171997
     9272.137200       0.174880
     9280.742500       0.177788
     9289.363700       0.180718
     9298.000900       0.183673
     9306.654300       0.186652
     9315.323700       0.189654
     9324.009300       0.192680
     9332.711200       0.195729
     9341.429200       0.198803
     9350.163600       0.201900
     9358.914400       0.205020
     9367.681500       0.208165
     9376.465100       0.211334
     9385.265100       0.214526
     9394.081700       0.217742
     9402.914900       0.220981
     9411.764700       0.224244
     9420.631200       0.227531
     9429.514400       0.230841
     9438.414300       0.234175
     9447.331100       0.237531
     9456.264800       0.240912
     9465.215300       0.244316
     9474.182900       0.247742
     9483.167400       0.251192
     9492.169000       0.254665
     9501.187600       0.258161
     9510.223500       0.261680
     9519.276500       0.265221
     9528.346800       0.268785
     9537.434400       0.272372
     9546.539400       0.275980
     9555.661700       0.279611
     9564.801500       0.283264
     9573.958800       0.286939
     9583.133700       0.290635
     9592.326100       0.294353
     9601.536200       0.298093
     9610.764100       0.301853
     9620.009600       0.305635
     9629.273000       0.309438
     9638.554200       0.313261
     9647.853400       0.317104
     9657.170400       0.320968
     9666.505600       0.324852
     9675.858700       0.328755
     9685.230000       0.332678
     9694.619500       0.336621
     9704.027200       0.340582
     9713.453100       0.344563
     9722.897400       0.348562
     9732.360100       0.352579
     9741.841200       0.356614
     9751.340800       0.360667
     9760.859000       0.364738
     9770.395700       0.368826
     9779.951100       0.372930
     9789.525200       0.377052
     9799.118100       0.381189
     9808.729800       0.385343
     9818.360300       0.389512
     9828.009800       0.393697
     9837.678300       0.397897
     9847.365800       0.402112
     9857.072400       0.406340
     9866.798200       0.410584
     9876.543200       0.414840
     9886.307500       0.419111
     9896.091000       0.423394
     9905.894000       0.427690
     9915.716400       0.431998
     9925.558300       0.436318
     9935.419800       0.440650
     9945.300800       0.444993
     9955.201600       0.449346
     9965.122100       0.453710
     9975.062300       0.458084
     9985.022500       0.462468
     9995.002500       0.466861
    10005.002500       0.471262
    10015.022500       0.475672
    10025.062700       0.480090
    10035.122900       0.484516
    10045.203400       0.488949
    10055.304200       0.493389
    10065.425300       0.497834
    10075.566800       0.502286
    10085.728700       0.506743
    10095.911200       0.511206
    10106.114200       0.515673
    10116.337900       0.520144
    10126.582300       0.524619
    10136.847400       0.529096
    10147.133400       0.533578
    10157.440300       0.538061
    10167.768200       0.542546
    10178.117000       0.547032
    10188.487000       0.551520
    10198.878100       0.556008
    10209.290500       0.560496
    10219.724100       0.564984
    10230.179000       0.569471
    10240.655400       0.573956
    10251.153300       0.578440
    10261.672700       0.582922
    10272.213700       0.587400
    10282.776300       0.591876
    10293.360800       0.596348
    10303.967000       0.600816
    10314.595200       0.605279
    10325.245200       0.609737
    10335.917300       0.614190
    10346.611500       0.618636
    10357.327800       0.623076
    10368.066400       0.627509
    10378.827200       0.631934
    10389.610400       0.636352
    10400.416000       0.640761
    10411.244100       0.645161
    10422.094800       0.649552
    10432.968200       0.653933
    10443.864200       0.658304
    10454.783100       0.662663
    10465.724800       0.667012
    10476.689400       0.671349
    10487.677000       0.675673
    10498.687700       0.679985
    10509.721500       0.684284
    10520.778500       0.688569
    10531.858900       0.692840
    10542.962600       0.697097
    10554.089700       0.701338
    10565.240400       0.705564
    10576.414600       0.709774
    10587.612500       0.713967
    10598.834100       0.718144
    10610.079600       0.722304
    10621.348900       0.726445
    10632.642200       0.730569
    10643.959600       0.734674
    10655.301000       0.738759
    10666.666700       0.742825
    10678.056600       0.746871
    10689.470900       0.750897
    10700.909600       0.754902
    10712.372800       0.758886
    10723.860600       0.762848
    10735.373100       0.766787
    10746.910300       0.770705
    10758.472300       0.774599
    10770.059200       0.778470
    10781.671200       0.782317
    10793.308100       0.786140
    10804.970300       0.789938
    10816.657700       0.793711
    10828.370300       0.797459
    10840.108400       0.801181
    10851.871900       0.804877
    10863.661100       0.808547
    10875.475800       0.812189
    10887.316300       0.815804
    10899.182600       0.819392
    10911.074700       0.822951
    10922.992900       0.826483
    10934.937100       0.829985
    10946.907500       0.833458
    10958.904100       0.836902
    10970.927000       0.840316
    10982.976400       0.843700
    10995.052200       0.847053
    11007.154700       0.850376
    11019.283700       0.853667
    11031.439600       0.856928
    11043.622300       0.860156
    11055.832000       0.863352
    11068.068600       0.866516
    11080.332400       0.869648
    11092.623400       0.872747
    11104.941700       0.875812
    11117.287400       0.878844
    11129.660500       0.881842
    11142.061300       0.884806
    11154.489700       0.887736
    11166.945800       0.890631
    11179.429800       0.893492
    11191.941800       0.896318
    11204.481800       0.899108
    11217.049900       0.901863
    11229.646300       0.904582
    11242.270900       0.907265
    11254.924000       0.909912
    11267.605600       0.912523
    11280.315800       0.915097
    11293.054800       0.917635
    11305.822500       0.920135
    11318.619100       0.922599
    11331.444800       0.925025
    11344.299500       0.927414
    11357.183400       0.929765
    11370.096600       0.932079
    11383.039300       0.934355
    11396.011400       0.936592
    11409.013100       0.938792
    11422.044500       0.940953
    11435.105800       0.943075
    11448.196900       0.945160
    11461.318100       0.947205
    11474.469300       0.949212
    11487.650800       0.951180
    11500.862600       0.953109
    11514.104800       0.954999
    11527.377500       0.956850
    11540.680900       0.958662
    11554.015000       0.960435
    11567.380000       0.962168
    11580.775900       0.963862
    11594.202900       0.965517
    11607.661100       0.967132
    11621.150500       0.968708
    11634.671300       0.970245
    11648.223600       0.971742
    11661.807600       0.973200
    11675.423200       0.974618
    11689.070700       0.975997
    11702.750100       0.977337
    11716.461600       0.978637
    11730.205300       0.979897
    11743.981200       0.981119
    11757.789500       0.982301
    11771.630400       0.983444
    11785.503800       0.984547
    11799.410000       0.985612
    11813.349100       0.986638
    11827.321100       0.987624
    11841.326200       0.988572
    11855.364600       0.989481
    11869.436200       0.990351
    11883.541300       0.991182
    11897.680000       0.991975
    11911.852300       0.992730
    11926.058400       0.993447
    11940.298500       0.994125
    11954.572600       0.994765
    11968.880900       0.995368
    11983.223500       0.995933
    11997.600500       0.996460
    12012.012000       0.996950
    12026.458200       0.997402
    12040.939200       0.997818
    12055.455100       0.998197
    12070.006000       0.998539
    12084.592100       0.998844
    12099.213600       0.999113
    12113.870400       0.999347
    12128.562800       0.999544
    12143.290800       0.999706
    12158.054700       0.999832
    12172.854500       0.999923
    12187.690400       0.999979
    12202.562500       1.000000
    12217.471000       0.999987
    12232.415900       0.999939
    12247.397400       0.999858
    12262.415700       0.999743
    12277.470800       0.999594
    12292.563000       0.999412
    12307.692300       0.999197
    12322.858900       0.998950
    12338.062900       0.998670
    12353.304500       0.998358
    12368.583800       0.998015
    12383.900900       0.997640
    12399.256000       0.997234
    12414.649300       0.996797
    12430.080800       0.996330
    12445.550700       0.995832
    12461.059200       0.995305
    12476.606400       0.994748
    12492.192400       0.994162
    12507.817400       0.993547
    12523.481500       0.992903
    12539.185000       0.992232
    12554.927800       0.991532
    12570.710200       0.990805
    12586.532400       0.990051
    12602.394500       0.989271
    12618.296500       0.988464
    12634.238800       0.987631
    12650.221400       0.986773
    12666.244500       0.985889
    12682.308200       0.984981
    12698.412700       0.984048
    12714.558200       0.983091
    12730.744700       0.982110
    12746.972600       0.981107
    12763.241900       0.980080
    12779.552700       0.979031
    12795.905300       0.977960
    12812.299800       0.976867
    12828.736400       0.975754
    12845.215200       0.974619
    12861.736300       0.973464
    12878.300100       0.972289
    12894.906500       0.971095
    12911.555800       0.969882
    12928.248200       0.968650
    12944.983800       0.967399
    12961.762800       0.966131
    12978.585300       0.964846
    12995.451600       0.963543
    13012.361700       0.962224
    13029.316000       0.960890
    13046.314400       0.959539
    13063.357300       0.958173
    13080.444700       0.956793
    13097.576900       0.955398
    13114.754100       0.953990
    13131.976400       0.952568
    13149.243900       0.951134
    13166.556900       0.949687
    13183.915600       0.948227
    13201.320100       0.946757
    13218.770700       0.945275
    13236.267400       0.943782
    13253.810500       0.942279
    13271.400100       0.940767
    13289.036500       0.939245
    13306.719900       0.937715
    13324.450400       0.936175
    13342.228200       0.934628
    13360.053400       0.933074
    13377.926400       0.931512
    13395.847300       0.929944
    13413.816200       0.928370
    13431.833400       0.926790
    13449.899100       0.925205
    13468.013500       0.923615
    13486.176700       0.922020
    13504.388900       0.920422
    13522.650400       0.918820
    13540.961400       0.917216
    13559.322000       0.915608
    13577.732500       0.913999
    13596.193100       0.912388
    13614.703900       0.910775
    13633.265200       0.909162
    13651.877100       0.907548
    13670.540000       0.905935
    13689.253900       0.904321
    13708.019200       0.902709
    13726.836000       0.901098
    13745.704500       0.899489
    13764.624900       0.897882
    13783.597500       0.896277
    13802.622500       0.894676
    13821.700100       0.893077
    13840.830400       0.891483
    13860.013900       0.889893
    13879.250500       0.888307
    13898.540700       0.886727
    13917.884500       0.885151
    13937.282200       0.883582
    13956.734100       0.882018
    13976.240400       0.880462
    13995.801300       0.878912
    14015.417000       0.877369
    14035.087700       0.875834
    14054.813800       0.874307
    14074.595400       0.872788
    14094.432700       0.871279
    14114.326000       0.869778
    14134.275600       0.868286
    14154.281700       0.866805
    14174.344400       0.865333
    14194.464200       0.863872
    14214.641100       0.862422
    14234.875400       0.860983
    14255.167500       0.859555
    14275.517500       0.858139
    14295.925700       0.856735
    14316.392300       0.855343
    14336.917600       0.853964
    14357.501800       0.852597
    14378.145200       0.851244
    14398.848100       0.849905
    14419.610700       0.848579
    14440.433200       0.847267
    14461.316000       0.845969
    14482.259200       0.844686
    14503.263200       0.843418
    14524.328200       0.842165
    14545.454500       0.840926
    14566.642400       0.839704
    14587.892000       0.838497
    14609.203800       0.837306
    14630.577900       0.836131
    14652.014700       0.834972
    14673.514300       0.833830
    14695.077100       0.832704
    14716.703500       0.831595
    14738.393500       0.830504
    14760.147600       0.829429
    14781.966000       0.828372
    14803.849000       0.827332
    14825.796900       0.826310
    14847.809900       0.825306
    14869.888500       0.824319
    14892.032800       0.823351
    14914.243100       0.822401
    14936.519800       0.821469
    14958.863100       0.820555
    14981.273400       0.819659
    15003.750900       0.818783
    15026.296000       0.817924
    15048.909000       0.817085
    15071.590100       0.816263
    15094.339600       0.815461
    15117.158000       0.814678
    15140.045400       0.813913
    15163.002300       0.813167
    15186.028900       0.812440
    15209.125500       0.811731
    15232.292500       0.811042
    15255.530100       0.810371
    15278.838800       0.809719
    15302.218800       0.809086
    15325.670500       0.808471
    15349.194200       0.807876
    15372.790200       0.807298
    15396.458800       0.806740
    15420.200500       0.806200
    15444.015400       0.805678
    15467.904100       0.805174
    15491.866800       0.804689
    15515.903800       0.804222
    15540.015500       0.803772
    15564.202300       0.803341
    15588.464500       0.802927
    15612.802500       0.802531
    15637.216600       0.802152
    15661.707100       0.801790
    15686.274500       0.801446
    15710.919100       0.801118
    15735.641200       0.800807
    15760.441300       0.800513
    15785.319700       0.800235
    15810.276700       0.799973
    15835.312700       0.799726
    15860.428200       0.799496
    15885.623500       0.799280
    15910.899000       0.799080
    15936.255000       0.798894
    15961.691900       0.798724
    15987.210200       0.798567
    16012.810200       0.798424
    16038.492400       0.798295
    16064.257000       0.798180
    16090.104600       0.798077
    16116.035500       0.797987
    16142.050000       0.797910
    16168.148700       0.797845
    16194.332000       0.797791
    16220.600200       0.797748
    16246.953700       0.797717
    16273.393000       0.797696
    16299.918500       0.797686
    16326.530600       0.797685
    16353.229800       0.797693
    16380.016400       0.797711
    16406.890900       0.797737
    16433.853700       0.797771
    16460.905300       0.797813
    16488.046200       0.797862
    16515.276600       0.797918
    16542.597200       0.797980
    16570.008300       0.798048
    16597.510400       0.798121
    16625.103900       0.798199
    16652.789300       0.798282
    16680.567100       0.798368
    16708.437800       0.798458
    16736.401700       0.798550
    16764.459300       0.798645
    16792.611300       0.798742
    16820.857900       0.798839
    16849.199700       0.798938
    16877.637100       0.799036
    16906.170800       0.799135
    16934.801000       0.799232
    16963.528400       0.799327
    16992.353400       0.799420
    17021.276600       0.799511
    17050.298400       0.799598
    17079.419300       0.799681
    17108.639900       0.799759
    17137.960600       0.799832
    17167.382000       0.799900
    17196.904600       0.799960
    17226.528900       0.800014
    17256.255400       0.800060
    17286.084700       0.800097
    17316.017300       0.800126
    17346.053800       0.800145
    17376.194600       0.800153
    17406.440400       0.800150
    17436.791600       0.800135
    17467.248900       0.800109
    17497.812800       0.800068
    17528.483800       0.800015
    17559.262500       0.799946
    17590.149500       0.799862
    17621.145400       0.799763
    17652.250700       0.799647
    17683.466000       0.799513
    17714.791900       0.799362
    17746.228900       0.799192
    17777.777800       0.799002
    17809.439000       0.798792
    17841.213200       0.798561
    17873.101000       0.798309
    17905.103000       0.798034
    17937.219700       0.797736
    17969.451900       0.797415
    18001.800200       0.797068
    18034.265100       0.796697
    18066.847300       0.796299
    18099.547500       0.795874
    18132.366300       0.795422
    18165.304300       0.794942
    18198.362100       0.794433
    18231.540600       0.793893
    18264.840200       0.793324
    18298.261700       0.792723
    18331.805700       0.792090
    18365.472900       0.791424
    18399.264000       0.790725
    18433.179700       0.789992
    18467.220700       0.789223
    18501.387600       0.788419
    18535.681200       0.787579
    18570.102100       0.786701
    18604.651200       0.785785
    18639.329000       0.784831
    18674.136300       0.783837
    18709.073900       0.782803
    18744.142500       0.781729
    18779.342700       0.780612
    18814.675400       0.779454
    18850.141400       0.778253
    18885.741300       0.777007
    18921.475900       0.775718
    18957.346000       0.774383
    18993.352300       0.773003
    19029.495700       0.771577
    19065.776900       0.770103
    19102.196800       0.768581
    19138.756000       0.767011
    19175.455400       0.765392
    19212.295900       0.763723
    19249.278200       0.762004
    19286.403100       0.760233
    19323.671500       0.758411
    19361.084200       0.756537
    19398.642100       0.754609
    19436.346000       0.752629
    19474.196700       0.750594
    19512.195100       0.748504
    19550.342100       0.746359
    19588.638600       0.744158
    19627.085400       0.741901
    19665.683400       0.739587
    19704.433500       0.737216
    19743.336600       0.734786
    19782.393700       0.732299
    19821.605600       0.729752
    19860.973200       0.727145
    19900.497500       0.724479
    19940.179500       0.721753
    19980.020000       0.718965
    20020.020000       0.716116
    20060.180500       0.713206
    20100.502500       0.710234
    20140.986900       0.707199
    20181.634700       0.704101
    20222.446900       0.700941
    20263.424500       0.697717
    20304.568500       0.694429
    20345.880000       0.691077
    20387.359800       0.687660
    20429.009200       0.684179
    20470.829100       0.680633
    20512.820500       0.677022
    20554.984600       0.673346
    20597.322300       0.669604
    20639.834900       0.665797
    20682.523300       0.661924
    20725.388600       0.657984
    20768.432000       0.653979
    20811.654500       0.649908
    20855.057400       0.645771
    20898.641600       0.641567
    20942.408400       0.637297
    20986.358900       0.632962
    21030.494200       0.628559
    21074.815600       0.624091
    21119.324200       0.619557
    21164.021200       0.614957
    21208.907700       0.610292
    21253.985100       0.605560
    21299.254500       0.600764
    21344.717200       0.595902
    21390.374300       0.590975
    21436.227200       0.585984
    21482.277100       0.580928
    21528.525300       0.575808
    21574.973000       0.570625
    21621.621600       0.565378
    21668.472400       0.560069
    21715.526600       0.554697
    21762.785600       0.549264
    21810.250800       0.543769
    21857.923500       0.538213
    21905.805000       0.532597
    21953.896800       0.526921
    22002.200200       0.521187
    22050.716600       0.515394
    22099.447500       0.509544
    22148.394200       0.503637
    22197.558300       0.497674
    22246.941000       0.491655
    22296.544000       0.485583
    22346.368700       0.479457
    22396.416600       0.473279
    22446.689100       0.467049
    22497.187900       0.460769
    22547.914300       0.454440
    22598.870100       0.448062
    22650.056600       0.441637
    22701.475600       0.435166
    22753.128600       0.428650
    22805.017100       0.422091
    22857.142900       0.415490
    22909.507400       0.408848
    22962.112500       0.402167
    23014.959700       0.395448
    23068.050700       0.388692
    23121.387300       0.381902
    23174.971000       0.375078
    23228.803700       0.368222
    23282.887100       0.361337
    23337.222900       0.354422
    23391.812900       0.347482
    23446.658900       0.340517
    23501.762600       0.333529
    23557.126000       0.326520
    23612.750900       0.319492
    23668.639100       0.312447
    23724.792400       0.305387
    23781.212800       0.298315
    23837.902300       0.291231
    23894.862600       0.284140
    23952.095800       0.277042
    24009.603800       0.269941
    24067.388700       0.262839
    24125.452400       0.255737
    24183.796900       0.248640
    24242.424200       0.241548
    24301.336600       0.234465
    24360.535900       0.227394
    24420.024400       0.220337
    24479.804200       0.213297
    24539.877300       0.206277
    24600.246000       0.199279
    24660.912500       0.192308
    24721.878900       0.185365
    24783.147500       0.178454
    24844.720500       0.171578
    24906.600200       0.164740
    24968.789000       0.157945
    25031.289100       0.151194
    25094.102900       0.144491
    25157.232700       0.137840
    25220.681000       0.131244
    25284.450100       0.124708
    25348.542500       0.118234
    25412.960600       0.111827
    25477.707000       0.105490
