150,   150, MVIRI VIS channel from srf_MET7_2016123_2016124_1801-Release_S10EE_10.dat
Number of data points:
793
Wavenumber (cm-1)   Filter response
     8442.380800       0.000000
     8449.514200       0.000000
     8456.659600       0.000004
     8463.817200       0.000057
     8470.986900       0.000169
     8478.168700       0.000338
     8485.362700       0.000562
     8492.569000       0.000841
     8499.787500       0.001172
     8507.018300       0.001553
     8514.261400       0.001984
     8521.516800       0.002463
     8528.784600       0.002988
     8536.064900       0.003558
     8543.357500       0.004173
     8550.662700       0.004830
     8557.980300       0.005529
     8565.310500       0.006268
     8572.653200       0.007046
     8580.008600       0.007863
     8587.376600       0.008717
     8594.757200       0.009608
     8602.150500       0.010533
     8609.556600       0.011494
     8616.975400       0.012487
     8624.407100       0.013514
     8631.851500       0.014573
     8639.308900       0.015663
     8646.779100       0.016784
     8654.262200       0.017935
     8661.758300       0.019115
     8669.267400       0.020324
     8676.789600       0.021560
     8684.324800       0.022825
     8691.873100       0.024116
     8699.434500       0.025434
     8707.009100       0.026778
     8714.596900       0.028148
     8722.198000       0.029543
     8729.812300       0.030963
     8737.439900       0.032407
     8745.080900       0.033875
     8752.735200       0.035367
     8760.403000       0.036882
     8768.084200       0.038421
     8775.778900       0.039982
     8783.487000       0.041567
     8791.208800       0.043173
     8798.944100       0.044802
     8806.693100       0.046453
     8814.455700       0.048126
     8822.232000       0.049820
     8830.022100       0.051536
     8837.825900       0.053274
     8845.643500       0.055032
     8853.475000       0.056812
     8861.320300       0.058613
     8869.179600       0.060436
     8877.052800       0.062279
     8884.940000       0.064143
     8892.841300       0.066028
     8900.756600       0.067934
     8908.686000       0.069861
     8916.629500       0.071808
     8924.587200       0.073777
     8932.559200       0.075766
     8940.545400       0.077776
     8948.545900       0.079808
     8956.560700       0.081860
     8964.589900       0.083933
     8972.633500       0.086027
     8980.691500       0.088142
     8988.764000       0.090278
     8996.851100       0.092435
     9004.952700       0.094614
     9013.068900       0.096813
     9021.199800       0.099034
     9029.345400       0.101277
     9037.505600       0.103541
     9045.680700       0.105827
     9053.870500       0.108134
     9062.075200       0.110463
     9070.294800       0.112814
     9078.529300       0.115186
     9086.778700       0.117581
     9095.043200       0.119998
     9103.322700       0.122437
     9111.617300       0.124899
     9119.927000       0.127382
     9128.251900       0.129888
     9136.592100       0.132417
     9144.947400       0.134968
     9153.318100       0.137542
     9161.704100       0.140139
     9170.105500       0.142758
     9178.522300       0.145401
     9186.954500       0.148066
     9195.402300       0.150755
     9203.865600       0.153466
     9212.344500       0.156201
     9220.839100       0.158960
     9229.349300       0.161741
     9237.875300       0.164546
     9246.417000       0.167374
     9254.974500       0.170227
     9263.547900       0.173102
     9272.137200       0.176001
     9280.742500       0.178924
     9289.363700       0.181870
     9298.000900       0.184841
     9306.654300       0.187835
     9315.323700       0.190852
     9324.009300       0.193894
     9332.711200       0.196959
     9341.429200       0.200048
     9350.163600       0.203161
     9358.914400       0.206297
     9367.681500       0.209458
     9376.465100       0.212642
     9385.265100       0.215850
     9394.081700       0.219081
     9402.914900       0.222336
     9411.764700       0.225615
     9420.631200       0.228918
     9429.514400       0.232244
     9438.414300       0.235593
     9447.331100       0.238966
     9456.264800       0.242362
     9465.215300       0.245782
     9474.182900       0.249225
     9483.167400       0.252691
     9492.169000       0.256179
     9501.187600       0.259691
     9510.223500       0.263226
     9519.276500       0.266783
     9528.346800       0.270362
     9537.434400       0.273965
     9546.539400       0.277589
     9555.661700       0.281236
     9564.801500       0.284904
     9573.958800       0.288595
     9583.133700       0.292307
     9592.326100       0.296040
     9601.536200       0.299795
     9610.764100       0.303571
     9620.009600       0.307369
     9629.273000       0.311187
     9638.554200       0.315025
     9647.853400       0.318884
     9657.170400       0.322763
     9666.505600       0.326662
     9675.858700       0.330581
     9685.230000       0.334519
     9694.619500       0.338477
     9704.027200       0.342453
     9713.453100       0.346448
     9722.897400       0.350462
     9732.360100       0.354494
     9741.841200       0.358544
     9751.340800       0.362611
     9760.859000       0.366696
     9770.395700       0.370799
     9779.951100       0.374918
     9789.525200       0.379053
     9799.118100       0.383205
     9808.729800       0.387373
     9818.360300       0.391556
     9828.009800       0.395754
     9837.678300       0.399968
     9847.365800       0.404196
     9857.072400       0.408438
     9866.798200       0.412695
     9876.543200       0.416965
     9886.307500       0.421248
     9896.091000       0.425544
     9905.894000       0.429853
     9915.716400       0.434174
     9925.558300       0.438506
     9935.419800       0.442850
     9945.300800       0.447205
     9955.201600       0.451570
     9965.122100       0.455946
     9975.062300       0.460332
     9985.022500       0.464727
     9995.002500       0.469132
    10005.002500       0.473544
    10015.022500       0.477966
    10025.062700       0.482394
    10035.122900       0.486831
    10045.203400       0.491274
    10055.304200       0.495724
    10065.425300       0.500180
    10075.566800       0.504642
    10085.728700       0.509109
    10095.911200       0.513581
    10106.114200       0.518057
    10116.337900       0.522537
    10126.582300       0.527020
    10136.847400       0.531507
    10147.133400       0.535997
    10157.440300       0.540488
    10167.768200       0.544981
    10178.117000       0.549475
    10188.487000       0.553970
    10198.878100       0.558466
    10209.290500       0.562961
    10219.724100       0.567456
    10230.179000       0.571949
    10240.655400       0.576441
    10251.153300       0.580931
    10261.672700       0.585419
    10272.213700       0.589903
    10282.776300       0.594384
    10293.360800       0.598861
    10303.967000       0.603334
    10314.595200       0.607802
    10325.245200       0.612264
    10335.917300       0.616721
    10346.611500       0.621171
    10357.327800       0.625614
    10368.066400       0.630051
    10378.827200       0.634479
    10389.610400       0.638900
    10400.416000       0.643311
    10411.244100       0.647713
    10422.094800       0.652106
    10432.968200       0.656489
    10443.864200       0.660861
    10454.783100       0.665222
    10465.724800       0.669571
    10476.689400       0.673908
    10487.677000       0.678233
    10498.687700       0.682545
    10509.721500       0.686843
    10520.778500       0.691127
    10531.858900       0.695397
    10542.962600       0.699652
    10554.089700       0.703892
    10565.240400       0.708116
    10576.414600       0.712324
    10587.612500       0.716515
    10598.834100       0.720689
    10610.079600       0.724845
    10621.348900       0.728983
    10632.642200       0.733103
    10643.959600       0.737204
    10655.301000       0.741285
    10666.666700       0.745346
    10678.056600       0.749388
    10689.470900       0.753408
    10700.909600       0.757407
    10712.372800       0.761385
    10723.860600       0.765340
    10735.373100       0.769274
    10746.910300       0.773184
    10758.472300       0.777071
    10770.059200       0.780934
    10781.671200       0.784773
    10793.308100       0.788588
    10804.970300       0.792378
    10816.657700       0.796142
    10828.370300       0.799881
    10840.108400       0.803594
    10851.871900       0.807280
    10863.661100       0.810939
    10875.475800       0.814571
    10887.316300       0.818176
    10899.182600       0.821752
    10911.074700       0.825300
    10922.992900       0.828820
    10934.937100       0.832310
    10946.907500       0.835771
    10958.904100       0.839202
    10970.927000       0.842603
    10982.976400       0.845974
    10995.052200       0.849313
    11007.154700       0.852622
    11019.283700       0.855899
    11031.439600       0.859145
    11043.622300       0.862359
    11055.832000       0.865540
    11068.068600       0.868688
    11080.332400       0.871804
    11092.623400       0.874887
    11104.941700       0.877935
    11117.287400       0.880951
    11129.660500       0.883932
    11142.061300       0.886879
    11154.489700       0.889791
    11166.945800       0.892668
    11179.429800       0.895511
    11191.941800       0.898318
    11204.481800       0.901089
    11217.049900       0.903825
    11229.646300       0.906525
    11242.270900       0.909189
    11254.924000       0.911816
    11267.605600       0.914406
    11280.315800       0.916960
    11293.054800       0.919477
    11305.822500       0.921956
    11318.619100       0.924399
    11331.444800       0.926803
    11344.299500       0.929170
    11357.183400       0.931499
    11370.096600       0.933791
    11383.039300       0.936043
    11396.011400       0.938258
    11409.013100       0.940434
    11422.044500       0.942572
    11435.105800       0.944671
    11448.196900       0.946731
    11461.318100       0.948753
    11474.469300       0.950735
    11487.650800       0.952678
    11500.862600       0.954582
    11514.104800       0.956447
    11527.377500       0.958273
    11540.680900       0.960059
    11554.015000       0.961806
    11567.380000       0.963513
    11580.775900       0.965181
    11594.202900       0.966809
    11607.661100       0.968398
    11621.150500       0.969947
    11634.671300       0.971456
    11648.223600       0.972926
    11661.807600       0.974356
    11675.423200       0.975747
    11689.070700       0.977098
    11702.750100       0.978409
    11716.461600       0.979681
    11730.205300       0.980913
    11743.981200       0.982106
    11757.789500       0.983259
    11771.630400       0.984372
    11785.503800       0.985447
    11799.410000       0.986482
    11813.349100       0.987478
    11827.321100       0.988435
    11841.326200       0.989352
    11855.364600       0.990231
    11869.436200       0.991071
    11883.541300       0.991872
    11897.680000       0.992635
    11911.852300       0.993359
    11926.058400       0.994044
    11940.298500       0.994692
    11954.572600       0.995301
    11968.880900       0.995872
    11983.223500       0.996405
    11997.600500       0.996901
    12012.012000       0.997359
    12026.458200       0.997780
    12040.939200       0.998164
    12055.455100       0.998510
    12070.006000       0.998820
    12084.592100       0.999094
    12099.213600       0.999331
    12113.870400       0.999531
    12128.562800       0.999696
    12143.290800       0.999825
    12158.054700       0.999919
    12172.854500       0.999977
    12187.690400       1.000000
    12202.562500       0.999988
    12217.471000       0.999942
    12232.415900       0.999861
    12247.397400       0.999747
    12262.415700       0.999598
    12277.470800       0.999416
    12292.563000       0.999201
    12307.692300       0.998953
    12322.858900       0.998672
    12338.062900       0.998359
    12353.304500       0.998014
    12368.583800       0.997636
    12383.900900       0.997228
    12399.256000       0.996788
    12414.649300       0.996317
    12430.080800       0.995816
    12445.550700       0.995285
    12461.059200       0.994724
    12476.606400       0.994133
    12492.192400       0.993513
    12507.817400       0.992864
    12523.481500       0.992187
    12539.185000       0.991481
    12554.927800       0.990748
    12570.710200       0.989987
    12586.532400       0.989199
    12602.394500       0.988385
    12618.296500       0.987544
    12634.238800       0.986677
    12650.221400       0.985785
    12666.244500       0.984867
    12682.308200       0.983925
    12698.412700       0.982958
    12714.558200       0.981967
    12730.744700       0.980953
    12746.972600       0.979915
    12763.241900       0.978855
    12779.552700       0.977772
    12795.905300       0.976667
    12812.299800       0.975541
    12828.736400       0.974393
    12845.215200       0.973225
    12861.736300       0.972036
    12878.300100       0.970828
    12894.906500       0.969600
    12911.555800       0.968353
    12928.248200       0.967087
    12944.983800       0.965803
    12961.762800       0.964502
    12978.585300       0.963183
    12995.451600       0.961847
    13012.361700       0.960495
    13029.316000       0.959127
    13046.314400       0.957743
    13063.357300       0.956344
    13080.444700       0.954931
    13097.576900       0.953503
    13114.754100       0.952061
    13131.976400       0.950607
    13149.243900       0.949139
    13166.556900       0.947659
    13183.915600       0.946167
    13201.320100       0.944663
    13218.770700       0.943149
    13236.267400       0.941623
    13253.810500       0.940088
    13271.400100       0.938543
    13289.036500       0.936989
    13306.719900       0.935425
    13324.450400       0.933854
    13342.228200       0.932275
    13360.053400       0.930688
    13377.926400       0.929094
    13395.847300       0.927494
    13413.816200       0.925887
    13431.833400       0.924275
    13449.899100       0.922658
    13468.013500       0.921036
    13486.176700       0.919410
    13504.388900       0.917779
    13522.650400       0.916146
    13540.961400       0.914509
    13559.322000       0.912870
    13577.732500       0.911229
    13596.193100       0.909586
    13614.703900       0.907942
    13633.265200       0.906297
    13651.877100       0.904652
    13670.540000       0.903007
    13689.253900       0.901363
    13708.019200       0.899719
    13726.836000       0.898077
    13745.704500       0.896436
    13764.624900       0.894798
    13783.597500       0.893162
    13802.622500       0.891529
    13821.700100       0.889900
    13840.830400       0.888275
    13860.013900       0.886653
    13879.250500       0.885037
    13898.540700       0.883425
    13917.884500       0.881819
    13937.282200       0.880218
    13956.734100       0.878624
    13976.240400       0.877036
    13995.801300       0.875455
    14015.417000       0.873882
    14035.087700       0.872316
    14054.813800       0.870758
    14074.595400       0.869209
    14094.432700       0.867668
    14114.326000       0.866136
    14134.275600       0.864614
    14154.281700       0.863102
    14174.344400       0.861599
    14194.464200       0.860108
    14214.641100       0.858626
    14234.875400       0.857156
    14255.167500       0.855698
    14275.517500       0.854251
    14295.925700       0.852816
    14316.392300       0.851393
    14336.917600       0.849983
    14357.501800       0.848586
    14378.145200       0.847202
    14398.848100       0.845831
    14419.610700       0.844474
    14440.433200       0.843131
    14461.316000       0.841802
    14482.259200       0.840488
    14503.263200       0.839189
    14524.328200       0.837904
    14545.454500       0.836634
    14566.642400       0.835380
    14587.892000       0.834142
    14609.203800       0.832919
    14630.577900       0.831713
    14652.014700       0.830522
    14673.514300       0.829348
    14695.077100       0.828191
    14716.703500       0.827050
    14738.393500       0.825927
    14760.147600       0.824820
    14781.966000       0.823731
    14803.849000       0.822659
    14825.796900       0.821605
    14847.809900       0.820568
    14869.888500       0.819549
    14892.032800       0.818548
    14914.243100       0.817565
    14936.519800       0.816600
    14958.863100       0.815654
    14981.273400       0.814725
    15003.750900       0.813815
    15026.296000       0.812924
    15048.909000       0.812051
    15071.590100       0.811196
    15094.339600       0.810360
    15117.158000       0.809543
    15140.045400       0.808744
    15163.002300       0.807964
    15186.028900       0.807203
    15209.125500       0.806460
    15232.292500       0.805736
    15255.530100       0.805031
    15278.838800       0.804344
    15302.218800       0.803676
    15325.670500       0.803026
    15349.194200       0.802395
    15372.790200       0.801783
    15396.458800       0.801189
    15420.200500       0.800613
    15444.015400       0.800055
    15467.904100       0.799515
    15491.866800       0.798994
    15515.903800       0.798490
    15540.015500       0.798004
    15564.202300       0.797536
    15588.464500       0.797086
    15612.802500       0.796652
    15637.216600       0.796236
    15661.707100       0.795837
    15686.274500       0.795455
    15710.919100       0.795089
    15735.641200       0.794741
    15760.441300       0.794408
    15785.319700       0.794091
    15810.276700       0.793791
    15835.312700       0.793506
    15860.428200       0.793236
    15885.623500       0.792981
    15910.899000       0.792742
    15936.255000       0.792517
    15961.691900       0.792306
    15987.210200       0.792110
    16012.810200       0.791927
    16038.492400       0.791758
    16064.257000       0.791602
    16090.104600       0.791458
    16116.035500       0.791328
    16142.050000       0.791209
    16168.148700       0.791103
    16194.332000       0.791007
    16220.600200       0.790923
    16246.953700       0.790850
    16273.393000       0.790787
    16299.918500       0.790735
    16326.530600       0.790691
    16353.229800       0.790657
    16380.016400       0.790632
    16406.890900       0.790615
    16433.853700       0.790606
    16460.905300       0.790605
    16488.046200       0.790611
    16515.276600       0.790623
    16542.597200       0.790641
    16570.008300       0.790665
    16597.510400       0.790694
    16625.103900       0.790728
    16652.789300       0.790767
    16680.567100       0.790808
    16708.437800       0.790854
    16736.401700       0.790901
    16764.459300       0.790951
    16792.611300       0.791003
    16820.857900       0.791055
    16849.199700       0.791108
    16877.637100       0.791162
    16906.170800       0.791214
    16934.801000       0.791266
    16963.528400       0.791315
    16992.353400       0.791363
    17021.276600       0.791407
    17050.298400       0.791448
    17079.419300       0.791485
    17108.639900       0.791518
    17137.960600       0.791545
    17167.382000       0.791566
    17196.904600       0.791580
    17226.528900       0.791588
    17256.255400       0.791587
    17286.084700       0.791579
    17316.017300       0.791561
    17346.053800       0.791533
    17376.194600       0.791495
    17406.440400       0.791446
    17436.791600       0.791385
    17467.248900       0.791312
    17497.812800       0.791225
    17528.483800       0.791125
    17559.262500       0.791011
    17590.149500       0.790881
    17621.145400       0.790735
    17652.250700       0.790573
    17683.466000       0.790394
    17714.791900       0.790197
    17746.228900       0.789981
    17777.777800       0.789746
    17809.439000       0.789491
    17841.213200       0.789215
    17873.101000       0.788918
    17905.103000       0.788598
    17937.219700       0.788256
    17969.451900       0.787890
    18001.800200       0.787499
    18034.265100       0.787084
    18066.847300       0.786643
    18099.547500       0.786175
    18132.366300       0.785680
    18165.304300       0.785157
    18198.362100       0.784605
    18231.540600       0.784023
    18264.840200       0.783412
    18298.261700       0.782769
    18331.805700       0.782095
    18365.472900       0.781389
    18399.264000       0.780649
    18433.179700       0.779876
    18467.220700       0.779068
    18501.387600       0.778225
    18535.681200       0.777346
    18570.102100       0.776430
    18604.651200       0.775477
    18639.329000       0.774485
    18674.136300       0.773455
    18709.073900       0.772385
    18744.142500       0.771275
    18779.342700       0.770124
    18814.675400       0.768931
    18850.141400       0.767696
    18885.741300       0.766418
    18921.475900       0.765097
    18957.346000       0.763730
    18993.352300       0.762319
    19029.495700       0.760862
    19065.776900       0.759359
    19102.196800       0.757808
    19138.756000       0.756210
    19175.455400       0.754564
    19212.295900       0.752868
    19249.278200       0.751123
    19286.403100       0.749328
    19323.671500       0.747482
    19361.084200       0.745585
    19398.642100       0.743635
    19436.346000       0.741633
    19474.196700       0.739578
    19512.195100       0.737469
    19550.342100       0.735306
    19588.638600       0.733088
    19627.085400       0.730814
    19665.683400       0.728485
    19704.433500       0.726099
    19743.336600       0.723657
    19782.393700       0.721157
    19821.605600       0.718599
    19860.973200       0.715983
    19900.497500       0.713308
    19940.179500       0.710575
    19980.020000       0.707781
    20020.020000       0.704927
    20060.180500       0.702013
    20100.502500       0.699039
    20140.986900       0.696003
    20181.634700       0.692905
    20222.446900       0.689746
    20263.424500       0.686525
    20304.568500       0.683241
    20345.880000       0.679894
    20387.359800       0.676485
    20429.009200       0.673012
    20470.829100       0.669476
    20512.820500       0.665877
    20554.984600       0.662213
    20597.322300       0.658486
    20639.834900       0.654694
    20682.523300       0.650838
    20725.388600       0.646918
    20768.432000       0.642934
    20811.654500       0.638885
    20855.057400       0.634771
    20898.641600       0.630593
    20942.408400       0.626350
    20986.358900       0.622043
    21030.494200       0.617671
    21074.815600       0.613235
    21119.324200       0.608734
    21164.021200       0.604170
    21208.907700       0.599541
    21253.985100       0.594849
    21299.254500       0.590093
    21344.717200       0.585273
    21390.374300       0.580391
    21436.227200       0.575445
    21482.277100       0.570437
    21528.525300       0.565367
    21574.973000       0.560235
    21621.621600       0.555042
    21668.472400       0.549787
    21715.526600       0.544473
    21762.785600       0.539098
    21810.250800       0.533663
    21857.923500       0.528170
    21905.805000       0.522619
    21953.896800       0.517009
    22002.200200       0.511343
    22050.716600       0.505620
    22099.447500       0.499842
    22148.394200       0.494009
    22197.558300       0.488121
    22246.941000       0.482181
    22296.544000       0.476188
    22346.368700       0.470143
    22396.416600       0.464048
    22446.689100       0.457904
    22497.187900       0.451711
    22547.914300       0.445470
    22598.870100       0.439183
    22650.056600       0.432851
    22701.475600       0.426474
    22753.128600       0.420055
    22805.017100       0.413594
    22857.142900       0.407093
    22909.507400       0.400553
    22962.112500       0.393975
    23014.959700       0.387362
    23068.050700       0.380713
    23121.387300       0.374031
    23174.971000       0.367318
    23228.803700       0.360575
    23282.887100       0.353803
    23337.222900       0.347004
    23391.812900       0.340181
    23446.658900       0.333334
    23501.762600       0.326467
    23557.126000       0.319579
    23612.750900       0.312675
    23668.639100       0.305755
    23724.792400       0.298821
    23781.212800       0.291876
    23837.902300       0.284922
    23894.862600       0.277960
    23952.095800       0.270994
    24009.603800       0.264026
    24067.388700       0.257057
    24125.452400       0.250090
    24183.796900       0.243129
    24242.424200       0.236174
    24301.336600       0.229229
    24360.535900       0.222296
    24420.024400       0.215379
    24479.804200       0.208479
    24539.877300       0.201600
    24600.246000       0.194745
    24660.912500       0.187915
    24721.878900       0.181115
    24783.147500       0.174347
    24844.720500       0.167615
    24906.600200       0.160921
    24968.789000       0.154269
    25031.289100       0.147662
    25094.102900       0.141104
    25157.232700       0.134597
    25220.681000       0.128145
    25284.450100       0.121752
    25348.542500       0.115421
    25412.960600       0.109156
    25477.707000       0.102961
