5,   5, MVIRI VIS channel from srf_MET2_1982258_1982259_1801-Release_S10EL_10.dat
Number of data points:
730
Wavenumber (cm-1)   Filter response
     8916.629500       0.000000
     8924.587200       0.000000
     8932.559200       0.000002
     8940.545400       0.000011
     8948.545900       0.000032
     8956.560700       0.000068
     8964.589900       0.000124
     8972.633500       0.000205
     8980.691500       0.000314
     8988.764000       0.000454
     8996.851100       0.000630
     9004.952700       0.000846
     9013.068900       0.001103
     9021.199800       0.001406
     9029.345400       0.001757
     9037.505600       0.002160
     9045.680700       0.002616
     9053.870500       0.003129
     9062.075200       0.003702
     9070.294800       0.004335
     9078.529300       0.005032
     9086.778700       0.005795
     9095.043200       0.006626
     9103.322700       0.007526
     9111.617300       0.008497
     9119.927000       0.009541
     9128.251900       0.010660
     9136.592100       0.011854
     9144.947400       0.013125
     9153.318100       0.014474
     9161.704100       0.015902
     9170.105500       0.017411
     9178.522300       0.019001
     9186.954500       0.020673
     9195.402300       0.022428
     9203.865600       0.024266
     9212.344500       0.026188
     9220.839100       0.028194
     9229.349300       0.030285
     9237.875300       0.032462
     9246.417000       0.034723
     9254.974500       0.037070
     9263.547900       0.039503
     9272.137200       0.042021
     9280.742500       0.044625
     9289.363700       0.047314
     9298.000900       0.050089
     9306.654300       0.052949
     9315.323700       0.055893
     9324.009300       0.058923
     9332.711200       0.062036
     9341.429200       0.065233
     9350.163600       0.068513
     9358.914400       0.071875
     9367.681500       0.075320
     9376.465100       0.078847
     9385.265100       0.082453
     9394.081700       0.086140
     9402.914900       0.089906
     9411.764700       0.093751
     9420.631200       0.097673
     9429.514400       0.101671
     9438.414300       0.105746
     9447.331100       0.109895
     9456.264800       0.114119
     9465.215300       0.118415
     9474.182900       0.122782
     9483.167400       0.127221
     9492.169000       0.131729
     9501.187600       0.136306
     9510.223500       0.140950
     9519.276500       0.145660
     9528.346800       0.150436
     9537.434400       0.155275
     9546.539400       0.160177
     9555.661700       0.165140
     9564.801500       0.170163
     9573.958800       0.175245
     9583.133700       0.180385
     9592.326100       0.185581
     9601.536200       0.190831
     9610.764100       0.196135
     9620.009600       0.201492
     9629.273000       0.206900
     9638.554200       0.212356
     9647.853400       0.217861
     9657.170400       0.223413
     9666.505600       0.229010
     9675.858700       0.234651
     9685.230000       0.240334
     9694.619500       0.246060
     9704.027200       0.251824
     9713.453100       0.257627
     9722.897400       0.263468
     9732.360100       0.269343
     9741.841200       0.275253
     9751.340800       0.281195
     9760.859000       0.287169
     9770.395700       0.293173
     9779.951100       0.299206
     9789.525200       0.305265
     9799.118100       0.311351
     9808.729800       0.317461
     9818.360300       0.323594
     9828.009800       0.329748
     9837.678300       0.335923
     9847.365800       0.342117
     9857.072400       0.348327
     9866.798200       0.354555
     9876.543200       0.360796
     9886.307500       0.367052
     9896.091000       0.373320
     9905.894000       0.379599
     9915.716400       0.385887
     9925.558300       0.392183
     9935.419800       0.398486
     9945.300800       0.404796
     9955.201600       0.411108
     9965.122100       0.417425
     9975.062300       0.423743
     9985.022500       0.430062
     9995.002500       0.436381
    10005.002500       0.442698
    10015.022500       0.449011
    10025.062700       0.455321
    10035.122900       0.461625
    10045.203400       0.467922
    10055.304200       0.474212
    10065.425300       0.480494
    10075.566800       0.486765
    10085.728700       0.493025
    10095.911200       0.499274
    10106.114200       0.505509
    10116.337900       0.511730
    10126.582300       0.517935
    10136.847400       0.524124
    10147.133400       0.530297
    10157.440300       0.536451
    10167.768200       0.542585
    10178.117000       0.548699
    10188.487000       0.554793
    10198.878100       0.560864
    10209.290500       0.566912
    10219.724100       0.572936
    10230.179000       0.578935
    10240.655400       0.584909
    10251.153300       0.590856
    10261.672700       0.596776
    10272.213700       0.602667
    10282.776300       0.608529
    10293.360800       0.614362
    10303.967000       0.620164
    10314.595200       0.625935
    10325.245200       0.631674
    10335.917300       0.637380
    10346.611500       0.643052
    10357.327800       0.648690
    10368.066400       0.654294
    10378.827200       0.659862
    10389.610400       0.665394
    10400.416000       0.670888
    10411.244100       0.676346
    10422.094800       0.681765
    10432.968200       0.687146
    10443.864200       0.692488
    10454.783100       0.697790
    10465.724800       0.703052
    10476.689400       0.708274
    10487.677000       0.713454
    10498.687700       0.718592
    10509.721500       0.723688
    10520.778500       0.728742
    10531.858900       0.733752
    10542.962600       0.738719
    10554.089700       0.743642
    10565.240400       0.748521
    10576.414600       0.753355
    10587.612500       0.758144
    10598.834100       0.762888
    10610.079600       0.767586
    10621.348900       0.772238
    10632.642200       0.776843
    10643.959600       0.781403
    10655.301000       0.785915
    10666.666700       0.790379
    10678.056600       0.794797
    10689.470900       0.799167
    10700.909600       0.803489
    10712.372800       0.807763
    10723.860600       0.811989
    10735.373100       0.816166
    10746.910300       0.820294
    10758.472300       0.824374
    10770.059200       0.828405
    10781.671200       0.832387
    10793.308100       0.836319
    10804.970300       0.840203
    10816.657700       0.844037
    10828.370300       0.847821
    10840.108400       0.851556
    10851.871900       0.855241
    10863.661100       0.858877
    10875.475800       0.862463
    10887.316300       0.865999
    10899.182600       0.869485
    10911.074700       0.872922
    10922.992900       0.876309
    10934.937100       0.879646
    10946.907500       0.882933
    10958.904100       0.886171
    10970.927000       0.889359
    10982.976400       0.892497
    10995.052200       0.895586
    11007.154700       0.898626
    11019.283700       0.901616
    11031.439600       0.904557
    11043.622300       0.907448
    11055.832000       0.910291
    11068.068600       0.913084
    11080.332400       0.915829
    11092.623400       0.918525
    11104.941700       0.921172
    11117.287400       0.923771
    11129.660500       0.926321
    11142.061300       0.928824
    11154.489700       0.931278
    11166.945800       0.933685
    11179.429800       0.936044
    11191.941800       0.938356
    11204.481800       0.940620
    11217.049900       0.942837
    11229.646300       0.945008
    11242.270900       0.947131
    11254.924000       0.949209
    11267.605600       0.951240
    11280.315800       0.953225
    11293.054800       0.955165
    11305.822500       0.957059
    11318.619100       0.958907
    11331.444800       0.960711
    11344.299500       0.962470
    11357.183400       0.964184
    11370.096600       0.965855
    11383.039300       0.967481
    11396.011400       0.969064
    11409.013100       0.970603
    11422.044500       0.972099
    11435.105800       0.973552
    11448.196900       0.974962
    11461.318100       0.976330
    11474.469300       0.977656
    11487.650800       0.978941
    11500.862600       0.980184
    11514.104800       0.981386
    11527.377500       0.982547
    11540.680900       0.983667
    11554.015000       0.984747
    11567.380000       0.985787
    11580.775900       0.986788
    11594.202900       0.987749
    11607.661100       0.988672
    11621.150500       0.989555
    11634.671300       0.990401
    11648.223600       0.991208
    11661.807600       0.991977
    11675.423200       0.992709
    11689.070700       0.993404
    11702.750100       0.994062
    11716.461600       0.994684
    11730.205300       0.995269
    11743.981200       0.995819
    11757.789500       0.996333
    11771.630400       0.996812
    11785.503800       0.997256
    11799.410000       0.997665
    11813.349100       0.998040
    11827.321100       0.998382
    11841.326200       0.998689
    11855.364600       0.998964
    11869.436200       0.999205
    11883.541300       0.999414
    11897.680000       0.999591
    11911.852300       0.999735
    11926.058400       0.999848
    11940.298500       0.999930
    11954.572600       0.999980
    11968.880900       1.000000
    11983.223500       0.999989
    11997.600500       0.999948
    12012.012000       0.999878
    12026.458200       0.999778
    12040.939200       0.999648
    12055.455100       0.999490
    12070.006000       0.999303
    12084.592100       0.999088
    12099.213600       0.998845
    12113.870400       0.998574
    12128.562800       0.998276
    12143.290800       0.997951
    12158.054700       0.997599
    12172.854500       0.997220
    12187.690400       0.996815
    12202.562500       0.996384
    12217.471000       0.995928
    12232.415900       0.995446
    12247.397400       0.994939
    12262.415700       0.994407
    12277.470800       0.993851
    12292.563000       0.993270
    12307.692300       0.992666
    12322.858900       0.992037
    12338.062900       0.991385
    12353.304500       0.990710
    12368.583800       0.990012
    12383.900900       0.989291
    12399.256000       0.988548
    12414.649300       0.987782
    12430.080800       0.986995
    12445.550700       0.986186
    12461.059200       0.985355
    12476.606400       0.984503
    12492.192400       0.983630
    12507.817400       0.982736
    12523.481500       0.981822
    12539.185000       0.980887
    12554.927800       0.979933
    12570.710200       0.978958
    12586.532400       0.977964
    12602.394500       0.976950
    12618.296500       0.975917
    12634.238800       0.974865
    12650.221400       0.973794
    12666.244500       0.972705
    12682.308200       0.971597
    12698.412700       0.970471
    12714.558200       0.969327
    12730.744700       0.968165
    12746.972600       0.966985
    12763.241900       0.965788
    12779.552700       0.964574
    12795.905300       0.963342
    12812.299800       0.962094
    12828.736400       0.960829
    12845.215200       0.959547
    12861.736300       0.958249
    12878.300100       0.956935
    12894.906500       0.955604
    12911.555800       0.954258
    12928.248200       0.952896
    12944.983800       0.951518
    12961.762800       0.950125
    12978.585300       0.948716
    12995.451600       0.947292
    13012.361700       0.945853
    13029.316000       0.944400
    13046.314400       0.942931
    13063.357300       0.941448
    13080.444700       0.939951
    13097.576900       0.938439
    13114.754100       0.936913
    13131.976400       0.935373
    13149.243900       0.933819
    13166.556900       0.932251
    13183.915600       0.930669
    13201.320100       0.929073
    13218.770700       0.927464
    13236.267400       0.925842
    13253.810500       0.924206
    13271.400100       0.922558
    13289.036500       0.920896
    13306.719900       0.919221
    13324.450400       0.917533
    13342.228200       0.915832
    13360.053400       0.914119
    13377.926400       0.912393
    13395.847300       0.910655
    13413.816200       0.908904
    13431.833400       0.907141
    13449.899100       0.905366
    13468.013500       0.903578
    13486.176700       0.901779
    13504.388900       0.899967
    13522.650400       0.898144
    13540.961400       0.896308
    13559.322000       0.894461
    13577.732500       0.892603
    13596.193100       0.890732
    13614.703900       0.888850
    13633.265200       0.886957
    13651.877100       0.885052
    13670.540000       0.883136
    13689.253900       0.881209
    13708.019200       0.879270
    13726.836000       0.877321
    13745.704500       0.875360
    13764.624900       0.873388
    13783.597500       0.871406
    13802.622500       0.869412
    13821.700100       0.867408
    13840.830400       0.865393
    13860.013900       0.863367
    13879.250500       0.861331
    13898.540700       0.859284
    13917.884500       0.857227
    13937.282200       0.855159
    13956.734100       0.853080
    13976.240400       0.850992
    13995.801300       0.848893
    14015.417000       0.846784
    14035.087700       0.844664
    14054.813800       0.842535
    14074.595400       0.840395
    14094.432700       0.838246
    14114.326000       0.836087
    14134.275600       0.833917
    14154.281700       0.831738
    14174.344400       0.829549
    14194.464200       0.827350
    14214.641100       0.825142
    14234.875400       0.822924
    14255.167500       0.820696
    14275.517500       0.818459
    14295.925700       0.816212
    14316.392300       0.813956
    14336.917600       0.811691
    14357.501800       0.809416
    14378.145200       0.807132
    14398.848100       0.804839
    14419.610700       0.802537
    14440.433200       0.800226
    14461.316000       0.797905
    14482.259200       0.795576
    14503.263200       0.793238
    14524.328200       0.790891
    14545.454500       0.788536
    14566.642400       0.786171
    14587.892000       0.783798
    14609.203800       0.781417
    14630.577900       0.779027
    14652.014700       0.776628
    14673.514300       0.774221
    14695.077100       0.771806
    14716.703500       0.769383
    14738.393500       0.766951
    14760.147600       0.764512
    14781.966000       0.762064
    14803.849000       0.759609
    14825.796900       0.757145
    14847.809900       0.754674
    14869.888500       0.752195
    14892.032800       0.749709
    14914.243100       0.747215
    14936.519800       0.744713
    14958.863100       0.742204
    14981.273400       0.739688
    15003.750900       0.737165
    15026.296000       0.734634
    15048.909000       0.732097
    15071.590100       0.729552
    15094.339600       0.727001
    15117.158000       0.724442
    15140.045400       0.721878
    15163.002300       0.719306
    15186.028900       0.716728
    15209.125500       0.714144
    15232.292500       0.711553
    15255.530100       0.708956
    15278.838800       0.706353
    15302.218800       0.703744
    15325.670500       0.701129
    15349.194200       0.698509
    15372.790200       0.695883
    15396.458800       0.693251
    15420.200500       0.690614
    15444.015400       0.687971
    15467.904100       0.685323
    15491.866800       0.682670
    15515.903800       0.680012
    15540.015500       0.677349
    15564.202300       0.674681
    15588.464500       0.672009
    15612.802500       0.669332
    15637.216600       0.666651
    15661.707100       0.663965
    15686.274500       0.661275
    15710.919100       0.658581
    15735.641200       0.655883
    15760.441300       0.653182
    15785.319700       0.650477
    15810.276700       0.647768
    15835.312700       0.645056
    15860.428200       0.642340
    15885.623500       0.639622
    15910.899000       0.636900
    15936.255000       0.634176
    15961.691900       0.631449
    15987.210200       0.628719
    16012.810200       0.625987
    16038.492400       0.623252
    16064.257000       0.620515
    16090.104600       0.617777
    16116.035500       0.615036
    16142.050000       0.612293
    16168.148700       0.609549
    16194.332000       0.606804
    16220.600200       0.604057
    16246.953700       0.601309
    16273.393000       0.598560
    16299.918500       0.595810
    16326.530600       0.593060
    16353.229800       0.590308
    16380.016400       0.587557
    16406.890900       0.584805
    16433.853700       0.582052
    16460.905300       0.579300
    16488.046200       0.576548
    16515.276600       0.573796
    16542.597200       0.571045
    16570.008300       0.568295
    16597.510400       0.565545
    16625.103900       0.562795
    16652.789300       0.560047
    16680.567100       0.557300
    16708.437800       0.554555
    16736.401700       0.551811
    16764.459300       0.549068
    16792.611300       0.546328
    16820.857900       0.543589
    16849.199700       0.540852
    16877.637100       0.538117
    16906.170800       0.535385
    16934.801000       0.532656
    16963.528400       0.529928
    16992.353400       0.527204
    17021.276600       0.524483
    17050.298400       0.521764
    17079.419300       0.519049
    17108.639900       0.516337
    17137.960600       0.513629
    17167.382000       0.510924
    17196.904600       0.508223
    17226.528900       0.505526
    17256.255400       0.502833
    17286.084700       0.500143
    17316.017300       0.497458
    17346.053800       0.494778
    17376.194600       0.492102
    17406.440400       0.489431
    17436.791600       0.486764
    17467.248900       0.484102
    17497.812800       0.481445
    17528.483800       0.478793
    17559.262500       0.476147
    17590.149500       0.473506
    17621.145400       0.470870
    17652.250700       0.468239
    17683.466000       0.465615
    17714.791900       0.462995
    17746.228900       0.460382
    17777.777800       0.457775
    17809.439000       0.455174
    17841.213200       0.452579
    17873.101000       0.449989
    17905.103000       0.447407
    17937.219700       0.444830
    17969.451900       0.442260
    18001.800200       0.439696
    18034.265100       0.437139
    18066.847300       0.434589
    18099.547500       0.432045
    18132.366300       0.429508
    18165.304300       0.426978
    18198.362100       0.424455
    18231.540600       0.421938
    18264.840200       0.419429
    18298.261700       0.416926
    18331.805700       0.414431
    18365.472900       0.411943
    18399.264000       0.409461
    18433.179700       0.406987
    18467.220700       0.404520
    18501.387600       0.402060
    18535.681200       0.399607
    18570.102100       0.397162
    18604.651200       0.394724
    18639.329000       0.392292
    18674.136300       0.389869
    18709.073900       0.387452
    18744.142500       0.385042
    18779.342700       0.382640
    18814.675400       0.380244
    18850.141400       0.377856
    18885.741300       0.375475
    18921.475900       0.373101
    18957.346000       0.370734
    18993.352300       0.368374
    19029.495700       0.366021
    19065.776900       0.363675
    19102.196800       0.361335
    19138.756000       0.359002
    19175.455400       0.356676
    19212.295900       0.354357
    19249.278200       0.352044
    19286.403100       0.349738
    19323.671500       0.347437
    19361.084200       0.345144
    19398.642100       0.342856
    19436.346000       0.340574
    19474.196700       0.338299
    19512.195100       0.336029
    19550.342100       0.333765
    19588.638600       0.331507
    19627.085400       0.329254
    19665.683400       0.327006
    19704.433500       0.324764
    19743.336600       0.322526
    19782.393700       0.320294
    19821.605600       0.318067
    19860.973200       0.315844
    19900.497500       0.313625
    19940.179500       0.311411
    19980.020000       0.309201
    20020.020000       0.306995
    20060.180500       0.304793
    20100.502500       0.302595
    20140.986900       0.300399
    20181.634700       0.298208
    20222.446900       0.296019
    20263.424500       0.293833
    20304.568500       0.291649
    20345.880000       0.289468
    20387.359800       0.287290
    20429.009200       0.285113
    20470.829100       0.282938
    20512.820500       0.280765
    20554.984600       0.278592
    20597.322300       0.276421
    20639.834900       0.274251
    20682.523300       0.272082
    20725.388600       0.269913
    20768.432000       0.267744
    20811.654500       0.265575
    20855.057400       0.263405
    20898.641600       0.261235
    20942.408400       0.259065
    20986.358900       0.256893
    21030.494200       0.254719
    21074.815600       0.252544
    21119.324200       0.250367
    21164.021200       0.248188
    21208.907700       0.246007
    21253.985100       0.243823
    21299.254500       0.241635
    21344.717200       0.239445
    21390.374300       0.237251
    21436.227200       0.235053
    21482.277100       0.232852
    21528.525300       0.230645
    21574.973000       0.228435
    21621.621600       0.226219
    21668.472400       0.223998
    21715.526600       0.221772
    21762.785600       0.219540
    21810.250800       0.217302
    21857.923500       0.215058
    21905.805000       0.212808
    21953.896800       0.210550
    22002.200200       0.208286
    22050.716600       0.206014
    22099.447500       0.203735
    22148.394200       0.201448
    22197.558300       0.199153
    22246.941000       0.196849
    22296.544000       0.194537
    22346.368700       0.192217
    22396.416600       0.189887
    22446.689100       0.187548
    22497.187900       0.185199
    22547.914300       0.182841
    22598.870100       0.180473
    22650.056600       0.178095
    22701.475600       0.175707
    22753.128600       0.173308
    22805.017100       0.170898
    22857.142900       0.168478
    22909.507400       0.166046
    22962.112500       0.163604
    23014.959700       0.161150
    23068.050700       0.158685
    23121.387300       0.156208
    23174.971000       0.153719
    23228.803700       0.151219
    23282.887100       0.148707
    23337.222900       0.146183
    23391.812900       0.143647
    23446.658900       0.141098
    23501.762600       0.138538
    23557.126000       0.135966
    23612.750900       0.133381
    23668.639100       0.130784
    23724.792400       0.128176
    23781.212800       0.125555
    23837.902300       0.122922
    23894.862600       0.120277
    23952.095800       0.117620
    24009.603800       0.114952
    24067.388700       0.112272
    24125.452400       0.109580
    24183.796900       0.106878
    24242.424200       0.104164
    24301.336600       0.101439
    24360.535900       0.098704
    24420.024400       0.095958
    24479.804200       0.093202
    24539.877300       0.090437
    24600.246000       0.087662
    24660.912500       0.084878
    24721.878900       0.082086
    24783.147500       0.079285
    24844.720500       0.076476
    24906.600200       0.073660
    24968.789000       0.070838
    25031.289100       0.068009
    25094.102900       0.065174
    25157.232700       0.062334
    25220.681000       0.059490
    25284.450100       0.056642
    25348.542500       0.053791
    25412.960600       0.050938
    25477.707000       0.048083
