14,   channel 14 SRF from file SRF_SSH-1_Delivery_220520/SRF_DMSP-F4_SSH_Chan14.asc received June 2022 from SPASCIA
Number of data points:
270
Wavenumber (cm-1)   Filter response
      735.500000       0.000970
      735.600000       0.001080
      735.700000       0.001190
      735.800000       0.001320
      735.900000       0.001460
      736.000000       0.001610
      736.100000       0.001780
      736.200000       0.001970
      736.300000       0.002170
      736.400000       0.002390
      736.500000       0.002630
      736.600000       0.002890
      736.700000       0.003170
      736.800000       0.003480
      736.900000       0.003820
      737.000000       0.004190
      737.100000       0.004590
      737.200000       0.005030
      737.300000       0.005500
      737.400000       0.006010
      737.500000       0.006560
      737.600000       0.007160
      737.700000       0.007810
      737.800000       0.008510
      737.900000       0.009270
      738.000000       0.010090
      738.100000       0.010960
      738.200000       0.011910
      738.300000       0.012930
      738.400000       0.014020
      738.500000       0.015200
      738.600000       0.016460
      738.700000       0.017810
      738.800000       0.019260
      738.900000       0.020820
      739.000000       0.022470
      739.100000       0.024250
      739.200000       0.026140
      739.300000       0.028160
      739.400000       0.030310
      739.500000       0.032600
      739.600000       0.035030
      739.700000       0.037620
      739.800000       0.040370
      739.900000       0.043290
      740.000000       0.046380
      740.100000       0.049660
      740.200000       0.053120
      740.300000       0.056790
      740.400000       0.060660
      740.500000       0.064740
      740.600000       0.069050
      740.700000       0.073590
      740.800000       0.078360
      740.900000       0.083380
      741.000000       0.088660
      741.100000       0.094190
      741.200000       0.100000
      741.300000       0.107760
      741.400000       0.115890
      741.500000       0.124410
      741.600000       0.133300
      741.700000       0.142590
      741.800000       0.152260
      741.900000       0.162320
      742.000000       0.172770
      742.100000       0.183620
      742.200000       0.194850
      742.300000       0.206480
      742.400000       0.218480
      742.500000       0.230870
      742.600000       0.243630
      742.700000       0.256750
      742.800000       0.270230
      742.900000       0.284060
      743.000000       0.298230
      743.100000       0.312720
      743.200000       0.327520
      743.300000       0.342620
      743.400000       0.358000
      743.500000       0.373650
      743.600000       0.389540
      743.700000       0.405660
      743.800000       0.421990
      743.900000       0.438500
      744.000000       0.455180
      744.100000       0.472000
      744.200000       0.488940
      744.300000       0.505190
      744.400000       0.520080
      744.500000       0.535070
      744.600000       0.550150
      744.700000       0.565300
      744.800000       0.580490
      744.900000       0.595720
      745.000000       0.610960
      745.100000       0.626200
      745.200000       0.641410
      745.300000       0.656570
      745.400000       0.671670
      745.500000       0.686690
      745.600000       0.701590
      745.700000       0.716370
      745.800000       0.731000
      745.900000       0.745450
      746.000000       0.759710
      746.100000       0.773750
      746.200000       0.787560
      746.300000       0.801100
      746.400000       0.814370
      746.500000       0.827330
      746.600000       0.839960
      746.700000       0.852250
      746.800000       0.864180
      746.900000       0.875720
      747.000000       0.886850
      747.100000       0.897550
      747.200000       0.907820
      747.300000       0.917620
      747.400000       0.926940
      747.500000       0.935760
      747.600000       0.944070
      747.700000       0.951850
      747.800000       0.959100
      747.900000       0.965780
      748.000000       0.971900
      748.100000       0.977440
      748.200000       0.982390
      748.300000       0.986750
      748.400000       0.990490
      748.500000       0.993630
      748.600000       0.996140
      748.700000       0.998030
      748.800000       0.999290
      748.900000       0.999920
      749.000000       0.999920
      749.100000       0.999290
      749.200000       0.998030
      749.300000       0.996140
      749.400000       0.993630
      749.500000       0.990490
      749.600000       0.986750
      749.700000       0.982390
      749.800000       0.977440
      749.900000       0.971900
      750.000000       0.965780
      750.100000       0.959100
      750.200000       0.951850
      750.300000       0.944070
      750.400000       0.935760
      750.500000       0.926940
      750.600000       0.917620
      750.700000       0.907820
      750.800000       0.897550
      750.900000       0.886850
      751.000000       0.875720
      751.100000       0.864180
      751.200000       0.852250
      751.300000       0.839960
      751.400000       0.827330
      751.500000       0.814370
      751.600000       0.801100
      751.700000       0.787560
      751.800000       0.773750
      751.900000       0.759710
      752.000000       0.745450
      752.100000       0.731000
      752.200000       0.716370
      752.300000       0.701590
      752.400000       0.686690
      752.500000       0.671670
      752.600000       0.656570
      752.700000       0.641410
      752.800000       0.626200
      752.900000       0.610960
      753.000000       0.595720
      753.100000       0.580490
      753.200000       0.565300
      753.300000       0.550150
      753.400000       0.535070
      753.500000       0.520080
      753.600000       0.505190
      753.700000       0.488940
      753.800000       0.472000
      753.900000       0.455180
      754.000000       0.438500
      754.100000       0.421990
      754.200000       0.405660
      754.300000       0.389540
      754.400000       0.373650
      754.500000       0.358000
      754.600000       0.342620
      754.700000       0.327520
      754.800000       0.312720
      754.900000       0.298230
      755.000000       0.284060
      755.100000       0.270230
      755.200000       0.256750
      755.300000       0.243630
      755.400000       0.230870
      755.500000       0.218480
      755.600000       0.206480
      755.700000       0.194850
      755.800000       0.183620
      755.900000       0.172770
      756.000000       0.162320
      756.100000       0.152260
      756.200000       0.142590
      756.300000       0.133300
      756.400000       0.124410
      756.500000       0.115890
      756.600000       0.107760
      756.700000       0.100000
      756.800000       0.094190
      756.900000       0.088660
      757.000000       0.083380
      757.100000       0.078360
      757.200000       0.073590
      757.300000       0.069050
      757.400000       0.064740
      757.500000       0.060660
      757.600000       0.056790
      757.700000       0.053120
      757.800000       0.049660
      757.900000       0.046380
      758.000000       0.043290
      758.100000       0.040370
      758.200000       0.037620
      758.300000       0.035030
      758.400000       0.032600
      758.500000       0.030310
      758.600000       0.028160
      758.700000       0.026140
      758.800000       0.024250
      758.900000       0.022470
      759.000000       0.020820
      759.100000       0.019260
      759.200000       0.017810
      759.300000       0.016460
      759.400000       0.015200
      759.500000       0.014020
      759.600000       0.012930
      759.700000       0.011910
      759.800000       0.010960
      759.900000       0.010090
      760.000000       0.009270
      760.100000       0.008510
      760.200000       0.007810
      760.300000       0.007160
      760.400000       0.006560
      760.500000       0.006010
      760.600000       0.005500
      760.700000       0.005030
      760.800000       0.004590
      760.900000       0.004190
      761.000000       0.003820
      761.100000       0.003480
      761.200000       0.003170
      761.300000       0.002890
      761.400000       0.002630
      761.500000       0.002390
      761.600000       0.002170
      761.700000       0.001970
      761.800000       0.001780
      761.900000       0.001610
      762.000000       0.001460
      762.100000       0.001320
      762.200000       0.001190
      762.300000       0.001080
      762.400000       0.000970
