149,   149, MVIRI VIS channel from srf_MET7_2016078_2016079_1801-Release_S10EE_10.dat
Number of data points:
793
Wavenumber (cm-1)   Filter response
     8442.380800       0.000000
     8449.514200       0.000000
     8456.659600       0.000004
     8463.817200       0.000057
     8470.986900       0.000169
     8478.168700       0.000338
     8485.362700       0.000562
     8492.569000       0.000841
     8499.787500       0.001171
     8507.018300       0.001553
     8514.261400       0.001983
     8521.516800       0.002462
     8528.784600       0.002987
     8536.064900       0.003558
     8543.357500       0.004172
     8550.662700       0.004829
     8557.980300       0.005527
     8565.310500       0.006266
     8572.653200       0.007045
     8580.008600       0.007861
     8587.376600       0.008715
     8594.757200       0.009605
     8602.150500       0.010530
     8609.556600       0.011491
     8616.975400       0.012484
     8624.407100       0.013511
     8631.851500       0.014569
     8639.308900       0.015659
     8646.779100       0.016780
     8654.262200       0.017930
     8661.758300       0.019110
     8669.267400       0.020319
     8676.789600       0.021555
     8684.324800       0.022819
     8691.873100       0.024110
     8699.434500       0.025428
     8707.009100       0.026772
     8714.596900       0.028141
     8722.198000       0.029536
     8729.812300       0.030955
     8737.439900       0.032399
     8745.080900       0.033867
     8752.735200       0.035358
     8760.403000       0.036873
     8768.084200       0.038412
     8775.778900       0.039973
     8783.487000       0.041557
     8791.208800       0.043163
     8798.944100       0.044791
     8806.693100       0.046442
     8814.455700       0.048114
     8822.232000       0.049808
     8830.022100       0.051524
     8837.825900       0.053261
     8845.643500       0.055019
     8853.475000       0.056799
     8861.320300       0.058600
     8869.179600       0.060421
     8877.052800       0.062264
     8884.940000       0.064128
     8892.841300       0.066013
     8900.756600       0.067918
     8908.686000       0.069845
     8916.629500       0.071792
     8924.587200       0.073760
     8932.559200       0.075749
     8940.545400       0.077759
     8948.545900       0.079789
     8956.560700       0.081841
     8964.589900       0.083914
     8972.633500       0.086007
     8980.691500       0.088122
     8988.764000       0.090257
     8996.851100       0.092414
     9004.952700       0.094592
     9013.068900       0.096791
     9021.199800       0.099012
     9029.345400       0.101254
     9037.505600       0.103518
     9045.680700       0.105803
     9053.870500       0.108110
     9062.075200       0.110438
     9070.294800       0.112789
     9078.529300       0.115161
     9086.778700       0.117555
     9095.043200       0.119972
     9103.322700       0.122410
     9111.617300       0.124871
     9119.927000       0.127354
     9128.251900       0.129860
     9136.592100       0.132388
     9144.947400       0.134939
     9153.318100       0.137512
     9161.704100       0.140108
     9170.105500       0.142728
     9178.522300       0.145370
     9186.954500       0.148034
     9195.402300       0.150723
     9203.865600       0.153434
     9212.344500       0.156168
     9220.839100       0.158926
     9229.349300       0.161707
     9237.875300       0.164512
     9246.417000       0.167339
     9254.974500       0.170191
     9263.547900       0.173066
     9272.137200       0.175965
     9280.742500       0.178887
     9289.363700       0.181833
     9298.000900       0.184803
     9306.654300       0.187796
     9315.323700       0.190813
     9324.009300       0.193854
     9332.711200       0.196919
     9341.429200       0.200007
     9350.163600       0.203120
     9358.914400       0.206256
     9367.681500       0.209416
     9376.465100       0.212599
     9385.265100       0.215806
     9394.081700       0.219038
     9402.914900       0.222292
     9411.764700       0.225571
     9420.631200       0.228873
     9429.514400       0.232198
     9438.414300       0.235547
     9447.331100       0.238919
     9456.264800       0.242315
     9465.215300       0.245734
     9474.182900       0.249176
     9483.167400       0.252642
     9492.169000       0.256130
     9501.187600       0.259641
     9510.223500       0.263175
     9519.276500       0.266732
     9528.346800       0.270311
     9537.434400       0.273913
     9546.539400       0.277537
     9555.661700       0.281183
     9564.801500       0.284851
     9573.958800       0.288541
     9583.133700       0.292252
     9592.326100       0.295985
     9601.536200       0.299740
     9610.764100       0.303515
     9620.009600       0.307312
     9629.273000       0.311130
     9638.554200       0.314968
     9647.853400       0.318826
     9657.170400       0.322704
     9666.505600       0.326603
     9675.858700       0.330522
     9685.230000       0.334459
     9694.619500       0.338416
     9704.027200       0.342392
     9713.453100       0.346387
     9722.897400       0.350400
     9732.360100       0.354431
     9741.841200       0.358481
     9751.340800       0.362548
     9760.859000       0.366633
     9770.395700       0.370735
     9779.951100       0.374853
     9789.525200       0.378988
     9799.118100       0.383140
     9808.729800       0.387306
     9818.360300       0.391489
     9828.009800       0.395687
     9837.678300       0.399901
     9847.365800       0.404128
     9857.072400       0.408370
     9866.798200       0.412626
     9876.543200       0.416895
     9886.307500       0.421178
     9896.091000       0.425474
     9905.894000       0.429782
     9915.716400       0.434103
     9925.558300       0.438435
     9935.419800       0.442778
     9945.300800       0.447133
     9955.201600       0.451498
     9965.122100       0.455874
     9975.062300       0.460259
     9985.022500       0.464654
     9995.002500       0.469058
    10005.002500       0.473470
    10015.022500       0.477891
    10025.062700       0.482319
    10035.122900       0.486755
    10045.203400       0.491198
    10055.304200       0.495648
    10065.425300       0.500104
    10075.566800       0.504565
    10085.728700       0.509032
    10095.911200       0.513503
    10106.114200       0.517979
    10116.337900       0.522459
    10126.582300       0.526942
    10136.847400       0.531429
    10147.133400       0.535918
    10157.440300       0.540409
    10167.768200       0.544902
    10178.117000       0.549396
    10188.487000       0.553891
    10198.878100       0.558386
    10209.290500       0.562881
    10219.724100       0.567375
    10230.179000       0.571869
    10240.655400       0.576361
    10251.153300       0.580850
    10261.672700       0.585337
    10272.213700       0.589822
    10282.776300       0.594302
    10293.360800       0.598780
    10303.967000       0.603252
    10314.595200       0.607720
    10325.245200       0.612182
    10335.917300       0.616639
    10346.611500       0.621089
    10357.327800       0.625532
    10368.066400       0.629968
    10378.827200       0.634396
    10389.610400       0.638817
    10400.416000       0.643228
    10411.244100       0.647630
    10422.094800       0.652023
    10432.968200       0.656406
    10443.864200       0.660778
    10454.783100       0.665138
    10465.724800       0.669488
    10476.689400       0.673825
    10487.677000       0.678150
    10498.687700       0.682462
    10509.721500       0.686760
    10520.778500       0.691044
    10531.858900       0.695314
    10542.962600       0.699569
    10554.089700       0.703809
    10565.240400       0.708033
    10576.414600       0.712241
    10587.612500       0.716432
    10598.834100       0.720606
    10610.079600       0.724763
    10621.348900       0.728901
    10632.642200       0.733021
    10643.959600       0.737122
    10655.301000       0.741203
    10666.666700       0.745265
    10678.056600       0.749306
    10689.470900       0.753326
    10700.909600       0.757326
    10712.372800       0.761304
    10723.860600       0.765260
    10735.373100       0.769193
    10746.910300       0.773104
    10758.472300       0.776991
    10770.059200       0.780854
    10781.671200       0.784694
    10793.308100       0.788509
    10804.970300       0.792299
    10816.657700       0.796064
    10828.370300       0.799803
    10840.108400       0.803515
    10851.871900       0.807202
    10863.661100       0.810862
    10875.475800       0.814494
    10887.316300       0.818099
    10899.182600       0.821676
    10911.074700       0.825224
    10922.992900       0.828744
    10934.937100       0.832235
    10946.907500       0.835696
    10958.904100       0.839127
    10970.927000       0.842529
    10982.976400       0.845900
    10995.052200       0.849240
    11007.154700       0.852549
    11019.283700       0.855827
    11031.439600       0.859073
    11043.622300       0.862287
    11055.832000       0.865469
    11068.068600       0.868618
    11080.332400       0.871734
    11092.623400       0.874817
    11104.941700       0.877867
    11117.287400       0.880882
    11129.660500       0.883864
    11142.061300       0.886812
    11154.489700       0.889724
    11166.945800       0.892602
    11179.429800       0.895445
    11191.941800       0.898253
    11204.481800       0.901025
    11217.049900       0.903762
    11229.646300       0.906462
    11242.270900       0.909126
    11254.924000       0.911754
    11267.605600       0.914346
    11280.315800       0.916900
    11293.054800       0.919417
    11305.822500       0.921898
    11318.619100       0.924341
    11331.444800       0.926746
    11344.299500       0.929114
    11357.183400       0.931443
    11370.096600       0.933735
    11383.039300       0.935989
    11396.011400       0.938204
    11409.013100       0.940381
    11422.044500       0.942520
    11435.105800       0.944620
    11448.196900       0.946681
    11461.318100       0.948703
    11474.469300       0.950686
    11487.650800       0.952630
    11500.862600       0.954535
    11514.104800       0.956401
    11527.377500       0.958227
    11540.680900       0.960014
    11554.015000       0.961762
    11567.380000       0.963470
    11580.775900       0.965139
    11594.202900       0.966768
    11607.661100       0.968357
    11621.150500       0.969907
    11634.671300       0.971418
    11648.223600       0.972888
    11661.807600       0.974319
    11675.423200       0.975711
    11689.070700       0.977063
    11702.750100       0.978375
    11716.461600       0.979647
    11730.205300       0.980880
    11743.981200       0.982074
    11757.789500       0.983228
    11771.630400       0.984343
    11785.503800       0.985418
    11799.410000       0.986454
    11813.349100       0.987451
    11827.321100       0.988409
    11841.326200       0.989328
    11855.364600       0.990207
    11869.436200       0.991048
    11883.541300       0.991850
    11897.680000       0.992614
    11911.852300       0.993339
    11926.058400       0.994025
    11940.298500       0.994674
    11954.572600       0.995284
    11968.880900       0.995856
    11983.223500       0.996391
    11997.600500       0.996887
    12012.012000       0.997347
    12026.458200       0.997768
    12040.939200       0.998153
    12055.455100       0.998501
    12070.006000       0.998812
    12084.592100       0.999086
    12099.213600       0.999324
    12113.870400       0.999526
    12128.562800       0.999692
    12143.290800       0.999822
    12158.054700       0.999917
    12172.854500       0.999976
    12187.690400       1.000000
    12202.562500       0.999989
    12217.471000       0.999944
    12232.415900       0.999865
    12247.397400       0.999751
    12262.415700       0.999604
    12277.470800       0.999423
    12292.563000       0.999209
    12307.692300       0.998962
    12322.858900       0.998682
    12338.062900       0.998370
    12353.304500       0.998026
    12368.583800       0.997650
    12383.900900       0.997242
    12399.256000       0.996803
    12414.649300       0.996334
    12430.080800       0.995834
    12445.550700       0.995303
    12461.059200       0.994743
    12476.606400       0.994154
    12492.192400       0.993535
    12507.817400       0.992887
    12523.481500       0.992211
    12539.185000       0.991506
    12554.927800       0.990774
    12570.710200       0.990014
    12586.532400       0.989228
    12602.394500       0.988414
    12618.296500       0.987575
    12634.238800       0.986709
    12650.221400       0.985818
    12666.244500       0.984901
    12682.308200       0.983960
    12698.412700       0.982994
    12714.558200       0.982004
    12730.744700       0.980991
    12746.972600       0.979955
    12763.241900       0.978895
    12779.552700       0.977814
    12795.905300       0.976710
    12812.299800       0.975585
    12828.736400       0.974438
    12845.215200       0.973271
    12861.736300       0.972083
    12878.300100       0.970876
    12894.906500       0.969649
    12911.555800       0.968403
    12928.248200       0.967139
    12944.983800       0.965856
    12961.762800       0.964555
    12978.585300       0.963238
    12995.451600       0.961903
    13012.361700       0.960552
    13029.316000       0.959185
    13046.314400       0.957802
    13063.357300       0.956404
    13080.444700       0.954992
    13097.576900       0.953565
    13114.754100       0.952125
    13131.976400       0.950671
    13149.243900       0.949205
    13166.556900       0.947726
    13183.915600       0.946235
    13201.320100       0.944732
    13218.770700       0.943219
    13236.267400       0.941694
    13253.810500       0.940160
    13271.400100       0.938616
    13289.036500       0.937063
    13306.719900       0.935501
    13324.450400       0.933930
    13342.228200       0.932352
    13360.053400       0.930766
    13377.926400       0.929173
    13395.847300       0.927574
    13413.816200       0.925969
    13431.833400       0.924358
    13449.899100       0.922741
    13468.013500       0.921120
    13486.176700       0.919495
    13504.388900       0.917866
    13522.650400       0.916233
    13540.961400       0.914598
    13559.322000       0.912960
    13577.732500       0.911320
    13596.193100       0.909678
    13614.703900       0.908035
    13633.265200       0.906391
    13651.877100       0.904747
    13670.540000       0.903103
    13689.253900       0.901460
    13708.019200       0.899817
    13726.836000       0.898176
    13745.704500       0.896536
    13764.624900       0.894899
    13783.597500       0.893264
    13802.622500       0.891632
    13821.700100       0.890004
    13840.830400       0.888380
    13860.013900       0.886759
    13879.250500       0.885144
    13898.540700       0.883533
    13917.884500       0.881928
    13937.282200       0.880328
    13956.734100       0.878735
    13976.240400       0.877148
    13995.801300       0.875568
    14015.417000       0.873996
    14035.087700       0.872431
    14054.813800       0.870874
    14074.595400       0.869326
    14094.432700       0.867786
    14114.326000       0.866256
    14134.275600       0.864734
    14154.281700       0.863223
    14174.344400       0.861722
    14194.464200       0.860231
    14214.641100       0.858750
    14234.875400       0.857281
    14255.167500       0.855824
    14275.517500       0.854378
    14295.925700       0.852944
    14316.392300       0.851522
    14336.917600       0.850113
    14357.501800       0.848717
    14378.145200       0.847334
    14398.848100       0.845964
    14419.610700       0.844608
    14440.433200       0.843266
    14461.316000       0.841939
    14482.259200       0.840625
    14503.263200       0.839327
    14524.328200       0.838043
    14545.454500       0.836775
    14566.642400       0.835522
    14587.892000       0.834284
    14609.203800       0.833063
    14630.577900       0.831857
    14652.014700       0.830668
    14673.514300       0.829495
    14695.077100       0.828338
    14716.703500       0.827199
    14738.393500       0.826076
    14760.147600       0.824971
    14781.966000       0.823882
    14803.849000       0.822812
    14825.796900       0.821758
    14847.809900       0.820723
    14869.888500       0.819705
    14892.032800       0.818705
    14914.243100       0.817723
    14936.519800       0.816759
    14958.863100       0.815814
    14981.273400       0.814886
    15003.750900       0.813977
    15026.296000       0.813087
    15048.909000       0.812215
    15071.590100       0.811361
    15094.339600       0.810526
    15117.158000       0.809710
    15140.045400       0.808913
    15163.002300       0.808134
    15186.028900       0.807374
    15209.125500       0.806632
    15232.292500       0.805909
    15255.530100       0.805205
    15278.838800       0.804519
    15302.218800       0.803852
    15325.670500       0.803204
    15349.194200       0.802574
    15372.790200       0.801963
    15396.458800       0.801370
    15420.200500       0.800795
    15444.015400       0.800238
    15467.904100       0.799700
    15491.866800       0.799179
    15515.903800       0.798677
    15540.015500       0.798192
    15564.202300       0.797725
    15588.464500       0.797276
    15612.802500       0.796844
    15637.216600       0.796429
    15661.707100       0.796031
    15686.274500       0.795650
    15710.919100       0.795286
    15735.641200       0.794938
    15760.441300       0.794607
    15785.319700       0.794291
    15810.276700       0.793992
    15835.312700       0.793708
    15860.428200       0.793440
    15885.623500       0.793186
    15910.899000       0.792948
    15936.255000       0.792724
    15961.691900       0.792515
    15987.210200       0.792320
    16012.810200       0.792138
    16038.492400       0.791970
    16064.257000       0.791816
    16090.104600       0.791674
    16116.035500       0.791544
    16142.050000       0.791427
    16168.148700       0.791322
    16194.332000       0.791228
    16220.600200       0.791146
    16246.953700       0.791074
    16273.393000       0.791012
    16299.918500       0.790961
    16326.530600       0.790919
    16353.229800       0.790886
    16380.016400       0.790862
    16406.890900       0.790847
    16433.853700       0.790839
    16460.905300       0.790839
    16488.046200       0.790847
    16515.276600       0.790860
    16542.597200       0.790880
    16570.008300       0.790905
    16597.510400       0.790936
    16625.103900       0.790971
    16652.789300       0.791011
    16680.567100       0.791054
    16708.437800       0.791101
    16736.401700       0.791150
    16764.459300       0.791201
    16792.611300       0.791254
    16820.857900       0.791308
    16849.199700       0.791363
    16877.637100       0.791418
    16906.170800       0.791472
    16934.801000       0.791525
    16963.528400       0.791576
    16992.353400       0.791625
    17021.276600       0.791671
    17050.298400       0.791713
    17079.419300       0.791752
    17108.639900       0.791786
    17137.960600       0.791814
    17167.382000       0.791837
    17196.904600       0.791853
    17226.528900       0.791862
    17256.255400       0.791863
    17286.084700       0.791855
    17316.017300       0.791839
    17346.053800       0.791813
    17376.194600       0.791776
    17406.440400       0.791729
    17436.791600       0.791669
    17467.248900       0.791597
    17497.812800       0.791513
    17528.483800       0.791414
    17559.262500       0.791301
    17590.149500       0.791173
    17621.145400       0.791029
    17652.250700       0.790868
    17683.466000       0.790691
    17714.791900       0.790495
    17746.228900       0.790281
    17777.777800       0.790047
    17809.439000       0.789793
    17841.213200       0.789519
    17873.101000       0.789223
    17905.103000       0.788905
    17937.219700       0.788564
    17969.451900       0.788199
    18001.800200       0.787810
    18034.265100       0.787396
    18066.847300       0.786956
    18099.547500       0.786490
    18132.366300       0.785996
    18165.304300       0.785474
    18198.362100       0.784924
    18231.540600       0.784344
    18264.840200       0.783734
    18298.261700       0.783093
    18331.805700       0.782420
    18365.472900       0.781715
    18399.264000       0.780977
    18433.179700       0.780205
    18467.220700       0.779398
    18501.387600       0.778556
    18535.681200       0.777678
    18570.102100       0.776763
    18604.651200       0.775811
    18639.329000       0.774821
    18674.136300       0.773792
    18709.073900       0.772723
    18744.142500       0.771614
    18779.342700       0.770464
    18814.675400       0.769273
    18850.141400       0.768039
    18885.741300       0.766762
    18921.475900       0.765441
    18957.346000       0.764076
    18993.352300       0.762666
    19029.495700       0.761210
    19065.776900       0.759707
    19102.196800       0.758158
    19138.756000       0.756560
    19175.455400       0.754915
    19212.295900       0.753220
    19249.278200       0.751476
    19286.403100       0.749682
    19323.671500       0.747836
    19361.084200       0.745940
    19398.642100       0.743991
    19436.346000       0.741990
    19474.196700       0.739935
    19512.195100       0.737827
    19550.342100       0.735664
    19588.638600       0.733447
    19627.085400       0.731174
    19665.683400       0.728845
    19704.433500       0.726460
    19743.336600       0.724018
    19782.393700       0.721518
    19821.605600       0.718961
    19860.973200       0.716345
    19900.497500       0.713670
    19940.179500       0.710937
    19980.020000       0.708143
    20020.020000       0.705290
    20060.180500       0.702376
    20100.502500       0.699401
    20140.986900       0.696365
    20181.634700       0.693268
    20222.446900       0.690109
    20263.424500       0.686887
    20304.568500       0.683603
    20345.880000       0.680257
    20387.359800       0.676847
    20429.009200       0.673374
    20470.829100       0.669838
    20512.820500       0.666238
    20554.984600       0.662574
    20597.322300       0.658846
    20639.834900       0.655054
    20682.523300       0.651197
    20725.388600       0.647277
    20768.432000       0.643291
    20811.654500       0.639241
    20855.057400       0.635127
    20898.641600       0.630948
    20942.408400       0.626704
    20986.358900       0.622396
    21030.494200       0.618023
    21074.815600       0.613586
    21119.324200       0.609085
    21164.021200       0.604519
    21208.907700       0.599889
    21253.985100       0.595195
    21299.254500       0.590438
    21344.717200       0.585617
    21390.374300       0.580733
    21436.227200       0.575786
    21482.277100       0.570777
    21528.525300       0.565705
    21574.973000       0.560571
    21621.621600       0.555376
    21668.472400       0.550120
    21715.526600       0.544803
    21762.785600       0.539427
    21810.250800       0.533990
    21857.923500       0.528495
    21905.805000       0.522941
    21953.896800       0.517330
    22002.200200       0.511661
    22050.716600       0.505936
    22099.447500       0.500156
    22148.394200       0.494320
    22197.558300       0.488430
    22246.941000       0.482487
    22296.544000       0.476492
    22346.368700       0.470444
    22396.416600       0.464347
    22446.689100       0.458199
    22497.187900       0.452004
    22547.914300       0.445760
    22598.870100       0.439470
    22650.056600       0.433135
    22701.475600       0.426755
    22753.128600       0.420333
    22805.017100       0.413869
    22857.142900       0.407365
    22909.507400       0.400821
    22962.112500       0.394240
    23014.959700       0.387623
    23068.050700       0.380971
    23121.387300       0.374286
    23174.971000       0.367569
    23228.803700       0.360822
    23282.887100       0.354046
    23337.222900       0.347244
    23391.812900       0.340417
    23446.658900       0.333566
    23501.762600       0.326695
    23557.126000       0.319804
    23612.750900       0.312895
    23668.639100       0.305971
    23724.792400       0.299033
    23781.212800       0.292084
    23837.902300       0.285125
    23894.862600       0.278160
    23952.095800       0.271190
    24009.603800       0.264217
    24067.388700       0.257244
    24125.452400       0.250273
    24183.796900       0.243307
    24242.424200       0.236347
    24301.336600       0.229398
    24360.535900       0.222461
    24420.024400       0.215539
    24479.804200       0.208635
    24539.877300       0.201751
    24600.246000       0.194891
    24660.912500       0.188057
    24721.878900       0.181252
    24783.147500       0.174480
    24844.720500       0.167743
    24906.600200       0.161045
    24968.789000       0.154388
    25031.289100       0.147776
    25094.102900       0.141213
    25157.232700       0.134701
    25220.681000       0.128245
    25284.450100       0.121847
    25348.542500       0.115512
    25412.960600       0.109243
    25477.707000       0.103043
