34,   34, MVIRI VIS channel from srf_MET2_1986123_1986124_1801-Release_S10EL_10.dat
Number of data points:
730
Wavenumber (cm-1)   Filter response
     8916.629500       0.000000
     8924.587200       0.000000
     8932.559200       0.000002
     8940.545400       0.000011
     8948.545900       0.000032
     8956.560700       0.000069
     8964.589900       0.000126
     8972.633500       0.000208
     8980.691500       0.000318
     8988.764000       0.000460
     8996.851100       0.000639
     9004.952700       0.000857
     9013.068900       0.001117
     9021.199800       0.001424
     9029.345400       0.001780
     9037.505600       0.002188
     9045.680700       0.002650
     9053.870500       0.003170
     9062.075200       0.003749
     9070.294800       0.004391
     9078.529300       0.005097
     9086.778700       0.005870
     9095.043200       0.006711
     9103.322700       0.007622
     9111.617300       0.008606
     9119.927000       0.009663
     9128.251900       0.010795
     9136.592100       0.012004
     9144.947400       0.013291
     9153.318100       0.014657
     9161.704100       0.016103
     9170.105500       0.017631
     9178.522300       0.019240
     9186.954500       0.020933
     9195.402300       0.022709
     9203.865600       0.024569
     9212.344500       0.026515
     9220.839100       0.028545
     9229.349300       0.030662
     9237.875300       0.032864
     9246.417000       0.035153
     9254.974500       0.037528
     9263.547900       0.039989
     9272.137200       0.042537
     9280.742500       0.045172
     9289.363700       0.047893
     9298.000900       0.050701
     9306.654300       0.053594
     9315.323700       0.056573
     9324.009300       0.059637
     9332.711200       0.062787
     9341.429200       0.066020
     9350.163600       0.069338
     9358.914400       0.072739
     9367.681500       0.076223
     9376.465100       0.079789
     9385.265100       0.083437
     9394.081700       0.087165
     9402.914900       0.090973
     9411.764700       0.094861
     9420.631200       0.098826
     9429.514400       0.102869
     9438.414300       0.106989
     9447.331100       0.111183
     9456.264800       0.115453
     9465.215300       0.119796
     9474.182900       0.124210
     9483.167400       0.128697
     9492.169000       0.133253
     9501.187600       0.137879
     9510.223500       0.142572
     9519.276500       0.147332
     9528.346800       0.152158
     9537.434400       0.157048
     9546.539400       0.162000
     9555.661700       0.167015
     9564.801500       0.172089
     9573.958800       0.177223
     9583.133700       0.182415
     9592.326100       0.187663
     9601.536200       0.192967
     9610.764100       0.198324
     9620.009600       0.203734
     9629.273000       0.209195
     9638.554200       0.214705
     9647.853400       0.220263
     9657.170400       0.225869
     9666.505600       0.231520
     9675.858700       0.237215
     9685.230000       0.242952
     9694.619500       0.248731
     9704.027200       0.254550
     9713.453100       0.260407
     9722.897400       0.266301
     9732.360100       0.272230
     9741.841200       0.278194
     9751.340800       0.284190
     9760.859000       0.290218
     9770.395700       0.296275
     9779.951100       0.302361
     9789.525200       0.308474
     9799.118100       0.314612
     9808.729800       0.320774
     9818.360300       0.326960
     9828.009800       0.333166
     9837.678300       0.339392
     9847.365800       0.345638
     9857.072400       0.351900
     9866.798200       0.358178
     9876.543200       0.364470
     9886.307500       0.370776
     9896.091000       0.377093
     9905.894000       0.383421
     9915.716400       0.389758
     9925.558300       0.396102
     9935.419800       0.402453
     9945.300800       0.408810
     9955.201600       0.415169
     9965.122100       0.421532
     9975.062300       0.427896
     9985.022500       0.434260
     9995.002500       0.440623
    10005.002500       0.446984
    10015.022500       0.453341
    10025.062700       0.459693
    10035.122900       0.466039
    10045.203400       0.472378
    10055.304200       0.478709
    10065.425300       0.485030
    10075.566800       0.491341
    10085.728700       0.497640
    10095.911200       0.503926
    10106.114200       0.510198
    10116.337900       0.516456
    10126.582300       0.522697
    10136.847400       0.528921
    10147.133400       0.535128
    10157.440300       0.541315
    10167.768200       0.547482
    10178.117000       0.553628
    10188.487000       0.559752
    10198.878100       0.565853
    10209.290500       0.571930
    10219.724100       0.577983
    10230.179000       0.584009
    10240.655400       0.590010
    10251.153300       0.595983
    10261.672700       0.601927
    10272.213700       0.607842
    10282.776300       0.613728
    10293.360800       0.619583
    10303.967000       0.625406
    10314.595200       0.631197
    10325.245200       0.636955
    10335.917300       0.642680
    10346.611500       0.648370
    10357.327800       0.654024
    10368.066400       0.659643
    10378.827200       0.665226
    10389.610400       0.670771
    10400.416000       0.676279
    10411.244100       0.681748
    10422.094800       0.687179
    10432.968200       0.692569
    10443.864200       0.697920
    10454.783100       0.703230
    10465.724800       0.708499
    10476.689400       0.713726
    10487.677000       0.718911
    10498.687700       0.724053
    10509.721500       0.729152
    10520.778500       0.734207
    10531.858900       0.739219
    10542.962600       0.744186
    10554.089700       0.749108
    10565.240400       0.753984
    10576.414600       0.758815
    10587.612500       0.763600
    10598.834100       0.768339
    10610.079600       0.773031
    10621.348900       0.777676
    10632.642200       0.782273
    10643.959600       0.786824
    10655.301000       0.791326
    10666.666700       0.795779
    10678.056600       0.800185
    10689.470900       0.804542
    10700.909600       0.808850
    10712.372800       0.813109
    10723.860600       0.817318
    10735.373100       0.821478
    10746.910300       0.825589
    10758.472300       0.829650
    10770.059200       0.833661
    10781.671200       0.837622
    10793.308100       0.841532
    10804.970300       0.845393
    10816.657700       0.849203
    10828.370300       0.852963
    10840.108400       0.856672
    10851.871900       0.860331
    10863.661100       0.863939
    10875.475800       0.867496
    10887.316300       0.871003
    10899.182600       0.874459
    10911.074700       0.877864
    10922.992900       0.881219
    10934.937100       0.884523
    10946.907500       0.887776
    10958.904100       0.890979
    10970.927000       0.894131
    10982.976400       0.897233
    10995.052200       0.900284
    11007.154700       0.903285
    11019.283700       0.906236
    11031.439600       0.909136
    11043.622300       0.911987
    11055.832000       0.914787
    11068.068600       0.917538
    11080.332400       0.920239
    11092.623400       0.922890
    11104.941700       0.925492
    11117.287400       0.928045
    11129.660500       0.930548
    11142.061300       0.933003
    11154.489700       0.935409
    11166.945800       0.937766
    11179.429800       0.940074
    11191.941800       0.942335
    11204.481800       0.944547
    11217.049900       0.946712
    11229.646300       0.948829
    11242.270900       0.950899
    11254.924000       0.952921
    11267.605600       0.954897
    11280.315800       0.956825
    11293.054800       0.958708
    11305.822500       0.960544
    11318.619100       0.962334
    11331.444800       0.964078
    11344.299500       0.965777
    11357.183400       0.967431
    11370.096600       0.969040
    11383.039300       0.970604
    11396.011400       0.972124
    11409.013100       0.973599
    11422.044500       0.975031
    11435.105800       0.976419
    11448.196900       0.977764
    11461.318100       0.979066
    11474.469300       0.980326
    11487.650800       0.981543
    11500.862600       0.982718
    11514.104800       0.983851
    11527.377500       0.984943
    11540.680900       0.985993
    11554.015000       0.987003
    11567.380000       0.987972
    11580.775900       0.988901
    11594.202900       0.989790
    11607.661100       0.990640
    11621.150500       0.991450
    11634.671300       0.992221
    11648.223600       0.992954
    11661.807600       0.993648
    11675.423200       0.994305
    11689.070700       0.994924
    11702.750100       0.995505
    11716.461600       0.996050
    11730.205300       0.996557
    11743.981200       0.997029
    11757.789500       0.997464
    11771.630400       0.997864
    11785.503800       0.998229
    11799.410000       0.998558
    11813.349100       0.998853
    11827.321100       0.999113
    11841.326200       0.999339
    11855.364600       0.999532
    11869.436200       0.999691
    11883.541300       0.999817
    11897.680000       0.999910
    11911.852300       0.999971
    11926.058400       1.000000
    11940.298500       0.999997
    11954.572600       0.999963
    11968.880900       0.999897
    11983.223500       0.999801
    11997.600500       0.999674
    12012.012000       0.999516
    12026.458200       0.999329
    12040.939200       0.999113
    12055.455100       0.998867
    12070.006000       0.998592
    12084.592100       0.998289
    12099.213600       0.997957
    12113.870400       0.997597
    12128.562800       0.997210
    12143.290800       0.996795
    12158.054700       0.996353
    12172.854500       0.995884
    12187.690400       0.995388
    12202.562500       0.994866
    12217.471000       0.994319
    12232.415900       0.993745
    12247.397400       0.993146
    12262.415700       0.992522
    12277.470800       0.991873
    12292.563000       0.991200
    12307.692300       0.990502
    12322.858900       0.989781
    12338.062900       0.989035
    12353.304500       0.988266
    12368.583800       0.987474
    12383.900900       0.986659
    12399.256000       0.985821
    12414.649300       0.984961
    12430.080800       0.984078
    12445.550700       0.983174
    12461.059200       0.982247
    12476.606400       0.981300
    12492.192400       0.980331
    12507.817400       0.979341
    12523.481500       0.978330
    12539.185000       0.977299
    12554.927800       0.976247
    12570.710200       0.975176
    12586.532400       0.974084
    12602.394500       0.972973
    12618.296500       0.971843
    12634.238800       0.970693
    12650.221400       0.969524
    12666.244500       0.968337
    12682.308200       0.967131
    12698.412700       0.965906
    12714.558200       0.964664
    12730.744700       0.963403
    12746.972600       0.962125
    12763.241900       0.960829
    12779.552700       0.959515
    12795.905300       0.958184
    12812.299800       0.956837
    12828.736400       0.955472
    12845.215200       0.954091
    12861.736300       0.952693
    12878.300100       0.951279
    12894.906500       0.949848
    12911.555800       0.948402
    12928.248200       0.946940
    12944.983800       0.945462
    12961.762800       0.943968
    12978.585300       0.942459
    12995.451600       0.940935
    13012.361700       0.939395
    13029.316000       0.937841
    13046.314400       0.936272
    13063.357300       0.934688
    13080.444700       0.933090
    13097.576900       0.931477
    13114.754100       0.929850
    13131.976400       0.928209
    13149.243900       0.926554
    13166.556900       0.924885
    13183.915600       0.923202
    13201.320100       0.921505
    13218.770700       0.919795
    13236.267400       0.918071
    13253.810500       0.916335
    13271.400100       0.914585
    13289.036500       0.912821
    13306.719900       0.911045
    13324.450400       0.909256
    13342.228200       0.907455
    13360.053400       0.905640
    13377.926400       0.903813
    13395.847300       0.901974
    13413.816200       0.900122
    13431.833400       0.898257
    13449.899100       0.896381
    13468.013500       0.894492
    13486.176700       0.892592
    13504.388900       0.890679
    13522.650400       0.888755
    13540.961400       0.886819
    13559.322000       0.884871
    13577.732500       0.882912
    13596.193100       0.880940
    13614.703900       0.878958
    13633.265200       0.876964
    13651.877100       0.874959
    13670.540000       0.872943
    13689.253900       0.870915
    13708.019200       0.868877
    13726.836000       0.866827
    13745.704500       0.864767
    13764.624900       0.862695
    13783.597500       0.860613
    13802.622500       0.858520
    13821.700100       0.856416
    13840.830400       0.854302
    13860.013900       0.852177
    13879.250500       0.850042
    13898.540700       0.847896
    13917.884500       0.845740
    13937.282200       0.843574
    13956.734100       0.841397
    13976.240400       0.839211
    13995.801300       0.837014
    14015.417000       0.834807
    14035.087700       0.832590
    14054.813800       0.830363
    14074.595400       0.828127
    14094.432700       0.825880
    14114.326000       0.823624
    14134.275600       0.821358
    14154.281700       0.819083
    14174.344400       0.816798
    14194.464200       0.814503
    14214.641100       0.812199
    14234.875400       0.809886
    14255.167500       0.807563
    14275.517500       0.805231
    14295.925700       0.802890
    14316.392300       0.800540
    14336.917600       0.798180
    14357.501800       0.795812
    14378.145200       0.793435
    14398.848100       0.791049
    14419.610700       0.788654
    14440.433200       0.786250
    14461.316000       0.783838
    14482.259200       0.781417
    14503.263200       0.778987
    14524.328200       0.776549
    14545.454500       0.774103
    14566.642400       0.771648
    14587.892000       0.769185
    14609.203800       0.766713
    14630.577900       0.764234
    14652.014700       0.761747
    14673.514300       0.759251
    14695.077100       0.756748
    14716.703500       0.754236
    14738.393500       0.751718
    14760.147600       0.749191
    14781.966000       0.746657
    14803.849000       0.744115
    14825.796900       0.741566
    14847.809900       0.739009
    14869.888500       0.736445
    14892.032800       0.733874
    14914.243100       0.731296
    14936.519800       0.728711
    14958.863100       0.726119
    14981.273400       0.723520
    15003.750900       0.720914
    15026.296000       0.718302
    15048.909000       0.715683
    15071.590100       0.713058
    15094.339600       0.710426
    15117.158000       0.707788
    15140.045400       0.705144
    15163.002300       0.702493
    15186.028900       0.699837
    15209.125500       0.697175
    15232.292500       0.694507
    15255.530100       0.691833
    15278.838800       0.689154
    15302.218800       0.686470
    15325.670500       0.683780
    15349.194200       0.681084
    15372.790200       0.678384
    15396.458800       0.675679
    15420.200500       0.672969
    15444.015400       0.670254
    15467.904100       0.667534
    15491.866800       0.664810
    15515.903800       0.662081
    15540.015500       0.659348
    15564.202300       0.656611
    15588.464500       0.653870
    15612.802500       0.651125
    15637.216600       0.648376
    15661.707100       0.645623
    15686.274500       0.642867
    15710.919100       0.640107
    15735.641200       0.637345
    15760.441300       0.634579
    15785.319700       0.631809
    15810.276700       0.629038
    15835.312700       0.626263
    15860.428200       0.623486
    15885.623500       0.620706
    15910.899000       0.617923
    15936.255000       0.615139
    15961.691900       0.612353
    15987.210200       0.609564
    16012.810200       0.606774
    16038.492400       0.603982
    16064.257000       0.601189
    16090.104600       0.598394
    16116.035500       0.595598
    16142.050000       0.592801
    16168.148700       0.590003
    16194.332000       0.587204
    16220.600200       0.584405
    16246.953700       0.581605
    16273.393000       0.578805
    16299.918500       0.576004
    16326.530600       0.573204
    16353.229800       0.570403
    16380.016400       0.567603
    16406.890900       0.564803
    16433.853700       0.562004
    16460.905300       0.559206
    16488.046200       0.556408
    16515.276600       0.553611
    16542.597200       0.550816
    16570.008300       0.548022
    16597.510400       0.545229
    16625.103900       0.542438
    16652.789300       0.539648
    16680.567100       0.536861
    16708.437800       0.534075
    16736.401700       0.531292
    16764.459300       0.528511
    16792.611300       0.525732
    16820.857900       0.522956
    16849.199700       0.520183
    16877.637100       0.517413
    16906.170800       0.514646
    16934.801000       0.511882
    16963.528400       0.509121
    16992.353400       0.506364
    17021.276600       0.503610
    17050.298400       0.500860
    17079.419300       0.498114
    17108.639900       0.495372
    17137.960600       0.492634
    17167.382000       0.489901
    17196.904600       0.487172
    17226.528900       0.484447
    17256.255400       0.481728
    17286.084700       0.479012
    17316.017300       0.476302
    17346.053800       0.473597
    17376.194600       0.470898
    17406.440400       0.468203
    17436.791600       0.465514
    17467.248900       0.462830
    17497.812800       0.460152
    17528.483800       0.457480
    17559.262500       0.454814
    17590.149500       0.452154
    17621.145400       0.449499
    17652.250700       0.446851
    17683.466000       0.444210
    17714.791900       0.441574
    17746.228900       0.438945
    17777.777800       0.436323
    17809.439000       0.433707
    17841.213200       0.431099
    17873.101000       0.428496
    17905.103000       0.425901
    17937.219700       0.423313
    17969.451900       0.420732
    18001.800200       0.418158
    18034.265100       0.415591
    18066.847300       0.413032
    18099.547500       0.410480
    18132.366300       0.407935
    18165.304300       0.405398
    18198.362100       0.402868
    18231.540600       0.400346
    18264.840200       0.397831
    18298.261700       0.395324
    18331.805700       0.392825
    18365.472900       0.390333
    18399.264000       0.387850
    18433.179700       0.385374
    18467.220700       0.382905
    18501.387600       0.380445
    18535.681200       0.377992
    18570.102100       0.375547
    18604.651200       0.373110
    18639.329000       0.370681
    18674.136300       0.368260
    18709.073900       0.365846
    18744.142500       0.363441
    18779.342700       0.361043
    18814.675400       0.358653
    18850.141400       0.356271
    18885.741300       0.353896
    18921.475900       0.351530
    18957.346000       0.349170
    18993.352300       0.346819
    19029.495700       0.344475
    19065.776900       0.342139
    19102.196800       0.339810
    19138.756000       0.337488
    19175.455400       0.335175
    19212.295900       0.332868
    19249.278200       0.330568
    19286.403100       0.328276
    19323.671500       0.325991
    19361.084200       0.323713
    19398.642100       0.321442
    19436.346000       0.319177
    19474.196700       0.316919
    19512.195100       0.314668
    19550.342100       0.312424
    19588.638600       0.310185
    19627.085400       0.307954
    19665.683400       0.305728
    19704.433500       0.303508
    19743.336600       0.301294
    19782.393700       0.299086
    19821.605600       0.296884
    19860.973200       0.294687
    19900.497500       0.292496
    19940.179500       0.290310
    19980.020000       0.288129
    20020.020000       0.285952
    20060.180500       0.283781
    20100.502500       0.281614
    20140.986900       0.279451
    20181.634700       0.277293
    20222.446900       0.275139
    20263.424500       0.272988
    20304.568500       0.270842
    20345.880000       0.268699
    20387.359800       0.266559
    20429.009200       0.264422
    20470.829100       0.262289
    20512.820500       0.260158
    20554.984600       0.258029
    20597.322300       0.255903
    20639.834900       0.253779
    20682.523300       0.251657
    20725.388600       0.249537
    20768.432000       0.247418
    20811.654500       0.245300
    20855.057400       0.243184
    20898.641600       0.241068
    20942.408400       0.238953
    20986.358900       0.236838
    21030.494200       0.234723
    21074.815600       0.232608
    21119.324200       0.230493
    21164.021200       0.228378
    21208.907700       0.226261
    21253.985100       0.224144
    21299.254500       0.222025
    21344.717200       0.219905
    21390.374300       0.217783
    21436.227200       0.215659
    21482.277100       0.213533
    21528.525300       0.211405
    21574.973000       0.209274
    21621.621600       0.207140
    21668.472400       0.205003
    21715.526600       0.202862
    21762.785600       0.200718
    21810.250800       0.198571
    21857.923500       0.196419
    21905.805000       0.194263
    21953.896800       0.192102
    22002.200200       0.189937
    22050.716600       0.187767
    22099.447500       0.185591
    22148.394200       0.183411
    22197.558300       0.181225
    22246.941000       0.179033
    22296.544000       0.176835
    22346.368700       0.174631
    22396.416600       0.172421
    22446.689100       0.170204
    22497.187900       0.167981
    22547.914300       0.165751
    22598.870100       0.163514
    22650.056600       0.161269
    22701.475600       0.159018
    22753.128600       0.156759
    22805.017100       0.154492
    22857.142900       0.152218
    22909.507400       0.149936
    22962.112500       0.147646
    23014.959700       0.145348
    23068.050700       0.143042
    23121.387300       0.140727
    23174.971000       0.138405
    23228.803700       0.136074
    23282.887100       0.133735
    23337.222900       0.131387
    23391.812900       0.129031
    23446.658900       0.126666
    23501.762600       0.124293
    23557.126000       0.121912
    23612.750900       0.119522
    23668.639100       0.117124
    23724.792400       0.114718
    23781.212800       0.112303
    23837.902300       0.109880
    23894.862600       0.107449
    23952.095800       0.105010
    24009.603800       0.102564
    24067.388700       0.100110
    24125.452400       0.097648
    24183.796900       0.095179
    24242.424200       0.092703
    24301.336600       0.090221
    24360.535900       0.087731
    24420.024400       0.085236
    24479.804200       0.082734
    24539.877300       0.080227
    24600.246000       0.077714
    24660.912500       0.075196
    24721.878900       0.072674
    24783.147500       0.070148
    24844.720500       0.067618
    24906.600200       0.065084
    24968.789000       0.062548
    25031.289100       0.060009
    25094.102900       0.057469
    25157.232700       0.054927
    25220.681000       0.052385
    25284.450100       0.049843
    25348.542500       0.047301
    25412.960600       0.044761
    25477.707000       0.042223
