9,   9, MVIRI VIS channel from srf_MET2_1983078_1983079_1801-Release_S10EL_10.dat
Number of data points:
730
Wavenumber (cm-1)   Filter response
     8916.629500       0.000000
     8924.587200       0.000000
     8932.559200       0.000002
     8940.545400       0.000011
     8948.545900       0.000032
     8956.560700       0.000068
     8964.589900       0.000125
     8972.633500       0.000205
     8980.691500       0.000314
     8988.764000       0.000455
     8996.851100       0.000632
     9004.952700       0.000847
     9013.068900       0.001105
     9021.199800       0.001408
     9029.345400       0.001760
     9037.505600       0.002163
     9045.680700       0.002621
     9053.870500       0.003135
     9062.075200       0.003708
     9070.294800       0.004343
     9078.529300       0.005042
     9086.778700       0.005806
     9095.043200       0.006638
     9103.322700       0.007540
     9111.617300       0.008512
     9119.927000       0.009558
     9128.251900       0.010679
     9136.592100       0.011875
     9144.947400       0.013148
     9153.318100       0.014500
     9161.704100       0.015931
     9170.105500       0.017442
     9178.522300       0.019035
     9186.954500       0.020709
     9195.402300       0.022467
     9203.865600       0.024308
     9212.344500       0.026234
     9220.839100       0.028243
     9229.349300       0.030338
     9237.875300       0.032518
     9246.417000       0.034783
     9254.974500       0.037134
     9263.547900       0.039571
     9272.137200       0.042093
     9280.742500       0.044702
     9289.363700       0.047395
     9298.000900       0.050175
     9306.654300       0.053039
     9315.323700       0.055988
     9324.009300       0.059023
     9332.711200       0.062141
     9341.429200       0.065343
     9350.163600       0.068629
     9358.914400       0.071996
     9367.681500       0.075447
     9376.465100       0.078979
     9385.265100       0.082591
     9394.081700       0.086284
     9402.914900       0.090055
     9411.764700       0.093906
     9420.631200       0.097835
     9429.514400       0.101839
     9438.414300       0.105920
     9447.331100       0.110076
     9456.264800       0.114305
     9465.215300       0.118608
     9474.182900       0.122982
     9483.167400       0.127428
     9492.169000       0.131942
     9501.187600       0.136526
     9510.223500       0.141178
     9519.276500       0.145895
     9528.346800       0.150677
     9537.434400       0.155524
     9546.539400       0.160432
     9555.661700       0.165403
     9564.801500       0.170433
     9573.958800       0.175523
     9583.133700       0.180670
     9592.326100       0.185872
     9601.536200       0.191131
     9610.764100       0.196442
     9620.009600       0.201806
     9629.273000       0.207221
     9638.554200       0.212685
     9647.853400       0.218198
     9657.170400       0.223757
     9666.505600       0.229362
     9675.858700       0.235011
     9685.230000       0.240701
     9694.619500       0.246434
     9704.027200       0.252206
     9713.453100       0.258017
     9722.897400       0.263865
     9732.360100       0.269748
     9741.841200       0.275665
     9751.340800       0.281615
     9760.859000       0.287597
     9770.395700       0.293608
     9779.951100       0.299648
     9789.525200       0.305715
     9799.118100       0.311809
     9808.729800       0.317925
     9818.360300       0.324066
     9828.009800       0.330227
     9837.678300       0.336409
     9847.365800       0.342611
     9857.072400       0.348828
     9866.798200       0.355063
     9876.543200       0.361312
     9886.307500       0.367575
     9896.091000       0.373850
     9905.894000       0.380135
     9915.716400       0.386430
     9925.558300       0.392733
     9935.419800       0.399043
     9945.300800       0.405359
     9955.201600       0.411679
     9965.122100       0.418002
     9975.062300       0.424326
     9985.022500       0.430652
     9995.002500       0.436977
    10005.002500       0.443299
    10015.022500       0.449619
    10025.062700       0.455935
    10035.122900       0.462245
    10045.203400       0.468548
    10055.304200       0.474844
    10065.425300       0.481131
    10075.566800       0.487408
    10085.728700       0.493673
    10095.911200       0.499927
    10106.114200       0.506168
    10116.337900       0.512394
    10126.582300       0.518604
    10136.847400       0.524799
    10147.133400       0.530976
    10157.440300       0.537134
    10167.768200       0.543273
    10178.117000       0.549392
    10188.487000       0.555490
    10198.878100       0.561565
    10209.290500       0.567618
    10219.724100       0.573646
    10230.179000       0.579649
    10240.655400       0.585626
    10251.153300       0.591577
    10261.672700       0.597500
    10272.213700       0.603395
    10282.776300       0.609261
    10293.360800       0.615097
    10303.967000       0.620902
    10314.595200       0.626676
    10325.245200       0.632417
    10335.917300       0.638126
    10346.611500       0.643801
    10357.327800       0.649441
    10368.066400       0.655047
    10378.827200       0.660617
    10389.610400       0.666151
    10400.416000       0.671648
    10411.244100       0.677107
    10422.094800       0.682528
    10432.968200       0.687910
    10443.864200       0.693254
    10454.783100       0.698557
    10465.724800       0.703820
    10476.689400       0.709042
    10487.677000       0.714223
    10498.687700       0.719362
    10509.721500       0.724458
    10520.778500       0.729512
    10531.858900       0.734523
    10542.962600       0.739490
    10554.089700       0.744413
    10565.240400       0.749292
    10576.414600       0.754125
    10587.612500       0.758914
    10598.834100       0.763657
    10610.079600       0.768354
    10621.348900       0.773005
    10632.642200       0.777610
    10643.959600       0.782168
    10655.301000       0.786679
    10666.666700       0.791142
    10678.056600       0.795558
    10689.470900       0.799926
    10700.909600       0.804246
    10712.372800       0.808518
    10723.860600       0.812742
    10735.373100       0.816917
    10746.910300       0.821043
    10758.472300       0.825120
    10770.059200       0.829148
    10781.671200       0.833127
    10793.308100       0.837057
    10804.970300       0.840937
    10816.657700       0.844768
    10828.370300       0.848549
    10840.108400       0.852280
    10851.871900       0.855962
    10863.661100       0.859594
    10875.475800       0.863175
    10887.316300       0.866708
    10899.182600       0.870190
    10911.074700       0.873622
    10922.992900       0.877005
    10934.937100       0.880337
    10946.907500       0.883620
    10958.904100       0.886853
    10970.927000       0.890036
    10982.976400       0.893169
    10995.052200       0.896253
    11007.154700       0.899287
    11019.283700       0.902272
    11031.439600       0.905207
    11043.622300       0.908093
    11055.832000       0.910930
    11068.068600       0.913717
    11080.332400       0.916456
    11092.623400       0.919146
    11104.941700       0.921787
    11117.287400       0.924379
    11129.660500       0.926923
    11142.061300       0.929419
    11154.489700       0.931867
    11166.945800       0.934267
    11179.429800       0.936619
    11191.941800       0.938923
    11204.481800       0.941180
    11217.049900       0.943390
    11229.646300       0.945553
    11242.270900       0.947670
    11254.924000       0.949739
    11267.605600       0.951763
    11280.315800       0.953740
    11293.054800       0.955672
    11305.822500       0.957558
    11318.619100       0.959399
    11331.444800       0.961194
    11344.299500       0.962945
    11357.183400       0.964651
    11370.096600       0.966312
    11383.039300       0.967930
    11396.011400       0.969504
    11409.013100       0.971034
    11422.044500       0.972521
    11435.105800       0.973965
    11448.196900       0.975367
    11461.318100       0.976726
    11474.469300       0.978042
    11487.650800       0.979317
    11500.862600       0.980551
    11514.104800       0.981743
    11527.377500       0.982895
    11540.680900       0.984005
    11554.015000       0.985076
    11567.380000       0.986106
    11580.775900       0.987097
    11594.202900       0.988048
    11607.661100       0.988960
    11621.150500       0.989834
    11634.671300       0.990669
    11648.223600       0.991465
    11661.807600       0.992224
    11675.423200       0.992946
    11689.070700       0.993630
    11702.750100       0.994278
    11716.461600       0.994888
    11730.205300       0.995463
    11743.981200       0.996002
    11757.789500       0.996505
    11771.630400       0.996973
    11785.503800       0.997406
    11799.410000       0.997804
    11813.349100       0.998168
    11827.321100       0.998498
    11841.326200       0.998794
    11855.364600       0.999058
    11869.436200       0.999288
    11883.541300       0.999485
    11897.680000       0.999650
    11911.852300       0.999783
    11926.058400       0.999884
    11940.298500       0.999954
    11954.572600       0.999992
    11968.880900       1.000000
    11983.223500       0.999977
    11997.600500       0.999924
    12012.012000       0.999842
    12026.458200       0.999729
    12040.939200       0.999588
    12055.455100       0.999418
    12070.006000       0.999218
    12084.592100       0.998991
    12099.213600       0.998735
    12113.870400       0.998452
    12128.562800       0.998142
    12143.290800       0.997804
    12158.054700       0.997439
    12172.854500       0.997048
    12187.690400       0.996630
    12202.562500       0.996187
    12217.471000       0.995718
    12232.415900       0.995223
    12247.397400       0.994703
    12262.415700       0.994158
    12277.470800       0.993589
    12292.563000       0.992996
    12307.692300       0.992378
    12322.858900       0.991736
    12338.062900       0.991071
    12353.304500       0.990383
    12368.583800       0.989672
    12383.900900       0.988938
    12399.256000       0.988181
    12414.649300       0.987402
    12430.080800       0.986602
    12445.550700       0.985779
    12461.059200       0.984935
    12476.606400       0.984070
    12492.192400       0.983183
    12507.817400       0.982276
    12523.481500       0.981348
    12539.185000       0.980400
    12554.927800       0.979432
    12570.710200       0.978443
    12586.532400       0.977436
    12602.394500       0.976408
    12618.296500       0.975362
    12634.238800       0.974296
    12650.221400       0.973211
    12666.244500       0.972108
    12682.308200       0.970986
    12698.412700       0.969847
    12714.558200       0.968689
    12730.744700       0.967513
    12746.972600       0.966319
    12763.241900       0.965108
    12779.552700       0.963880
    12795.905300       0.962635
    12812.299800       0.961372
    12828.736400       0.960093
    12845.215200       0.958798
    12861.736300       0.957486
    12878.300100       0.956157
    12894.906500       0.954813
    12911.555800       0.953452
    12928.248200       0.952076
    12944.983800       0.950684
    12961.762800       0.949277
    12978.585300       0.947854
    12995.451600       0.946416
    13012.361700       0.944963
    13029.316000       0.943496
    13046.314400       0.942013
    13063.357300       0.940516
    13080.444700       0.939004
    13097.576900       0.937478
    13114.754100       0.935938
    13131.976400       0.934383
    13149.243900       0.932815
    13166.556900       0.931233
    13183.915600       0.929637
    13201.320100       0.928027
    13218.770700       0.926404
    13236.267400       0.924767
    13253.810500       0.923117
    13271.400100       0.921454
    13289.036500       0.919778
    13306.719900       0.918089
    13324.450400       0.916387
    13342.228200       0.914672
    13360.053400       0.912945
    13377.926400       0.911204
    13395.847300       0.909452
    13413.816200       0.907687
    13431.833400       0.905909
    13449.899100       0.904120
    13468.013500       0.902318
    13486.176700       0.900504
    13504.388900       0.898678
    13522.650400       0.896841
    13540.961400       0.894991
    13559.322000       0.893130
    13577.732500       0.891257
    13596.193100       0.889372
    13614.703900       0.887476
    13633.265200       0.885569
    13651.877100       0.883650
    13670.540000       0.881720
    13689.253900       0.879778
    13708.019200       0.877825
    13726.836000       0.875862
    13745.704500       0.873887
    13764.624900       0.871901
    13783.597500       0.869904
    13802.622500       0.867897
    13821.700100       0.865879
    13840.830400       0.863849
    13860.013900       0.861810
    13879.250500       0.859759
    13898.540700       0.857698
    13917.884500       0.855627
    13937.282200       0.853545
    13956.734100       0.851453
    13976.240400       0.849350
    13995.801300       0.847238
    14015.417000       0.845115
    14035.087700       0.842981
    14054.813800       0.840838
    14074.595400       0.838685
    14094.432700       0.836522
    14114.326000       0.834349
    14134.275600       0.832165
    14154.281700       0.829972
    14174.344400       0.827770
    14194.464200       0.825558
    14214.641100       0.823335
    14234.875400       0.821104
    14255.167500       0.818863
    14275.517500       0.816612
    14295.925700       0.814352
    14316.392300       0.812083
    14336.917600       0.809804
    14357.501800       0.807516
    14378.145200       0.805219
    14398.848100       0.802912
    14419.610700       0.800597
    14440.433200       0.798272
    14461.316000       0.795939
    14482.259200       0.793597
    14503.263200       0.791246
    14524.328200       0.788886
    14545.454500       0.786517
    14566.642400       0.784140
    14587.892000       0.781754
    14609.203800       0.779360
    14630.577900       0.776957
    14652.014700       0.774546
    14673.514300       0.772126
    14695.077100       0.769699
    14716.703500       0.767263
    14738.393500       0.764819
    14760.147600       0.762367
    14781.966000       0.759907
    14803.849000       0.757439
    14825.796900       0.754963
    14847.809900       0.752480
    14869.888500       0.749989
    14892.032800       0.747490
    14914.243100       0.744984
    14936.519800       0.742470
    14958.863100       0.739950
    14981.273400       0.737422
    15003.750900       0.734886
    15026.296000       0.732344
    15048.909000       0.729795
    15071.590100       0.727239
    15094.339600       0.724676
    15117.158000       0.722106
    15140.045400       0.719530
    15163.002300       0.716947
    15186.028900       0.714358
    15209.125500       0.711762
    15232.292500       0.709160
    15255.530100       0.706552
    15278.838800       0.703938
    15302.218800       0.701319
    15325.670500       0.698693
    15349.194200       0.696061
    15372.790200       0.693424
    15396.458800       0.690782
    15420.200500       0.688134
    15444.015400       0.685481
    15467.904100       0.682823
    15491.866800       0.680159
    15515.903800       0.677491
    15540.015500       0.674818
    15564.202300       0.672140
    15588.464500       0.669458
    15612.802500       0.666771
    15637.216600       0.664080
    15661.707100       0.661384
    15686.274500       0.658685
    15710.919100       0.655982
    15735.641200       0.653274
    15760.441300       0.650563
    15785.319700       0.647849
    15810.276700       0.645131
    15835.312700       0.642410
    15860.428200       0.639685
    15885.623500       0.636958
    15910.899000       0.634227
    15936.255000       0.631494
    15961.691900       0.628758
    15987.210200       0.626020
    16012.810200       0.623279
    16038.492400       0.620536
    16064.257000       0.617791
    16090.104600       0.615044
    16116.035500       0.612295
    16142.050000       0.609545
    16168.148700       0.606793
    16194.332000       0.604039
    16220.600200       0.601285
    16246.953700       0.598529
    16273.393000       0.595772
    16299.918500       0.593015
    16326.530600       0.590257
    16353.229800       0.587499
    16380.016400       0.584740
    16406.890900       0.581981
    16433.853700       0.579221
    16460.905300       0.576462
    16488.046200       0.573704
    16515.276600       0.570945
    16542.597200       0.568187
    16570.008300       0.565430
    16597.510400       0.562674
    16625.103900       0.559918
    16652.789300       0.557164
    16680.567100       0.554411
    16708.437800       0.551659
    16736.401700       0.548909
    16764.459300       0.546161
    16792.611300       0.543414
    16820.857900       0.540670
    16849.199700       0.537928
    16877.637100       0.535187
    16906.170800       0.532450
    16934.801000       0.529715
    16963.528400       0.526983
    16992.353400       0.524253
    17021.276600       0.521527
    17050.298400       0.518804
    17079.419300       0.516084
    17108.639900       0.513367
    17137.960600       0.510654
    17167.382000       0.507945
    17196.904600       0.505239
    17226.528900       0.502538
    17256.255400       0.499841
    17286.084700       0.497147
    17316.017300       0.494458
    17346.053800       0.491774
    17376.194600       0.489094
    17406.440400       0.486419
    17436.791600       0.483749
    17467.248900       0.481083
    17497.812800       0.478423
    17528.483800       0.475768
    17559.262500       0.473118
    17590.149500       0.470474
    17621.145400       0.467835
    17652.250700       0.465202
    17683.466000       0.462574
    17714.791900       0.459952
    17746.228900       0.457336
    17777.777800       0.454726
    17809.439000       0.452123
    17841.213200       0.449525
    17873.101000       0.446934
    17905.103000       0.444349
    17937.219700       0.441770
    17969.451900       0.439198
    18001.800200       0.436632
    18034.265100       0.434074
    18066.847300       0.431521
    18099.547500       0.428976
    18132.366300       0.426438
    18165.304300       0.423906
    18198.362100       0.421381
    18231.540600       0.418863
    18264.840200       0.416353
    18298.261700       0.413849
    18331.805700       0.411353
    18365.472900       0.408863
    18399.264000       0.406381
    18433.179700       0.403906
    18467.220700       0.401438
    18501.387600       0.398978
    18535.681200       0.396525
    18570.102100       0.394079
    18604.651200       0.391640
    18639.329000       0.389209
    18674.136300       0.386785
    18709.073900       0.384368
    18744.142500       0.381959
    18779.342700       0.379556
    18814.675400       0.377161
    18850.141400       0.374773
    18885.741300       0.372393
    18921.475900       0.370019
    18957.346000       0.367653
    18993.352300       0.365293
    19029.495700       0.362941
    19065.776900       0.360596
    19102.196800       0.358257
    19138.756000       0.355926
    19175.455400       0.353601
    19212.295900       0.351283
    19249.278200       0.348971
    19286.403100       0.346666
    19323.671500       0.344368
    19361.084200       0.342075
    19398.642100       0.339790
    19436.346000       0.337510
    19474.196700       0.335236
    19512.195100       0.332969
    19550.342100       0.330707
    19588.638600       0.328451
    19627.085400       0.326200
    19665.683400       0.323955
    19704.433500       0.321716
    19743.336600       0.319481
    19782.393700       0.317252
    19821.605600       0.315027
    19860.973200       0.312808
    19900.497500       0.310593
    19940.179500       0.308382
    19980.020000       0.306176
    20020.020000       0.303973
    20060.180500       0.301775
    20100.502500       0.299580
    20140.986900       0.297389
    20181.634700       0.295202
    20222.446900       0.293017
    20263.424500       0.290836
    20304.568500       0.288657
    20345.880000       0.286481
    20387.359800       0.284307
    20429.009200       0.282136
    20470.829100       0.279966
    20512.820500       0.277798
    20554.984600       0.275632
    20597.322300       0.273467
    20639.834900       0.271303
    20682.523300       0.269140
    20725.388600       0.266977
    20768.432000       0.264815
    20811.654500       0.262652
    20855.057400       0.260490
    20898.641600       0.258327
    20942.408400       0.256164
    20986.358900       0.254000
    21030.494200       0.251834
    21074.815600       0.249667
    21119.324200       0.247499
    21164.021200       0.245328
    21208.907700       0.243155
    21253.985100       0.240980
    21299.254500       0.238802
    21344.717200       0.236621
    21390.374300       0.234437
    21436.227200       0.232250
    21482.277100       0.230058
    21528.525300       0.227863
    21574.973000       0.225663
    21621.621600       0.223458
    21668.472400       0.221249
    21715.526600       0.219035
    21762.785600       0.216815
    21810.250800       0.214590
    21857.923500       0.212358
    21905.805000       0.210121
    21953.896800       0.207877
    22002.200200       0.205626
    22050.716600       0.203368
    22099.447500       0.201104
    22148.394200       0.198831
    22197.558300       0.196552
    22246.941000       0.194264
    22296.544000       0.191968
    22346.368700       0.189663
    22396.416600       0.187350
    22446.689100       0.185029
    22497.187900       0.182698
    22547.914300       0.180358
    22598.870100       0.178008
    22650.056600       0.175649
    22701.475600       0.173280
    22753.128600       0.170900
    22805.017100       0.168511
    22857.142900       0.166111
    22909.507400       0.163701
    22962.112500       0.161280
    23014.959700       0.158849
    23068.050700       0.156406
    23121.387300       0.153952
    23174.971000       0.151487
    23228.803700       0.149011
    23282.887100       0.146524
    23337.222900       0.144025
    23391.812900       0.141514
    23446.658900       0.138992
    23501.762600       0.136459
    23557.126000       0.133914
    23612.750900       0.131357
    23668.639100       0.128789
    23724.792400       0.126209
    23781.212800       0.123618
    23837.902300       0.121015
    23894.862600       0.118401
    23952.095800       0.115776
    24009.603800       0.113139
    24067.388700       0.110492
    24125.452400       0.107834
    24183.796900       0.105165
    24242.424200       0.102485
    24301.336600       0.099795
    24360.535900       0.097096
    24420.024400       0.094386
    24479.804200       0.091667
    24539.877300       0.088939
    24600.246000       0.086203
    24660.912500       0.083457
    24721.878900       0.080704
    24783.147500       0.077943
    24844.720500       0.075175
    24906.600200       0.072400
    24968.789000       0.069619
    25031.289100       0.066833
    25094.102900       0.064041
    25157.232700       0.061245
    25220.681000       0.058445
    25284.450100       0.055642
    25348.542500       0.052836
    25412.960600       0.050028
    25477.707000       0.047220
