92,   92, MVIRI VIS channel from srf_MET7_2009033_2009034_1801-Release_S10EE_10.dat
Number of data points:
793
Wavenumber (cm-1)   Filter response
     8442.380800       0.000000
     8449.514200       0.000000
     8456.659600       0.000004
     8463.817200       0.000056
     8470.986900       0.000165
     8478.168700       0.000331
     8485.362700       0.000550
     8492.569000       0.000823
     8499.787500       0.001146
     8507.018300       0.001520
     8514.261400       0.001941
     8521.516800       0.002410
     8528.784600       0.002924
     8536.064900       0.003482
     8543.357500       0.004083
     8550.662700       0.004727
     8557.980300       0.005411
     8565.310500       0.006134
     8572.653200       0.006896
     8580.008600       0.007696
     8587.376600       0.008532
     8594.757200       0.009404
     8602.150500       0.010311
     8609.556600       0.011251
     8616.975400       0.012224
     8624.407100       0.013230
     8631.851500       0.014267
     8639.308900       0.015335
     8646.779100       0.016433
     8654.262200       0.017561
     8661.758300       0.018717
     8669.267400       0.019901
     8676.789600       0.021113
     8684.324800       0.022353
     8691.873100       0.023618
     8699.434500       0.024910
     8707.009100       0.026228
     8714.596900       0.027570
     8722.198000       0.028938
     8729.812300       0.030330
     8737.439900       0.031745
     8745.080900       0.033185
     8752.735200       0.034648
     8760.403000       0.036134
     8768.084200       0.037643
     8775.778900       0.039175
     8783.487000       0.040729
     8791.208800       0.042305
     8798.944100       0.043903
     8806.693100       0.045523
     8814.455700       0.047164
     8822.232000       0.048826
     8830.022100       0.050510
     8837.825900       0.052215
     8845.643500       0.053942
     8853.475000       0.055689
     8861.320300       0.057457
     8869.179600       0.059246
     8877.052800       0.061055
     8884.940000       0.062886
     8892.841300       0.064737
     8900.756600       0.066608
     8908.686000       0.068501
     8916.629500       0.070413
     8924.587200       0.072347
     8932.559200       0.074301
     8940.545400       0.076276
     8948.545900       0.078271
     8956.560700       0.080287
     8964.589900       0.082324
     8972.633500       0.084382
     8980.691500       0.086460
     8988.764000       0.088560
     8996.851100       0.090680
     9004.952700       0.092821
     9013.068900       0.094984
     9021.199800       0.097167
     9029.345400       0.099372
     9037.505600       0.101598
     9045.680700       0.103846
     9053.870500       0.106115
     9062.075200       0.108405
     9070.294800       0.110718
     9078.529300       0.113052
     9086.778700       0.115407
     9095.043200       0.117785
     9103.322700       0.120185
     9111.617300       0.122607
     9119.927000       0.125050
     9128.251900       0.127517
     9136.592100       0.130006
     9144.947400       0.132516
     9153.318100       0.135050
     9161.704100       0.137606
     9170.105500       0.140185
     9178.522300       0.142787
     9186.954500       0.145411
     9195.402300       0.148059
     9203.865600       0.150729
     9212.344500       0.153423
     9220.839100       0.156140
     9229.349300       0.158880
     9237.875300       0.161643
     9246.417000       0.164429
     9254.974500       0.167239
     9263.547900       0.170073
     9272.137200       0.172930
     9280.742500       0.175810
     9289.363700       0.178714
     9298.000900       0.181642
     9306.654300       0.184593
     9315.323700       0.187568
     9324.009300       0.190567
     9332.711200       0.193589
     9341.429200       0.196635
     9350.163600       0.199705
     9358.914400       0.202798
     9367.681500       0.205915
     9376.465100       0.209056
     9385.265100       0.212221
     9394.081700       0.215409
     9402.914900       0.218621
     9411.764700       0.221856
     9420.631200       0.225115
     9429.514400       0.228398
     9438.414300       0.231704
     9447.331100       0.235033
     9456.264800       0.238386
     9465.215300       0.241762
     9474.182900       0.245161
     9483.167400       0.248583
     9492.169000       0.252028
     9501.187600       0.255496
     9510.223500       0.258987
     9519.276500       0.262501
     9528.346800       0.266037
     9537.434400       0.269596
     9546.539400       0.273177
     9555.661700       0.276781
     9564.801500       0.280406
     9573.958800       0.284053
     9583.133700       0.287722
     9592.326100       0.291413
     9601.536200       0.295125
     9610.764100       0.298858
     9620.009600       0.302613
     9629.273000       0.306389
     9638.554200       0.310184
     9647.853400       0.314001
     9657.170400       0.317838
     9666.505600       0.321695
     9675.858700       0.325572
     9685.230000       0.329469
     9694.619500       0.333385
     9704.027200       0.337320
     9713.453100       0.341274
     9722.897400       0.345247
     9732.360100       0.349238
     9741.841200       0.353248
     9751.340800       0.357275
     9760.859000       0.361320
     9770.395700       0.365383
     9779.951100       0.369462
     9789.525200       0.373559
     9799.118100       0.377672
     9808.729800       0.381801
     9818.360300       0.385946
     9828.009800       0.390106
     9837.678300       0.394282
     9847.365800       0.398473
     9857.072400       0.402678
     9866.798200       0.406898
     9876.543200       0.411131
     9886.307500       0.415379
     9896.091000       0.419639
     9905.894000       0.423912
     9915.716400       0.428199
     9925.558300       0.432496
     9935.419800       0.436806
     9945.300800       0.441128
     9955.201600       0.445460
     9965.122100       0.449803
     9975.062300       0.454156
     9985.022500       0.458520
     9995.002500       0.462893
    10005.002500       0.467274
    10015.022500       0.471665
    10025.062700       0.476064
    10035.122900       0.480471
    10045.203400       0.484885
    10055.304200       0.489306
    10065.425300       0.493734
    10075.566800       0.498168
    10085.728700       0.502608
    10095.911200       0.507054
    10106.114200       0.511504
    10116.337900       0.515959
    10126.582300       0.520418
    10136.847400       0.524880
    10147.133400       0.529346
    10157.440300       0.533815
    10167.768200       0.538285
    10178.117000       0.542758
    10188.487000       0.547232
    10198.878100       0.551707
    10209.290500       0.556182
    10219.724100       0.560658
    10230.179000       0.565132
    10240.655400       0.569607
    10251.153300       0.574079
    10261.672700       0.578550
    10272.213700       0.583019
    10282.776300       0.587484
    10293.360800       0.591947
    10303.967000       0.596406
    10314.595200       0.600860
    10325.245200       0.605310
    10335.917300       0.609756
    10346.611500       0.614195
    10357.327800       0.618628
    10368.066400       0.623055
    10378.827200       0.627475
    10389.610400       0.631887
    10400.416000       0.636291
    10411.244100       0.640687
    10422.094800       0.645074
    10432.968200       0.649452
    10443.864200       0.653820
    10454.783100       0.658177
    10465.724800       0.662524
    10476.689400       0.666860
    10487.677000       0.671184
    10498.687700       0.675495
    10509.721500       0.679794
    10520.778500       0.684080
    10531.858900       0.688352
    10542.962600       0.692611
    10554.089700       0.696854
    10565.240400       0.701083
    10576.414600       0.705296
    10587.612500       0.709494
    10598.834100       0.713675
    10610.079600       0.717840
    10621.348900       0.721987
    10632.642200       0.726116
    10643.959600       0.730228
    10655.301000       0.734321
    10666.666700       0.738394
    10678.056600       0.742449
    10689.470900       0.746483
    10700.909600       0.750498
    10712.372800       0.754491
    10723.860600       0.758464
    10735.373100       0.762414
    10746.910300       0.766343
    10758.472300       0.770250
    10770.059200       0.774133
    10781.671200       0.777994
    10793.308100       0.781830
    10804.970300       0.785643
    10816.657700       0.789431
    10828.370300       0.793195
    10840.108400       0.796933
    10851.871900       0.800645
    10863.661100       0.804332
    10875.475800       0.807992
    10887.316300       0.811626
    10899.182600       0.815232
    10911.074700       0.818811
    10922.992900       0.822362
    10934.937100       0.825885
    10946.907500       0.829379
    10958.904100       0.832844
    10970.927000       0.836281
    10982.976400       0.839687
    10995.052200       0.843064
    11007.154700       0.846410
    11019.283700       0.849726
    11031.439600       0.853011
    11043.622300       0.856265
    11055.832000       0.859488
    11068.068600       0.862678
    11080.332400       0.865837
    11092.623400       0.868963
    11104.941700       0.872056
    11117.287400       0.875117
    11129.660500       0.878144
    11142.061300       0.881138
    11154.489700       0.884098
    11166.945800       0.887024
    11179.429800       0.889916
    11191.941800       0.892774
    11204.481800       0.895596
    11217.049900       0.898384
    11229.646300       0.901136
    11242.270900       0.903853
    11254.924000       0.906535
    11267.605600       0.909181
    11280.315800       0.911790
    11293.054800       0.914364
    11305.822500       0.916900
    11318.619100       0.919401
    11331.444800       0.921864
    11344.299500       0.924291
    11357.183400       0.926680
    11370.096600       0.929033
    11383.039300       0.931347
    11396.011400       0.933625
    11409.013100       0.935864
    11422.044500       0.938066
    11435.105800       0.940229
    11448.196900       0.942355
    11461.318100       0.944442
    11474.469300       0.946491
    11487.650800       0.948502
    11500.862600       0.950474
    11514.104800       0.952408
    11527.377500       0.954303
    11540.680900       0.956159
    11554.015000       0.957977
    11567.380000       0.959755
    11580.775900       0.961495
    11594.202900       0.963196
    11607.661100       0.964857
    11621.150500       0.966480
    11634.671300       0.968064
    11648.223600       0.969608
    11661.807600       0.971114
    11675.423200       0.972580
    11689.070700       0.974008
    11702.750100       0.975396
    11716.461600       0.976746
    11730.205300       0.978056
    11743.981200       0.979327
    11757.789500       0.980559
    11771.630400       0.981753
    11785.503800       0.982907
    11799.410000       0.984023
    11813.349100       0.985100
    11827.321100       0.986138
    11841.326200       0.987138
    11855.364600       0.988099
    11869.436200       0.989022
    11883.541300       0.989907
    11897.680000       0.990753
    11911.852300       0.991561
    11926.058400       0.992331
    11940.298500       0.993063
    11954.572600       0.993758
    11968.880900       0.994415
    11983.223500       0.995034
    11997.600500       0.995616
    12012.012000       0.996161
    12026.458200       0.996669
    12040.939200       0.997140
    12055.455100       0.997575
    12070.006000       0.997973
    12084.592100       0.998335
    12099.213600       0.998660
    12113.870400       0.998950
    12128.562800       0.999204
    12143.290800       0.999422
    12158.054700       0.999605
    12172.854500       0.999753
    12187.690400       0.999867
    12202.562500       0.999945
    12217.471000       0.999990
    12232.415900       1.000000
    12247.397400       0.999976
    12262.415700       0.999919
    12277.470800       0.999829
    12292.563000       0.999705
    12307.692300       0.999549
    12322.858900       0.999360
    12338.062900       0.999138
    12353.304500       0.998885
    12368.583800       0.998600
    12383.900900       0.998284
    12399.256000       0.997937
    12414.649300       0.997559
    12430.080800       0.997151
    12445.550700       0.996712
    12461.059200       0.996244
    12476.606400       0.995746
    12492.192400       0.995219
    12507.817400       0.994663
    12523.481500       0.994079
    12539.185000       0.993467
    12554.927800       0.992827
    12570.710200       0.992159
    12586.532400       0.991465
    12602.394500       0.990744
    12618.296500       0.989996
    12634.238800       0.989223
    12650.221400       0.988424
    12666.244500       0.987599
    12682.308200       0.986750
    12698.412700       0.985877
    12714.558200       0.984979
    12730.744700       0.984058
    12746.972600       0.983114
    12763.241900       0.982146
    12779.552700       0.981157
    12795.905300       0.980145
    12812.299800       0.979112
    12828.736400       0.978057
    12845.215200       0.976982
    12861.736300       0.975886
    12878.300100       0.974770
    12894.906500       0.973634
    12911.555800       0.972480
    12928.248200       0.971307
    12944.983800       0.970115
    12961.762800       0.968906
    12978.585300       0.967679
    12995.451600       0.966435
    13012.361700       0.965175
    13029.316000       0.963899
    13046.314400       0.962607
    13063.357300       0.961299
    13080.444700       0.959977
    13097.576900       0.958641
    13114.754100       0.957291
    13131.976400       0.955927
    13149.243900       0.954550
    13166.556900       0.953161
    13183.915600       0.951759
    13201.320100       0.950346
    13218.770700       0.948922
    13236.267400       0.947487
    13253.810500       0.946042
    13271.400100       0.944586
    13289.036500       0.943122
    13306.719900       0.941648
    13324.450400       0.940166
    13342.228200       0.938676
    13360.053400       0.937179
    13377.926400       0.935674
    13395.847300       0.934163
    13413.816200       0.932645
    13431.833400       0.931121
    13449.899100       0.929593
    13468.013500       0.928059
    13486.176700       0.926521
    13504.388900       0.924979
    13522.650400       0.923433
    13540.961400       0.921884
    13559.322000       0.920333
    13577.732500       0.918779
    13596.193100       0.917224
    13614.703900       0.915667
    13633.265200       0.914109
    13651.877100       0.912551
    13670.540000       0.910993
    13689.253900       0.909435
    13708.019200       0.907878
    13726.836000       0.906323
    13745.704500       0.904769
    13764.624900       0.903216
    13783.597500       0.901667
    13802.622500       0.900120
    13821.700100       0.898577
    13840.830400       0.897038
    13860.013900       0.895502
    13879.250500       0.893972
    13898.540700       0.892446
    13917.884500       0.890925
    13937.282200       0.889410
    13956.734100       0.887902
    13976.240400       0.886399
    13995.801300       0.884904
    14015.417000       0.883416
    14035.087700       0.881936
    14054.813800       0.880463
    14074.595400       0.878999
    14094.432700       0.877544
    14114.326000       0.876097
    14134.275600       0.874661
    14154.281700       0.873233
    14174.344400       0.871817
    14194.464200       0.870410
    14214.641100       0.869014
    14234.875400       0.867630
    14255.167500       0.866257
    14275.517500       0.864895
    14295.925700       0.863546
    14316.392300       0.862209
    14336.917600       0.860884
    14357.501800       0.859573
    14378.145200       0.858275
    14398.848100       0.856990
    14419.610700       0.855719
    14440.433200       0.854463
    14461.316000       0.853220
    14482.259200       0.851992
    14503.263200       0.850779
    14524.328200       0.849581
    14545.454500       0.848399
    14566.642400       0.847232
    14587.892000       0.846081
    14609.203800       0.844945
    14630.577900       0.843826
    14652.014700       0.842724
    14673.514300       0.841638
    14695.077100       0.840568
    14716.703500       0.839516
    14738.393500       0.838481
    14760.147600       0.837463
    14781.966000       0.836463
    14803.849000       0.835481
    14825.796900       0.834516
    14847.809900       0.833569
    14869.888500       0.832640
    14892.032800       0.831730
    14914.243100       0.830838
    14936.519800       0.829964
    14958.863100       0.829109
    14981.273400       0.828272
    15003.750900       0.827454
    15026.296000       0.826655
    15048.909000       0.825874
    15071.590100       0.825113
    15094.339600       0.824370
    15117.158000       0.823647
    15140.045400       0.822942
    15163.002300       0.822257
    15186.028900       0.821590
    15209.125500       0.820943
    15232.292500       0.820315
    15255.530100       0.819705
    15278.838800       0.819115
    15302.218800       0.818544
    15325.670500       0.817992
    15349.194200       0.817459
    15372.790200       0.816945
    15396.458800       0.816449
    15420.200500       0.815973
    15444.015400       0.815515
    15467.904100       0.815075
    15491.866800       0.814654
    15515.903800       0.814252
    15540.015500       0.813868
    15564.202300       0.813502
    15588.464500       0.813154
    15612.802500       0.812824
    15637.216600       0.812511
    15661.707100       0.812216
    15686.274500       0.811939
    15710.919100       0.811678
    15735.641200       0.811435
    15760.441300       0.811209
    15785.319700       0.810999
    15810.276700       0.810806
    15835.312700       0.810628
    15860.428200       0.810467
    15885.623500       0.810322
    15910.899000       0.810191
    15936.255000       0.810076
    15961.691900       0.809976
    15987.210200       0.809891
    16012.810200       0.809820
    16038.492400       0.809763
    16064.257000       0.809719
    16090.104600       0.809689
    16116.035500       0.809672
    16142.050000       0.809668
    16168.148700       0.809677
    16194.332000       0.809697
    16220.600200       0.809729
    16246.953700       0.809772
    16273.393000       0.809826
    16299.918500       0.809891
    16326.530600       0.809966
    16353.229800       0.810050
    16380.016400       0.810144
    16406.890900       0.810247
    16433.853700       0.810358
    16460.905300       0.810477
    16488.046200       0.810603
    16515.276600       0.810737
    16542.597200       0.810877
    16570.008300       0.811024
    16597.510400       0.811176
    16625.103900       0.811333
    16652.789300       0.811495
    16680.567100       0.811661
    16708.437800       0.811830
    16736.401700       0.812003
    16764.459300       0.812178
    16792.611300       0.812356
    16820.857900       0.812534
    16849.199700       0.812714
    16877.637100       0.812893
    16906.170800       0.813073
    16934.801000       0.813252
    16963.528400       0.813429
    16992.353400       0.813604
    17021.276600       0.813777
    17050.298400       0.813946
    17079.419300       0.814112
    17108.639900       0.814273
    17137.960600       0.814429
    17167.382000       0.814579
    17196.904600       0.814723
    17226.528900       0.814860
    17256.255400       0.814989
    17286.084700       0.815109
    17316.017300       0.815221
    17346.053800       0.815323
    17376.194600       0.815414
    17406.440400       0.815495
    17436.791600       0.815564
    17467.248900       0.815620
    17497.812800       0.815663
    17528.483800       0.815692
    17559.262500       0.815706
    17590.149500       0.815706
    17621.145400       0.815689
    17652.250700       0.815655
    17683.466000       0.815604
    17714.791900       0.815535
    17746.228900       0.815447
    17777.777800       0.815339
    17809.439000       0.815211
    17841.213200       0.815061
    17873.101000       0.814890
    17905.103000       0.814696
    17937.219700       0.814478
    17969.451900       0.814236
    18001.800200       0.813970
    18034.265100       0.813677
    18066.847300       0.813358
    18099.547500       0.813012
    18132.366300       0.812638
    18165.304300       0.812235
    18198.362100       0.811803
    18231.540600       0.811340
    18264.840200       0.810846
    18298.261700       0.810320
    18331.805700       0.809761
    18365.472900       0.809170
    18399.264000       0.808544
    18433.179700       0.807883
    18467.220700       0.807186
    18501.387600       0.806453
    18535.681200       0.805682
    18570.102100       0.804874
    18604.651200       0.804026
    18639.329000       0.803140
    18674.136300       0.802212
    18709.073900       0.801244
    18744.142500       0.800234
    18779.342700       0.799182
    18814.675400       0.798086
    18850.141400       0.796946
    18885.741300       0.795762
    18921.475900       0.794531
    18957.346000       0.793255
    18993.352300       0.791932
    19029.495700       0.790561
    19065.776900       0.789141
    19102.196800       0.787673
    19138.756000       0.786154
    19175.455400       0.784585
    19212.295900       0.782965
    19249.278200       0.781294
    19286.403100       0.779569
    19323.671500       0.777791
    19361.084200       0.775960
    19398.642100       0.774074
    19436.346000       0.772133
    19474.196700       0.770136
    19512.195100       0.768083
    19550.342100       0.765972
    19588.638600       0.763805
    19627.085400       0.761579
    19665.683400       0.759294
    19704.433500       0.756950
    19743.336600       0.754546
    19782.393700       0.752081
    19821.605600       0.749556
    19860.973200       0.746969
    19900.497500       0.744320
    19940.179500       0.741608
    19980.020000       0.738834
    20020.020000       0.735996
    20060.180500       0.733095
    20100.502500       0.730129
    20140.986900       0.727098
    20181.634700       0.724003
    20222.446900       0.720841
    20263.424500       0.717614
    20304.568500       0.714321
    20345.880000       0.710961
    20387.359800       0.707535
    20429.009200       0.704041
    20470.829100       0.700479
    20512.820500       0.696850
    20554.984600       0.693153
    20597.322300       0.689388
    20639.834900       0.685555
    20682.523300       0.681653
    20725.388600       0.677682
    20768.432000       0.673643
    20811.654500       0.669535
    20855.057400       0.665357
    20898.641600       0.661111
    20942.408400       0.656795
    20986.358900       0.652411
    21030.494200       0.647957
    21074.815600       0.643434
    21119.324200       0.638842
    21164.021200       0.634181
    21208.907700       0.629452
    21253.985100       0.624653
    21299.254500       0.619786
    21344.717200       0.614851
    21390.374300       0.609848
    21436.227200       0.604777
    21482.277100       0.599638
    21528.525300       0.594432
    21574.973000       0.589159
    21621.621600       0.583820
    21668.472400       0.578414
    21715.526600       0.572943
    21762.785600       0.567407
    21810.250800       0.561805
    21857.923500       0.556140
    21905.805000       0.550411
    21953.896800       0.544619
    22002.200200       0.538765
    22050.716600       0.532849
    22099.447500       0.526872
    22148.394200       0.520836
    22197.558300       0.514739
    22246.941000       0.508584
    22296.544000       0.502372
    22346.368700       0.496102
    22396.416600       0.489777
    22446.689100       0.483397
    22497.187900       0.476963
    22547.914300       0.470477
    22598.870100       0.463938
    22650.056600       0.457350
    22701.475600       0.450712
    22753.128600       0.444026
    22805.017100       0.437293
    22857.142900       0.430515
    22909.507400       0.423692
    22962.112500       0.416827
    23014.959700       0.409922
    23068.050700       0.402976
    23121.387300       0.395992
    23174.971000       0.388972
    23228.803700       0.381917
    23282.887100       0.374829
    23337.222900       0.367710
    23391.812900       0.360561
    23446.658900       0.353385
    23501.762600       0.346183
    23557.126000       0.338957
    23612.750900       0.331710
    23668.639100       0.324443
    23724.792400       0.317159
    23781.212800       0.309859
    23837.902300       0.302546
    23894.862600       0.295223
    23952.095800       0.287891
    24009.603800       0.280553
    24067.388700       0.273212
    24125.452400       0.265870
    24183.796900       0.258530
    24242.424200       0.251193
    24301.336600       0.243864
    24360.535900       0.236545
    24420.024400       0.229238
    24479.804200       0.221947
    24539.877300       0.214675
    24600.246000       0.207424
    24660.912500       0.200198
    24721.878900       0.193000
    24783.147500       0.185832
    24844.720500       0.178700
    24906.600200       0.171605
    24968.789000       0.164551
    25031.289100       0.157542
    25094.102900       0.150581
    25157.232700       0.143672
    25220.681000       0.136818
    25284.450100       0.130025
    25348.542500       0.123294
    25412.960600       0.116631
    25477.707000       0.110038
