5,   SBG channel 5 from srf_082024.csv
Number of data points:
883
Wavenumber (cm-1)   Filter response
     1049.318000       0.000491
     1049.428000       0.000498
     1049.538200       0.000505
     1049.648300       0.000512
     1049.758500       0.000518
     1049.868800       0.000525
     1049.979000       0.000533
     1050.089200       0.000540
     1050.199500       0.000547
     1050.309800       0.000555
     1050.420200       0.000562
     1050.530500       0.000570
     1050.640900       0.000578
     1050.751200       0.000586
     1050.861700       0.000594
     1050.972200       0.000602
     1051.082600       0.000611
     1051.193100       0.000619
     1051.303600       0.000628
     1051.414200       0.000637
     1051.524700       0.000646
     1051.635300       0.000655
     1051.745800       0.000664
     1051.856600       0.000674
     1051.967300       0.000683
     1052.077900       0.000693
     1052.188600       0.000703
     1052.299200       0.000713
     1052.410000       0.000723
     1052.520800       0.000734
     1052.631600       0.000745
     1052.742400       0.000755
     1052.853300       0.000767
     1052.964100       0.000778
     1053.075000       0.000789
     1053.185900       0.000801
     1053.296800       0.000813
     1053.407700       0.000825
     1053.518800       0.000837
     1053.629800       0.000850
     1053.740800       0.000863
     1053.851800       0.000876
     1053.962900       0.000889
     1054.074000       0.000902
     1054.185100       0.000916
     1054.296300       0.000930
     1054.407300       0.000944
     1054.518700       0.000959
     1054.629800       0.000973
     1054.741100       0.000988
     1054.852400       0.001004
     1054.963600       0.001019
     1055.075000       0.001035
     1055.186200       0.001051
     1055.297600       0.001068
     1055.408900       0.001085
     1055.520400       0.001102
     1055.631800       0.001119
     1055.743300       0.001137
     1055.854700       0.001155
     1055.966200       0.001174
     1056.077800       0.001193
     1056.189200       0.001212
     1056.300800       0.001232
     1056.412500       0.001252
     1056.524000       0.001272
     1056.635700       0.001293
     1056.747300       0.001314
     1056.859000       0.001336
     1056.970700       0.001358
     1057.082400       0.001380
     1057.194200       0.001403
     1057.305900       0.001427
     1057.417800       0.001451
     1057.529500       0.001475
     1057.641500       0.001500
     1057.753300       0.001526
     1057.865200       0.001551
     1057.977200       0.001578
     1058.089100       0.001605
     1058.201000       0.001632
     1058.313000       0.001661
     1058.425000       0.001689
     1058.537100       0.001719
     1058.649200       0.001749
     1058.761200       0.001779
     1058.873300       0.001810
     1058.985500       0.001842
     1059.097700       0.001875
     1059.209800       0.001908
     1059.322000       0.001942
     1059.434200       0.001977
     1059.546500       0.002012
     1059.658800       0.002048
     1059.771100       0.002085
     1059.883400       0.002123
     1059.995700       0.002162
     1060.108200       0.002201
     1060.220500       0.002242
     1060.333000       0.002283
     1060.445300       0.002325
     1060.557900       0.002368
     1060.670300       0.002412
     1060.782800       0.002457
     1060.895400       0.002503
     1061.007900       0.002550
     1061.120600       0.002598
     1061.233200       0.002648
     1061.345800       0.002698
     1061.458500       0.002749
     1061.571200       0.002802
     1061.683800       0.002856
     1061.796500       0.002911
     1061.909300       0.002967
     1062.022100       0.003025
     1062.134900       0.003084
     1062.247800       0.003144
     1062.360600       0.003206
     1062.473500       0.003269
     1062.586300       0.003334
     1062.699200       0.003400
     1062.812100       0.003468
     1062.925200       0.003537
     1063.038200       0.003608
     1063.151100       0.003681
     1063.264300       0.003755
     1063.377200       0.003832
     1063.490400       0.003910
     1063.603400       0.003990
     1063.716700       0.004072
     1063.829800       0.004156
     1063.943000       0.004241
     1064.056200       0.004329
     1064.169400       0.004419
     1064.282700       0.004512
     1064.395900       0.004606
     1064.509300       0.004703
     1064.622700       0.004802
     1064.736000       0.004904
     1064.849400       0.005008
     1064.962600       0.005115
     1065.076200       0.005225
     1065.189700       0.005337
     1065.303100       0.005452
     1065.416600       0.005570
     1065.530000       0.005691
     1065.643700       0.005815
     1065.757200       0.005943
     1065.870800       0.006073
     1065.984500       0.006207
     1066.098000       0.006344
     1066.211800       0.006485
     1066.325400       0.006630
     1066.439200       0.006778
     1066.552900       0.006930
     1066.666600       0.007087
     1066.780500       0.007247
     1066.894300       0.007411
     1067.008200       0.007580
     1067.121900       0.007754
     1067.235800       0.007931
     1067.349700       0.008114
     1067.463700       0.008302
     1067.577800       0.008494
     1067.691700       0.008692
     1067.805700       0.008895
     1067.919700       0.009104
     1068.033800       0.009318
     1068.147800       0.009538
     1068.262000       0.009764
     1068.376100       0.009996
     1068.490200       0.010235
     1068.604400       0.010480
     1068.718500       0.010732
     1068.832900       0.010991
     1068.947100       0.011257
     1069.061400       0.011530
     1069.175700       0.011812
     1069.289900       0.012101
     1069.404400       0.012398
     1069.518700       0.012703
     1069.633200       0.013017
     1069.747600       0.013340
     1069.861900       0.013672
     1069.976400       0.014014
     1070.090900       0.014365
     1070.205400       0.014727
     1070.319900       0.015098
     1070.434600       0.015481
     1070.549200       0.015874
     1070.663800       0.016279
     1070.778400       0.016696
     1070.893100       0.017125
     1071.007800       0.017566
     1071.122400       0.018020
     1071.237300       0.018487
     1071.352100       0.018969
     1071.466800       0.019464
     1071.581700       0.019974
     1071.696400       0.020499
     1071.811400       0.021040
     1071.926100       0.021597
     1072.041100       0.022171
     1072.156100       0.022761
     1072.271000       0.023370
     1072.386100       0.023996
     1072.501000       0.024642
     1072.616100       0.025307
     1072.731200       0.025993
     1072.846200       0.026699
     1072.961400       0.027426
     1073.076500       0.028176
     1073.191700       0.028949
     1073.306800       0.029746
     1073.422100       0.030567
     1073.537400       0.031413
     1073.652600       0.032285
     1073.767800       0.033185
     1073.883200       0.034112
     1073.998500       0.035068
     1074.113800       0.036054
     1074.229200       0.037071
     1074.344700       0.038120
     1074.460100       0.039201
     1074.575600       0.040317
     1074.691000       0.041467
     1074.806500       0.042654
     1074.922000       0.043878
     1075.037600       0.045141
     1075.153200       0.046444
     1075.268800       0.047788
     1075.384500       0.049175
     1075.500100       0.050606
     1075.615800       0.052083
     1075.731600       0.053607
     1075.847200       0.055179
     1075.963000       0.056802
     1076.078700       0.058477
     1076.194600       0.060205
     1076.310400       0.061989
     1076.426300       0.063831
     1076.542200       0.065731
     1076.658100       0.067693
     1076.774000       0.069718
     1076.889900       0.071808
     1077.006000       0.073966
     1077.121800       0.076193
     1077.237900       0.078492
     1077.354100       0.080864
     1077.470100       0.083314
     1077.586200       0.085842
     1077.702300       0.088452
     1077.818500       0.091146
     1077.934600       0.093926
     1078.050900       0.096796
     1078.167100       0.099758
     1078.283300       0.102815
     1078.399700       0.105970
     1078.515900       0.109226
     1078.632300       0.112586
     1078.748700       0.116052
     1078.865000       0.119629
     1078.981400       0.123319
     1079.097900       0.127126
     1079.214400       0.131052
     1079.330800       0.135102
     1079.447400       0.139279
     1079.564000       0.143585
     1079.680400       0.148025
     1079.797000       0.152602
     1079.913600       0.157320
     1080.030300       0.162182
     1080.146900       0.167191
     1080.263500       0.172351
     1080.380400       0.177666
     1080.497100       0.183139
     1080.613800       0.188774
     1080.730600       0.194574
     1080.847400       0.200541
     1080.964200       0.206680
     1081.081100       0.212994
     1081.198000       0.219486
     1081.314800       0.226158
     1081.431900       0.233014
     1081.548700       0.240055
     1081.665800       0.247285
     1081.782700       0.254706
     1081.899800       0.262319
     1082.017000       0.270126
     1082.133900       0.278130
     1082.251100       0.286330
     1082.368200       0.294728
     1082.485400       0.303325
     1082.602500       0.312119
     1082.719700       0.321112
     1082.837000       0.330302
     1082.954200       0.339689
     1083.071700       0.349270
     1083.188800       0.359043
     1083.306300       0.369007
     1083.423700       0.379157
     1083.541000       0.389489
     1083.658400       0.400001
     1083.775900       0.410685
     1083.893300       0.421538
     1084.010700       0.432552
     1084.128400       0.443722
     1084.246000       0.455039
     1084.363400       0.466496
     1084.481100       0.478083
     1084.598600       0.489792
     1084.716300       0.501612
     1084.834000       0.513534
     1084.951700       0.525545
     1085.069500       0.537634
     1085.187100       0.549790
     1085.305100       0.561999
     1085.422700       0.574248
     1085.540600       0.586524
     1085.658400       0.598813
     1085.776400       0.611100
     1085.894300       0.623372
     1086.012100       0.635613
     1086.130100       0.647809
     1086.248000       0.659945
     1086.366100       0.672006
     1086.484100       0.683977
     1086.602200       0.695844
     1086.720300       0.707592
     1086.838400       0.719207
     1086.956500       0.730675
     1087.074600       0.741982
     1087.192900       0.753115
     1087.311200       0.764062
     1087.429300       0.774810
     1087.547600       0.785349
     1087.665900       0.795668
     1087.784200       0.805755
     1087.902500       0.815603
     1088.020900       0.825203
     1088.139300       0.834546
     1088.257700       0.843626
     1088.376200       0.852437
     1088.494600       0.860974
     1088.613200       0.869232
     1088.731600       0.877207
     1088.850200       0.884897
     1088.968800       0.892300
     1089.087300       0.899416
     1089.206100       0.906243
     1089.324600       0.912782
     1089.443400       0.919034
     1089.561900       0.925002
     1089.680700       0.930688
     1089.799600       0.936096
     1089.918200       0.941228
     1090.037100       0.946091
     1090.155900       0.950687
     1090.274800       0.955025
     1090.393700       0.959107
     1090.512600       0.962943
     1090.631500       0.966536
     1090.750400       0.969896
     1090.869400       0.973028
     1090.988400       0.975941
     1091.107400       0.978642
     1091.226600       0.981138
     1091.345600       0.983437
     1091.464700       0.985548
     1091.583900       0.987477
     1091.703100       0.989234
     1091.822100       0.990826
     1091.941500       0.992261
     1092.060800       0.993547
     1092.179900       0.994691
     1092.299300       0.995701
     1092.418600       0.996585
     1092.538000       0.997350
     1092.657300       0.998002
     1092.776700       0.998550
     1092.896200       0.999000
     1093.015600       0.999357
     1093.135100       0.999631
     1093.254600       0.999825
     1093.374100       0.999946
     1093.493700       1.000000
     1093.613300       0.999993
     1093.732900       0.999929
     1093.852500       0.999815
     1093.972300       0.999654
     1094.091900       0.999452
     1094.211700       0.999212
     1094.331400       0.998941
     1094.451200       0.998640
     1094.570900       0.998314
     1094.690700       0.997968
     1094.810700       0.997603
     1094.930400       0.997224
     1095.050400       0.996833
     1095.170400       0.996434
     1095.290300       0.996028
     1095.410300       0.995619
     1095.530200       0.995209
     1095.650300       0.994799
     1095.770300       0.994392
     1095.890400       0.993990
     1096.010600       0.993595
     1096.130600       0.993207
     1096.250900       0.992829
     1096.371000       0.992461
     1096.491200       0.992104
     1096.611500       0.991761
     1096.731700       0.991431
     1096.852100       0.991116
     1096.972300       0.990815
     1097.092800       0.990531
     1097.213000       0.990262
     1097.333500       0.990010
     1097.453900       0.989774
     1097.574300       0.989556
     1097.694800       0.989354
     1097.815300       0.989170
     1097.935900       0.989002
     1098.056400       0.988852
     1098.177000       0.988718
     1098.297700       0.988601
     1098.418200       0.988500
     1098.538900       0.988415
     1098.659500       0.988346
     1098.780400       0.988291
     1098.901000       0.988252
     1099.021900       0.988226
     1099.142700       0.988213
     1099.263400       0.988214
     1099.384400       0.988227
     1099.505200       0.988252
     1099.626100       0.988287
     1099.746900       0.988333
     1099.868000       0.988389
     1099.989000       0.988453
     1100.110000       0.988525
     1100.231100       0.988604
     1100.352100       0.988690
     1100.473300       0.988782
     1100.594200       0.988879
     1100.715500       0.988980
     1100.836700       0.989084
     1100.957800       0.989192
     1101.079100       0.989301
     1101.200300       0.989411
     1101.321700       0.989522
     1101.442900       0.989632
     1101.564200       0.989742
     1101.685700       0.989850
     1101.806900       0.989955
     1101.928300       0.990058
     1102.049800       0.990158
     1102.171300       0.990253
     1102.292800       0.990343
     1102.414300       0.990429
     1102.535900       0.990508
     1102.657300       0.990582
     1102.779100       0.990649
     1102.900600       0.990710
     1103.022300       0.990763
     1103.144000       0.990808
     1103.265600       0.990846
     1103.387500       0.990876
     1103.509200       0.990898
     1103.631000       0.990911
     1103.752700       0.990916
     1103.874600       0.990912
     1103.996500       0.990900
     1104.118300       0.990880
     1104.240400       0.990852
     1104.362200       0.990815
     1104.484300       0.990771
     1104.606200       0.990718
     1104.728300       0.990658
     1104.850300       0.990591
     1104.972400       0.990518
     1105.094500       0.990438
     1105.216600       0.990352
     1105.338700       0.990261
     1105.461100       0.990164
     1105.583100       0.990064
     1105.705400       0.989960
     1105.827600       0.989852
     1105.950100       0.989743
     1106.072300       0.989631
     1106.194700       0.989518
     1106.317100       0.989405
     1106.439500       0.989293
     1106.561900       0.989182
     1106.684300       0.989074
     1106.806900       0.988968
     1106.929300       0.988866
     1107.051900       0.988768
     1107.174600       0.988676
     1107.297100       0.988591
     1107.419800       0.988512
     1107.542400       0.988442
     1107.665000       0.988380
     1107.787700       0.988329
     1107.910500       0.988287
     1108.033300       0.988257
     1108.156000       0.988239
     1108.278900       0.988234
     1108.401600       0.988242
     1108.524500       0.988263
     1108.647300       0.988300
     1108.770400       0.988351
     1108.893300       0.988418
     1109.016200       0.988500
     1109.139300       0.988599
     1109.262300       0.988714
     1109.385400       0.988845
     1109.508500       0.988992
     1109.631600       0.989156
     1109.754800       0.989336
     1109.877900       0.989531
     1110.001100       0.989741
     1110.124300       0.989965
     1110.247600       0.990203
     1110.371000       0.990454
     1110.494100       0.990716
     1110.617600       0.990988
     1110.740800       0.991268
     1110.864300       0.991555
     1110.987700       0.991846
     1111.111100       0.992140
     1111.234600       0.992437
     1111.358000       0.992730
     1111.481700       0.993018
     1111.605100       0.993297
     1111.728800       0.993562
     1111.852300       0.993810
     1111.976000       0.994038
     1112.099700       0.994239
     1112.223300       0.994411
     1112.347000       0.994545
     1112.470700       0.994639
     1112.594600       0.994684
     1112.718300       0.994675
     1112.842200       0.994605
     1112.966100       0.994467
     1113.090000       0.994253
     1113.213900       0.993954
     1113.337800       0.993563
     1113.461800       0.993070
     1113.585800       0.992466
     1113.709700       0.991742
     1113.833900       0.990887
     1113.957900       0.989891
     1114.082000       0.988743
     1114.206100       0.987433
     1114.330300       0.985948
     1114.454500       0.984278
     1114.578600       0.982409
     1114.703000       0.980331
     1114.827100       0.978031
     1114.951500       0.975496
     1115.075800       0.972715
     1115.200200       0.969676
     1115.324600       0.966365
     1115.449000       0.962772
     1115.573500       0.958884
     1115.697900       0.954690
     1115.822400       0.950180
     1115.946800       0.945343
     1116.071400       0.940169
     1116.196000       0.934649
     1116.320600       0.928776
     1116.445300       0.922541
     1116.569800       0.915939
     1116.694600       0.908964
     1116.819200       0.901612
     1116.944100       0.893880
     1117.068800       0.885767
     1117.193600       0.877272
     1117.318500       0.868398
     1117.443200       0.859146
     1117.568200       0.849520
     1117.693100       0.839528
     1117.818000       0.829176
     1117.943000       0.818473
     1118.068000       0.807429
     1118.193000       0.796056
     1118.318000       0.784368
     1118.443100       0.772380
     1118.568200       0.760108
     1118.693400       0.747568
     1118.818600       0.734780
     1118.943700       0.721763
     1119.069000       0.708537
     1119.194100       0.695124
     1119.319500       0.681545
     1119.444800       0.667823
     1119.570100       0.653981
     1119.695400       0.640041
     1119.820800       0.626027
     1119.946300       0.611962
     1120.071700       0.597869
     1120.197100       0.583770
     1120.322800       0.569688
     1120.448100       0.555643
     1120.573700       0.541658
     1120.699200       0.527753
     1120.825000       0.513946
     1120.950700       0.500256
     1121.076200       0.486701
     1121.202000       0.473297
     1121.327600       0.460059
     1121.453400       0.447002
     1121.579100       0.434138
     1121.705000       0.421480
     1121.830900       0.409038
     1121.956700       0.396822
     1122.082600       0.384840
     1122.208500       0.373100
     1122.334500       0.361608
     1122.460300       0.350369
     1122.586400       0.339387
     1122.712500       0.328666
     1122.838500       0.318207
     1122.964600       0.308014
     1123.090700       0.298085
     1123.216900       0.288421
     1123.343000       0.279022
     1123.469200       0.269886
     1123.595600       0.261010
     1123.721800       0.252393
     1123.848100       0.244032
     1123.974400       0.235922
     1124.100700       0.228061
     1124.227100       0.220443
     1124.353500       0.213065
     1124.480000       0.205922
     1124.606300       0.199010
     1124.732900       0.192321
     1124.859400       0.185853
     1124.986000       0.179599
     1125.112500       0.173554
     1125.239100       0.167712
     1125.365800       0.162068
     1125.492400       0.156617
     1125.619100       0.151352
     1125.745700       0.146269
     1125.872600       0.141361
     1125.999400       0.136624
     1126.126100       0.132052
     1126.253100       0.127641
     1126.379800       0.123384
     1126.506700       0.119276
     1126.633500       0.115313
     1126.760600       0.111490
     1126.887600       0.107803
     1127.014500       0.104245
     1127.141600       0.100814
     1127.268600       0.097504
     1127.395800       0.094312
     1127.522800       0.091232
     1127.650000       0.088262
     1127.777200       0.085397
     1127.904300       0.082633
     1128.031600       0.079967
     1128.158800       0.077395
     1128.286100       0.074914
     1128.413500       0.072520
     1128.540800       0.070211
     1128.668200       0.067983
     1128.795500       0.065833
     1128.923000       0.063758
     1129.050400       0.061755
     1129.178000       0.059823
     1129.305500       0.057957
     1129.433000       0.056156
     1129.560700       0.054418
     1129.688200       0.052739
     1129.815900       0.051118
     1129.943500       0.049553
     1130.071200       0.048042
     1130.199000       0.046582
     1130.326700       0.045172
     1130.454500       0.043809
     1130.582300       0.042493
     1130.710100       0.041221
     1130.837900       0.039992
     1130.965800       0.038804
     1131.093900       0.037656
     1131.221700       0.036546
     1131.349700       0.035473
     1131.477700       0.034435
     1131.605700       0.033432
     1131.733800       0.032461
     1131.861900       0.031522
     1131.990100       0.030614
     1132.118200       0.029735
     1132.246500       0.028885
     1132.374500       0.028063
     1132.502800       0.027266
     1132.631000       0.026495
     1132.759400       0.025749
     1132.887800       0.025027
     1133.016100       0.024327
     1133.144500       0.023650
     1133.272800       0.022993
     1133.401400       0.022358
     1133.529900       0.021742
     1133.658300       0.021145
     1133.786900       0.020567
     1133.915400       0.020007
     1134.044100       0.019464
     1134.172600       0.018938
     1134.301300       0.018427
     1134.430100       0.017932
     1134.558600       0.017453
     1134.687400       0.016987
     1134.816200       0.016536
     1134.944900       0.016098
     1135.073700       0.015673
     1135.202600       0.015261
     1135.331500       0.014861
     1135.460400       0.014473
     1135.589400       0.014097
     1135.718300       0.013731
     1135.847400       0.013376
     1135.976300       0.013031
     1136.105500       0.012697
     1136.234600       0.012372
     1136.363600       0.012056
     1136.492800       0.011750
     1136.621900       0.011452
     1136.751200       0.011163
     1136.880500       0.010882
     1137.009600       0.010608
     1137.139000       0.010343
     1137.268300       0.010085
     1137.397700       0.009834
     1137.527000       0.009590
     1137.656400       0.009353
     1137.785900       0.009123
     1137.915300       0.008899
     1138.044900       0.008681
     1138.174300       0.008469
     1138.304000       0.008263
     1138.433500       0.008062
     1138.563100       0.007867
     1138.692900       0.007678
     1138.822400       0.007493
     1138.952100       0.007313
     1139.081900       0.007138
     1139.211700       0.006968
     1139.341400       0.006802
     1139.471300       0.006641
     1139.601200       0.006484
     1139.731000       0.006331
     1139.861000       0.006182
     1139.990800       0.006037
     1140.120800       0.005896
     1140.250900       0.005759
     1140.380900       0.005625
     1140.511000       0.005494
     1140.641000       0.005367
     1140.771200       0.005244
     1140.901200       0.005123
     1141.031500       0.005005
     1141.161700       0.004891
     1141.292000       0.004779
     1141.422200       0.004670
     1141.552500       0.004564
     1141.682900       0.004461
     1141.813100       0.004360
     1141.943600       0.004262
     1142.074100       0.004166
     1142.204500       0.004073
     1142.335000       0.003982
     1142.465500       0.003893
     1142.595900       0.003806
     1142.726400       0.003722
     1142.857200       0.003639
     1142.987800       0.003559
     1143.118400       0.003481
     1143.249100       0.003404
     1143.379800       0.003330
     1143.510600       0.003257
     1143.641400       0.003186
     1143.772200       0.003117
     1143.903100       0.003049
     1144.033800       0.002983
     1144.164800       0.002918
     1144.295700       0.002856
     1144.426600       0.002794
     1144.557600       0.002734
     1144.688600       0.002676
     1144.819700       0.002619
     1144.950700       0.002563
     1145.081900       0.002509
     1145.213000       0.002455
     1145.344200       0.002404
     1145.475500       0.002353
     1145.606600       0.002303
     1145.737900       0.002255
     1145.869100       0.002208
     1146.000500       0.002162
     1146.131700       0.002117
     1146.263200       0.002073
     1146.394700       0.002030
     1146.526000       0.001988
     1146.657500       0.001947
     1146.788900       0.001907
     1146.920500       0.001868
     1147.052000       0.001829
     1147.183700       0.001792
     1147.315300       0.001755
     1147.446900       0.001720
     1147.578600       0.001685
     1147.710300       0.001651
     1147.842000       0.001617
     1147.973800       0.001585
     1148.105600       0.001553
     1148.237500       0.001522
     1148.369300       0.001492
     1148.501200       0.001462
     1148.633100       0.001433
     1148.765100       0.001404
     1148.897000       0.001377
     1149.029100       0.001349
     1149.161100       0.001323
     1149.293200       0.001297
     1149.425300       0.001271
     1149.557400       0.001247
     1149.689600       0.001222
     1149.821800       0.001198
     1149.954000       0.001175
     1150.086300       0.001152
     1150.218500       0.001130
     1150.350800       0.001108
     1150.483200       0.001087
     1150.615600       0.001066
     1150.748000       0.001046
     1150.880400       0.001026
     1151.012900       0.001007
     1151.145400       0.000987
     1151.278000       0.000969
     1151.410400       0.000951
     1151.543100       0.000933
     1151.675800       0.000915
     1151.808300       0.000898
     1151.941000       0.000881
     1152.073700       0.000865
     1152.206500       0.000849
     1152.339200       0.000833
     1152.472000       0.000818
     1152.605000       0.000803
     1152.737700       0.000788
     1152.870700       0.000774
     1153.003500       0.000759
     1153.136600       0.000746
     1153.269500       0.000732
     1153.402600       0.000719
     1153.535600       0.000706
     1153.668600       0.000693
     1153.801800       0.000681
     1153.934800       0.000669
     1154.068100       0.000657
     1154.201300       0.000645
     1154.334500       0.000634
     1154.467800       0.000622
     1154.601100       0.000611
     1154.734400       0.000601
     1154.867700       0.000590
     1155.001100       0.000580
     1155.134600       0.000570
     1155.267900       0.000560
     1155.401500       0.000550
     1155.535000       0.000541
     1155.668600       0.000531
     1155.802100       0.000522
     1155.935700       0.000513
     1156.069500       0.000504
     1156.203000       0.000496
     1156.336800       0.000487
