105,   105, MVIRI VIS channel from srf_MET7_2010258_2010259_1801-Release_S10EE_10.dat
Number of data points:
793
Wavenumber (cm-1)   Filter response
     8442.380800       0.000000
     8449.514200       0.000000
     8456.659600       0.000004
     8463.817200       0.000056
     8470.986900       0.000166
     8478.168700       0.000333
     8485.362700       0.000554
     8492.569000       0.000828
     8499.787500       0.001153
     8507.018300       0.001529
     8514.261400       0.001953
     8521.516800       0.002425
     8528.784600       0.002942
     8536.064900       0.003504
     8543.357500       0.004109
     8550.662700       0.004756
     8557.980300       0.005444
     8565.310500       0.006172
     8572.653200       0.006939
     8580.008600       0.007744
     8587.376600       0.008585
     8594.757200       0.009462
     8602.150500       0.010374
     8609.556600       0.011320
     8616.975400       0.012299
     8624.407100       0.013311
     8631.851500       0.014354
     8639.308900       0.015429
     8646.779100       0.016533
     8654.262200       0.017667
     8661.758300       0.018830
     8669.267400       0.020022
     8676.789600       0.021241
     8684.324800       0.022487
     8691.873100       0.023760
     8699.434500       0.025059
     8707.009100       0.026385
     8714.596900       0.027735
     8722.198000       0.029110
     8729.812300       0.030510
     8737.439900       0.031934
     8745.080900       0.033382
     8752.735200       0.034853
     8760.403000       0.036347
     8768.084200       0.037865
     8775.778900       0.039405
     8783.487000       0.040968
     8791.208800       0.042552
     8798.944100       0.044159
     8806.693100       0.045788
     8814.455700       0.047438
     8822.232000       0.049110
     8830.022100       0.050803
     8837.825900       0.052517
     8845.643500       0.054253
     8853.475000       0.056009
     8861.320300       0.057787
     8869.179600       0.059585
     8877.052800       0.061404
     8884.940000       0.063244
     8892.841300       0.065105
     8900.756600       0.066986
     8908.686000       0.068889
     8916.629500       0.070811
     8924.587200       0.072755
     8932.559200       0.074719
     8940.545400       0.076704
     8948.545900       0.078710
     8956.560700       0.080736
     8964.589900       0.082783
     8972.633500       0.084851
     8980.691500       0.086940
     8988.764000       0.089050
     8996.851100       0.091181
     9004.952700       0.093333
     9013.068900       0.095506
     9021.199800       0.097700
     9029.345400       0.099916
     9037.505600       0.102153
     9045.680700       0.104411
     9053.870500       0.106691
     9062.075200       0.108993
     9070.294800       0.111316
     9078.529300       0.113661
     9086.778700       0.116028
     9095.043200       0.118417
     9103.322700       0.120828
     9111.617300       0.123261
     9119.927000       0.125716
     9128.251900       0.128194
     9136.592100       0.130694
     9144.947400       0.133216
     9153.318100       0.135761
     9161.704100       0.138329
     9170.105500       0.140920
     9178.522300       0.143533
     9186.954500       0.146169
     9195.402300       0.148829
     9203.865600       0.151511
     9212.344500       0.154216
     9220.839100       0.156945
     9229.349300       0.159697
     9237.875300       0.162472
     9246.417000       0.165270
     9254.974500       0.168092
     9263.547900       0.170938
     9272.137200       0.173807
     9280.742500       0.176699
     9289.363700       0.179615
     9298.000900       0.182555
     9306.654300       0.185519
     9315.323700       0.188506
     9324.009300       0.191517
     9332.711200       0.194552
     9341.429200       0.197610
     9350.163600       0.200692
     9358.914400       0.203798
     9367.681500       0.206927
     9376.465100       0.210081
     9385.265100       0.213257
     9394.081700       0.216458
     9402.914900       0.219682
     9411.764700       0.222930
     9420.631200       0.226202
     9429.514400       0.229497
     9438.414300       0.232815
     9447.331100       0.236157
     9456.264800       0.239522
     9465.215300       0.242911
     9474.182900       0.246322
     9483.167400       0.249757
     9492.169000       0.253214
     9501.187600       0.256695
     9510.223500       0.260199
     9519.276500       0.263725
     9528.346800       0.267274
     9537.434400       0.270845
     9546.539400       0.274438
     9555.661700       0.278054
     9564.801500       0.281692
     9573.958800       0.285352
     9583.133700       0.289033
     9592.326100       0.292736
     9601.536200       0.296461
     9610.764100       0.300206
     9620.009600       0.303973
     9629.273000       0.307761
     9638.554200       0.311569
     9647.853400       0.315398
     9657.170400       0.319246
     9666.505600       0.323116
     9675.858700       0.327005
     9685.230000       0.330913
     9694.619500       0.334841
     9704.027200       0.338788
     9713.453100       0.342754
     9722.897400       0.346739
     9732.360100       0.350742
     9741.841200       0.354763
     9751.340800       0.358802
     9760.859000       0.362859
     9770.395700       0.366933
     9779.951100       0.371023
     9789.525200       0.375131
     9799.118100       0.379255
     9808.729800       0.383395
     9818.360300       0.387552
     9828.009800       0.391723
     9837.678300       0.395910
     9847.365800       0.400111
     9857.072400       0.404327
     9866.798200       0.408557
     9876.543200       0.412801
     9886.307500       0.417059
     9896.091000       0.421330
     9905.894000       0.425613
     9915.716400       0.429909
     9925.558300       0.434217
     9935.419800       0.438537
     9945.300800       0.442868
     9955.201600       0.447210
     9965.122100       0.451563
     9975.062300       0.455925
     9985.022500       0.460298
     9995.002500       0.464680
    10005.002500       0.469070
    10015.022500       0.473470
    10025.062700       0.477877
    10035.122900       0.482293
    10045.203400       0.486715
    10055.304200       0.491145
    10065.425300       0.495581
    10075.566800       0.500023
    10085.728700       0.504471
    10095.911200       0.508924
    10106.114200       0.513382
    10116.337900       0.517844
    10126.582300       0.522310
    10136.847400       0.526780
    10147.133400       0.531253
    10157.440300       0.535728
    10167.768200       0.540205
    10178.117000       0.544684
    10188.487000       0.549164
    10198.878100       0.553645
    10209.290500       0.558126
    10219.724100       0.562607
    10230.179000       0.567087
    10240.655400       0.571567
    10251.153300       0.576044
    10261.672700       0.580520
    10272.213700       0.584993
    10282.776300       0.589464
    10293.360800       0.593931
    10303.967000       0.598393
    10314.595200       0.602852
    10325.245200       0.607306
    10335.917300       0.611754
    10346.611500       0.616197
    10357.327800       0.620633
    10368.066400       0.625063
    10378.827200       0.629485
    10389.610400       0.633900
    10400.416000       0.638306
    10411.244100       0.642704
    10422.094800       0.647093
    10432.968200       0.651472
    10443.864200       0.655842
    10454.783100       0.660200
    10465.724800       0.664548
    10476.689400       0.668884
    10487.677000       0.673208
    10498.687700       0.677520
    10509.721500       0.681819
    10520.778500       0.686104
    10531.858900       0.690376
    10542.962600       0.694634
    10554.089700       0.698877
    10565.240400       0.703104
    10576.414600       0.707316
    10587.612500       0.711512
    10598.834100       0.715691
    10610.079600       0.719854
    10621.348900       0.723998
    10632.642200       0.728125
    10643.959600       0.732234
    10655.301000       0.736323
    10666.666700       0.740394
    10678.056600       0.744445
    10689.470900       0.748475
    10700.909600       0.752486
    10712.372800       0.756475
    10723.860600       0.760442
    10735.373100       0.764388
    10746.910300       0.768312
    10758.472300       0.772213
    10770.059200       0.776091
    10781.671200       0.779945
    10793.308100       0.783776
    10804.970300       0.787582
    10816.657700       0.791364
    10828.370300       0.795120
    10840.108400       0.798851
    10851.871900       0.802556
    10863.661100       0.806235
    10875.475800       0.809888
    10887.316300       0.813513
    10899.182600       0.817111
    10911.074700       0.820681
    10922.992900       0.824223
    10934.937100       0.827737
    10946.907500       0.831222
    10958.904100       0.834678
    10970.927000       0.838104
    10982.976400       0.841500
    10995.052200       0.844867
    11007.154700       0.848203
    11019.283700       0.851508
    11031.439600       0.854782
    11043.622300       0.858024
    11055.832000       0.861235
    11068.068600       0.864413
    11080.332400       0.867560
    11092.623400       0.870674
    11104.941700       0.873755
    11117.287400       0.876802
    11129.660500       0.879817
    11142.061300       0.882797
    11154.489700       0.885744
    11166.945800       0.888656
    11179.429800       0.891534
    11191.941800       0.894377
    11204.481800       0.897185
    11217.049900       0.899958
    11229.646300       0.902696
    11242.270900       0.905398
    11254.924000       0.908064
    11267.605600       0.910694
    11280.315800       0.913288
    11293.054800       0.915845
    11305.822500       0.918366
    11318.619100       0.920850
    11331.444800       0.923296
    11344.299500       0.925706
    11357.183400       0.928078
    11370.096600       0.930413
    11383.039300       0.932710
    11396.011400       0.934970
    11409.013100       0.937191
    11422.044500       0.939375
    11435.105800       0.941520
    11448.196900       0.943627
    11461.318100       0.945696
    11474.469300       0.947726
    11487.650800       0.949717
    11500.862600       0.951670
    11514.104800       0.953584
    11527.377500       0.955460
    11540.680900       0.957296
    11554.015000       0.959093
    11567.380000       0.960852
    11580.775900       0.962571
    11594.202900       0.964251
    11607.661100       0.965892
    11621.150500       0.967494
    11634.671300       0.969056
    11648.223600       0.970579
    11661.807600       0.972063
    11675.423200       0.973508
    11689.070700       0.974914
    11702.750100       0.976280
    11716.461600       0.977607
    11730.205300       0.978895
    11743.981200       0.980144
    11757.789500       0.981354
    11771.630400       0.982525
    11785.503800       0.983657
    11799.410000       0.984749
    11813.349100       0.985803
    11827.321100       0.986818
    11841.326200       0.987795
    11855.364600       0.988732
    11869.436200       0.989631
    11883.541300       0.990492
    11897.680000       0.991314
    11911.852300       0.992099
    11926.058400       0.992845
    11940.298500       0.993553
    11954.572600       0.994223
    11968.880900       0.994855
    11983.223500       0.995450
    11997.600500       0.996007
    12012.012000       0.996528
    12026.458200       0.997011
    12040.939200       0.997457
    12055.455100       0.997866
    12070.006000       0.998239
    12084.592100       0.998575
    12099.213600       0.998876
    12113.870400       0.999140
    12128.562800       0.999368
    12143.290800       0.999561
    12158.054700       0.999719
    12172.854500       0.999841
    12187.690400       0.999929
    12202.562500       0.999982
    12217.471000       1.000000
    12232.415900       0.999984
    12247.397400       0.999935
    12262.415700       0.999851
    12277.470800       0.999735
    12292.563000       0.999585
    12307.692300       0.999402
    12322.858900       0.999187
    12338.062900       0.998939
    12353.304500       0.998660
    12368.583800       0.998348
    12383.900900       0.998006
    12399.256000       0.997632
    12414.649300       0.997228
    12430.080800       0.996793
    12445.550700       0.996327
    12461.059200       0.995832
    12476.606400       0.995308
    12492.192400       0.994754
    12507.817400       0.994172
    12523.481500       0.993561
    12539.185000       0.992922
    12554.927800       0.992255
    12570.710200       0.991561
    12586.532400       0.990840
    12602.394500       0.990092
    12618.296500       0.989318
    12634.238800       0.988517
    12650.221400       0.987692
    12666.244500       0.986841
    12682.308200       0.985965
    12698.412700       0.985065
    12714.558200       0.984140
    12730.744700       0.983192
    12746.972600       0.982221
    12763.241900       0.981227
    12779.552700       0.980211
    12795.905300       0.979172
    12812.299800       0.978112
    12828.736400       0.977031
    12845.215200       0.975929
    12861.736300       0.974806
    12878.300100       0.973664
    12894.906500       0.972502
    12911.555800       0.971321
    12928.248200       0.970121
    12944.983800       0.968903
    12961.762800       0.967667
    12978.585300       0.966414
    12995.451600       0.965144
    13012.361700       0.963857
    13029.316000       0.962554
    13046.314400       0.961236
    13063.357300       0.959902
    13080.444700       0.958554
    13097.576900       0.957191
    13114.754100       0.955815
    13131.976400       0.954425
    13149.243900       0.953022
    13166.556900       0.951607
    13183.915600       0.950179
    13201.320100       0.948740
    13218.770700       0.947290
    13236.267400       0.945829
    13253.810500       0.944357
    13271.400100       0.942876
    13289.036500       0.941386
    13306.719900       0.939887
    13324.450400       0.938379
    13342.228200       0.936863
    13360.053400       0.935340
    13377.926400       0.933810
    13395.847300       0.932273
    13413.816200       0.930729
    13431.833400       0.929180
    13449.899100       0.927626
    13468.013500       0.926067
    13486.176700       0.924503
    13504.388900       0.922936
    13522.650400       0.921365
    13540.961400       0.919791
    13559.322000       0.918214
    13577.732500       0.916635
    13596.193100       0.915055
    13614.703900       0.913473
    13633.265200       0.911890
    13651.877100       0.910307
    13670.540000       0.908724
    13689.253900       0.907141
    13708.019200       0.905559
    13726.836000       0.903978
    13745.704500       0.902399
    13764.624900       0.900822
    13783.597500       0.899248
    13802.622500       0.897676
    13821.700100       0.896108
    13840.830400       0.894544
    13860.013900       0.892984
    13879.250500       0.891428
    13898.540700       0.889878
    13917.884500       0.888332
    13937.282200       0.886793
    13956.734100       0.885259
    13976.240400       0.883732
    13995.801300       0.882212
    14015.417000       0.880700
    14035.087700       0.879194
    14054.813800       0.877697
    14074.595400       0.876209
    14094.432700       0.874729
    14114.326000       0.873258
    14134.275600       0.871796
    14154.281700       0.870344
    14174.344400       0.868903
    14194.464200       0.867472
    14214.641100       0.866051
    14234.875400       0.864642
    14255.167500       0.863244
    14275.517500       0.861858
    14295.925700       0.860484
    14316.392300       0.859122
    14336.917600       0.857773
    14357.501800       0.856437
    14378.145200       0.855114
    14398.848100       0.853804
    14419.610700       0.852508
    14440.433200       0.851227
    14461.316000       0.849959
    14482.259200       0.848706
    14503.263200       0.847468
    14524.328200       0.846245
    14545.454500       0.845037
    14566.642400       0.843845
    14587.892000       0.842669
    14609.203800       0.841508
    14630.577900       0.840364
    14652.014700       0.839236
    14673.514300       0.838124
    14695.077100       0.837030
    14716.703500       0.835952
    14738.393500       0.834891
    14760.147600       0.833848
    14781.966000       0.832822
    14803.849000       0.831813
    14825.796900       0.830822
    14847.809900       0.829850
    14869.888500       0.828895
    14892.032800       0.827958
    14914.243100       0.827039
    14936.519800       0.826139
    14958.863100       0.825258
    14981.273400       0.824394
    15003.750900       0.823550
    15026.296000       0.822724
    15048.909000       0.821916
    15071.590100       0.821128
    15094.339600       0.820358
    15117.158000       0.819607
    15140.045400       0.818876
    15163.002300       0.818163
    15186.028900       0.817469
    15209.125500       0.816794
    15232.292500       0.816138
    15255.530100       0.815501
    15278.838800       0.814883
    15302.218800       0.814283
    15325.670500       0.813703
    15349.194200       0.813141
    15372.790200       0.812599
    15396.458800       0.812075
    15420.200500       0.811569
    15444.015400       0.811082
    15467.904100       0.810614
    15491.866800       0.810164
    15515.903800       0.809732
    15540.015500       0.809318
    15564.202300       0.808922
    15588.464500       0.808545
    15612.802500       0.808184
    15637.216600       0.807842
    15661.707100       0.807517
    15686.274500       0.807209
    15710.919100       0.806918
    15735.641200       0.806644
    15760.441300       0.806387
    15785.319700       0.806146
    15810.276700       0.805922
    15835.312700       0.805713
    15860.428200       0.805520
    15885.623500       0.805343
    15910.899000       0.805181
    15936.255000       0.805034
    15961.691900       0.804902
    15987.210200       0.804784
    16012.810200       0.804681
    16038.492400       0.804591
    16064.257000       0.804515
    16090.104600       0.804452
    16116.035500       0.804402
    16142.050000       0.804364
    16168.148700       0.804339
    16194.332000       0.804326
    16220.600200       0.804324
    16246.953700       0.804334
    16273.393000       0.804354
    16299.918500       0.804384
    16326.530600       0.804425
    16353.229800       0.804475
    16380.016400       0.804534
    16406.890900       0.804602
    16433.853700       0.804678
    16460.905300       0.804762
    16488.046200       0.804853
    16515.276600       0.804952
    16542.597200       0.805057
    16570.008300       0.805167
    16597.510400       0.805284
    16625.103900       0.805405
    16652.789300       0.805531
    16680.567100       0.805661
    16708.437800       0.805794
    16736.401700       0.805930
    16764.459300       0.806069
    16792.611300       0.806209
    16820.857900       0.806351
    16849.199700       0.806494
    16877.637100       0.806637
    16906.170800       0.806780
    16934.801000       0.806921
    16963.528400       0.807061
    16992.353400       0.807199
    17021.276600       0.807335
    17050.298400       0.807467
    17079.419300       0.807595
    17108.639900       0.807718
    17137.960600       0.807836
    17167.382000       0.807949
    17196.904600       0.808055
    17226.528900       0.808154
    17256.255400       0.808245
    17286.084700       0.808328
    17316.017300       0.808402
    17346.053800       0.808466
    17376.194600       0.808520
    17406.440400       0.808562
    17436.791600       0.808593
    17467.248900       0.808611
    17497.812800       0.808617
    17528.483800       0.808608
    17559.262500       0.808585
    17590.149500       0.808546
    17621.145400       0.808492
    17652.250700       0.808421
    17683.466000       0.808332
    17714.791900       0.808226
    17746.228900       0.808100
    17777.777800       0.807955
    17809.439000       0.807790
    17841.213200       0.807603
    17873.101000       0.807395
    17905.103000       0.807164
    17937.219700       0.806910
    17969.451900       0.806632
    18001.800200       0.806329
    18034.265100       0.806000
    18066.847300       0.805645
    18099.547500       0.805264
    18132.366300       0.804854
    18165.304300       0.804416
    18198.362100       0.803948
    18231.540600       0.803450
    18264.840200       0.802922
    18298.261700       0.802362
    18331.805700       0.801769
    18365.472900       0.801144
    18399.264000       0.800484
    18433.179700       0.799790
    18467.220700       0.799061
    18501.387600       0.798295
    18535.681200       0.797493
    18570.102100       0.796653
    18604.651200       0.795774
    18639.329000       0.794857
    18674.136300       0.793899
    18709.073900       0.792901
    18744.142500       0.791861
    18779.342700       0.790780
    18814.675400       0.789655
    18850.141400       0.788487
    18885.741300       0.787275
    18921.475900       0.786018
    18957.346000       0.784715
    18993.352300       0.783365
    19029.495700       0.781969
    19065.776900       0.780524
    19102.196800       0.779032
    19138.756000       0.777489
    19175.455400       0.775897
    19212.295900       0.774255
    19249.278200       0.772561
    19286.403100       0.770816
    19323.671500       0.769018
    19361.084200       0.767166
    19398.642100       0.765261
    19436.346000       0.763302
    19474.196700       0.761288
    19512.195100       0.759218
    19550.342100       0.757091
    19588.638600       0.754908
    19627.085400       0.752668
    19665.683400       0.750369
    19704.433500       0.748013
    19743.336600       0.745597
    19782.393700       0.743121
    19821.605600       0.740586
    19860.973200       0.737990
    19900.497500       0.735333
    19940.179500       0.732614
    19980.020000       0.729834
    20020.020000       0.726990
    20060.180500       0.724085
    20100.502500       0.721115
    20140.986900       0.718083
    20181.634700       0.714986
    20222.446900       0.711824
    20263.424500       0.708598
    20304.568500       0.705307
    20345.880000       0.701950
    20387.359800       0.698528
    20429.009200       0.695040
    20470.829100       0.691485
    20512.820500       0.687864
    20554.984600       0.684176
    20597.322300       0.680421
    20639.834900       0.676599
    20682.523300       0.672710
    20725.388600       0.668753
    20768.432000       0.664729
    20811.654500       0.660637
    20855.057400       0.656478
    20898.641600       0.652250
    20942.408400       0.647955
    20986.358900       0.643592
    21030.494200       0.639161
    21074.815600       0.634663
    21119.324200       0.630097
    21164.021200       0.625463
    21208.907700       0.620763
    21253.985100       0.615994
    21299.254500       0.611159
    21344.717200       0.606257
    21390.374300       0.601288
    21436.227200       0.596252
    21482.277100       0.591151
    21528.525300       0.585984
    21574.973000       0.580751
    21621.621600       0.575454
    21668.472400       0.570091
    21715.526600       0.564665
    21762.785600       0.559175
    21810.250800       0.553622
    21857.923500       0.548006
    21905.805000       0.542328
    21953.896800       0.536588
    22002.200200       0.530788
    22050.716600       0.524928
    22099.447500       0.519008
    22148.394200       0.513030
    22197.558300       0.506994
    22246.941000       0.500900
    22296.544000       0.494751
    22346.368700       0.488546
    22396.416600       0.482288
    22446.689100       0.475976
    22497.187900       0.469611
    22547.914300       0.463196
    22598.870100       0.456730
    22650.056600       0.450215
    22701.475600       0.443653
    22753.128600       0.437044
    22805.017100       0.430390
    22857.142900       0.423692
    22909.507400       0.416951
    22962.112500       0.410169
    23014.959700       0.403348
    23068.050700       0.396488
    23121.387300       0.389592
    23174.971000       0.382661
    23228.803700       0.375696
    23282.887100       0.368700
    23337.222900       0.361674
    23391.812900       0.354619
    23446.658900       0.347539
    23501.762600       0.340434
    23557.126000       0.333306
    23612.750900       0.326158
    23668.639100       0.318992
    23724.792400       0.311809
    23781.212800       0.304613
    23837.902300       0.297404
    23894.862600       0.290186
    23952.095800       0.282960
    24009.603800       0.275730
    24067.388700       0.268497
    24125.452400       0.261264
    24183.796900       0.254034
    24242.424200       0.246809
    24301.336600       0.239591
    24360.535900       0.232385
    24420.024400       0.225191
    24479.804200       0.218014
    24539.877300       0.210856
    24600.246000       0.203721
    24660.912500       0.196610
    24721.878900       0.189528
    24783.147500       0.182477
    24844.720500       0.175461
    24906.600200       0.168483
    24968.789000       0.161546
    25031.289100       0.154654
    25094.102900       0.147811
    25157.232700       0.141019
    25220.681000       0.134283
    25284.450100       0.127606
    25348.542500       0.120992
    25412.960600       0.114445
    25477.707000       0.107969
