48,   48, MVIRI VIS channel from srf_MET2_1988033_1988034_1801-Release_S10EL_10.dat
Number of data points:
730
Wavenumber (cm-1)   Filter response
     8916.629500       0.000000
     8924.587200       0.000000
     8932.559200       0.000002
     8940.545400       0.000012
     8948.545900       0.000032
     8956.560700       0.000069
     8964.589900       0.000127
     8972.633500       0.000209
     8980.691500       0.000320
     8988.764000       0.000463
     8996.851100       0.000643
     9004.952700       0.000862
     9013.068900       0.001124
     9021.199800       0.001433
     9029.345400       0.001791
     9037.505600       0.002201
     9045.680700       0.002666
     9053.870500       0.003189
     9062.075200       0.003772
     9070.294800       0.004418
     9078.529300       0.005129
     9086.778700       0.005906
     9095.043200       0.006752
     9103.322700       0.007669
     9111.617300       0.008658
     9119.927000       0.009722
     9128.251900       0.010861
     9136.592100       0.012077
     9144.947400       0.013371
     9153.318100       0.014745
     9161.704100       0.016200
     9170.105500       0.017736
     9178.522300       0.019355
     9186.954500       0.021057
     9195.402300       0.022844
     9203.865600       0.024715
     9212.344500       0.026672
     9220.839100       0.028714
     9229.349300       0.030842
     9237.875300       0.033057
     9246.417000       0.035359
     9254.974500       0.037748
     9263.547900       0.040223
     9272.137200       0.042785
     9280.742500       0.045435
     9289.363700       0.048171
     9298.000900       0.050994
     9306.654300       0.053904
     9315.323700       0.056899
     9324.009300       0.059980
     9332.711200       0.063147
     9341.429200       0.066398
     9350.163600       0.069734
     9358.914400       0.073153
     9367.681500       0.076656
     9376.465100       0.080242
     9385.265100       0.083908
     9394.081700       0.087657
     9402.914900       0.091485
     9411.764700       0.095393
     9420.631200       0.099380
     9429.514400       0.103444
     9438.414300       0.107585
     9447.331100       0.111801
     9456.264800       0.116092
     9465.215300       0.120458
     9474.182900       0.124895
     9483.167400       0.129404
     9492.169000       0.133984
     9501.187600       0.138633
     9510.223500       0.143350
     9519.276500       0.148133
     9528.346800       0.152983
     9537.434400       0.157897
     9546.539400       0.162874
     9555.661700       0.167913
     9564.801500       0.173012
     9573.958800       0.178171
     9583.133700       0.183388
     9592.326100       0.188661
     9601.536200       0.193990
     9610.764100       0.199372
     9620.009600       0.204807
     9629.273000       0.210294
     9638.554200       0.215829
     9647.853400       0.221414
     9657.170400       0.227044
     9666.505600       0.232721
     9675.858700       0.238442
     9685.230000       0.244205
     9694.619500       0.250010
     9704.027200       0.255854
     9713.453100       0.261737
     9722.897400       0.267657
     9732.360100       0.273612
     9741.841200       0.279601
     9751.340800       0.285623
     9760.859000       0.291676
     9770.395700       0.297759
     9779.951100       0.303870
     9789.525200       0.310008
     9799.118100       0.316172
     9808.729800       0.322358
     9818.360300       0.328569
     9828.009800       0.334800
     9837.678300       0.341051
     9847.365800       0.347321
     9857.072400       0.353607
     9866.798200       0.359909
     9876.543200       0.366225
     9886.307500       0.372555
     9896.091000       0.378896
     9905.894000       0.385247
     9915.716400       0.391607
     9925.558300       0.397974
     9935.419800       0.404348
     9945.300800       0.410727
     9955.201600       0.417108
     9965.122100       0.423493
     9975.062300       0.429878
     9985.022500       0.436264
     9995.002500       0.442648
    10005.002500       0.449029
    10015.022500       0.455407
    10025.062700       0.461779
    10035.122900       0.468145
    10045.203400       0.474503
    10055.304200       0.480854
    10065.425300       0.487194
    10075.566800       0.493523
    10085.728700       0.499840
    10095.911200       0.506144
    10106.114200       0.512434
    10116.337900       0.518708
    10126.582300       0.524966
    10136.847400       0.531207
    10147.133400       0.537429
    10157.440300       0.543632
    10167.768200       0.549814
    10178.117000       0.555975
    10188.487000       0.562113
    10198.878100       0.568229
    10209.290500       0.574319
    10219.724100       0.580385
    10230.179000       0.586424
    10240.655400       0.592437
    10251.153300       0.598422
    10261.672700       0.604378
    10272.213700       0.610304
    10282.776300       0.616200
    10293.360800       0.622066
    10303.967000       0.627899
    10314.595200       0.633699
    10325.245200       0.639466
    10335.917300       0.645199
    10346.611500       0.650897
    10357.327800       0.656559
    10368.066400       0.662185
    10378.827200       0.667774
    10389.610400       0.673325
    10400.416000       0.678839
    10411.244100       0.684313
    10422.094800       0.689748
    10432.968200       0.695143
    10443.864200       0.700497
    10454.783100       0.705811
    10465.724800       0.711082
    10476.689400       0.716312
    10487.677000       0.721499
    10498.687700       0.726642
    10509.721500       0.731742
    10520.778500       0.736798
    10531.858900       0.741809
    10542.962600       0.746775
    10554.089700       0.751696
    10565.240400       0.756571
    10576.414600       0.761400
    10587.612500       0.766183
    10598.834100       0.770919
    10610.079600       0.775607
    10621.348900       0.780248
    10632.642200       0.784841
    10643.959600       0.789386
    10655.301000       0.793883
    10666.666700       0.798331
    10678.056600       0.802730
    10689.470900       0.807080
    10700.909600       0.811381
    10712.372800       0.815632
    10723.860600       0.819833
    10735.373100       0.823985
    10746.910300       0.828087
    10758.472300       0.832138
    10770.059200       0.836139
    10781.671200       0.840089
    10793.308100       0.843988
    10804.970300       0.847838
    10816.657700       0.851636
    10828.370300       0.855383
    10840.108400       0.859079
    10851.871900       0.862725
    10863.661100       0.866319
    10875.475800       0.869862
    10887.316300       0.873354
    10899.182600       0.876795
    10911.074700       0.880185
    10922.992900       0.883524
    10934.937100       0.886811
    10946.907500       0.890048
    10958.904100       0.893233
    10970.927000       0.896368
    10982.976400       0.899451
    10995.052200       0.902484
    11007.154700       0.905466
    11019.283700       0.908397
    11031.439600       0.911278
    11043.622300       0.914108
    11055.832000       0.916888
    11068.068600       0.919617
    11080.332400       0.922297
    11092.623400       0.924926
    11104.941700       0.927506
    11117.287400       0.930036
    11129.660500       0.932516
    11142.061300       0.934947
    11154.489700       0.937329
    11166.945800       0.939662
    11179.429800       0.941946
    11191.941800       0.944181
    11204.481800       0.946369
    11217.049900       0.948507
    11229.646300       0.950598
    11242.270900       0.952641
    11254.924000       0.954637
    11267.605600       0.956585
    11280.315800       0.958487
    11293.054800       0.960341
    11305.822500       0.962149
    11318.619100       0.963910
    11331.444800       0.965626
    11344.299500       0.967295
    11357.183400       0.968920
    11370.096600       0.970498
    11383.039300       0.972032
    11396.011400       0.973521
    11409.013100       0.974966
    11422.044500       0.976367
    11435.105800       0.977723
    11448.196900       0.979037
    11461.318100       0.980306
    11474.469300       0.981533
    11487.650800       0.982717
    11500.862600       0.983859
    11514.104800       0.984959
    11527.377500       0.986017
    11540.680900       0.987034
    11554.015000       0.988009
    11567.380000       0.988944
    11580.775900       0.989838
    11594.202900       0.990692
    11607.661100       0.991507
    11621.150500       0.992281
    11634.671300       0.993017
    11648.223600       0.993713
    11661.807600       0.994371
    11675.423200       0.994991
    11689.070700       0.995573
    11702.750100       0.996118
    11716.461600       0.996625
    11730.205300       0.997095
    11743.981200       0.997529
    11757.789500       0.997926
    11771.630400       0.998288
    11785.503800       0.998614
    11799.410000       0.998904
    11813.349100       0.999160
    11827.321100       0.999381
    11841.326200       0.999568
    11855.364600       0.999721
    11869.436200       0.999840
    11883.541300       0.999926
    11897.680000       0.999980
    11911.852300       1.000000
    11926.058400       0.999988
    11940.298500       0.999944
    11954.572600       0.999869
    11968.880900       0.999762
    11983.223500       0.999624
    11997.600500       0.999456
    12012.012000       0.999257
    12026.458200       0.999028
    12040.939200       0.998770
    12055.455100       0.998482
    12070.006000       0.998164
    12084.592100       0.997818
    12099.213600       0.997444
    12113.870400       0.997041
    12128.562800       0.996611
    12143.290800       0.996152
    12158.054700       0.995667
    12172.854500       0.995155
    12187.690400       0.994615
    12202.562500       0.994050
    12217.471000       0.993458
    12232.415900       0.992841
    12247.397400       0.992198
    12262.415700       0.991529
    12277.470800       0.990836
    12292.563000       0.990118
    12307.692300       0.989376
    12322.858900       0.988609
    12338.062900       0.987819
    12353.304500       0.987005
    12368.583800       0.986167
    12383.900900       0.985307
    12399.256000       0.984424
    12414.649300       0.983518
    12430.080800       0.982590
    12445.550700       0.981640
    12461.059200       0.980668
    12476.606400       0.979674
    12492.192400       0.978659
    12507.817400       0.977623
    12523.481500       0.976566
    12539.185000       0.975489
    12554.927800       0.974391
    12570.710200       0.973273
    12586.532400       0.972135
    12602.394500       0.970977
    12618.296500       0.969800
    12634.238800       0.968603
    12650.221400       0.967388
    12666.244500       0.966153
    12682.308200       0.964900
    12698.412700       0.963629
    12714.558200       0.962339
    12730.744700       0.961031
    12746.972600       0.959706
    12763.241900       0.958362
    12779.552700       0.957002
    12795.905300       0.955624
    12812.299800       0.954228
    12828.736400       0.952816
    12845.215200       0.951388
    12861.736300       0.949942
    12878.300100       0.948480
    12894.906500       0.947002
    12911.555800       0.945508
    12928.248200       0.943998
    12944.983800       0.942472
    12961.762800       0.940931
    12978.585300       0.939374
    12995.451600       0.937802
    13012.361700       0.936215
    13029.316000       0.934612
    13046.314400       0.932995
    13063.357300       0.931364
    13080.444700       0.929717
    13097.576900       0.928056
    13114.754100       0.926381
    13131.976400       0.924692
    13149.243900       0.922989
    13166.556900       0.921272
    13183.915600       0.919541
    13201.320100       0.917796
    13218.770700       0.916038
    13236.267400       0.914267
    13253.810500       0.912482
    13271.400100       0.910684
    13289.036500       0.908872
    13306.719900       0.907048
    13324.450400       0.905211
    13342.228200       0.903362
    13360.053400       0.901499
    13377.926400       0.899624
    13395.847300       0.897737
    13413.816200       0.895837
    13431.833400       0.893925
    13449.899100       0.892000
    13468.013500       0.890064
    13486.176700       0.888116
    13504.388900       0.886155
    13522.650400       0.884183
    13540.961400       0.882200
    13559.322000       0.880204
    13577.732500       0.878197
    13596.193100       0.876179
    13614.703900       0.874149
    13633.265200       0.872108
    13651.877100       0.870055
    13670.540000       0.867991
    13689.253900       0.865917
    13708.019200       0.863831
    13726.836000       0.861734
    13745.704500       0.859627
    13764.624900       0.857508
    13783.597500       0.855379
    13802.622500       0.853239
    13821.700100       0.851089
    13840.830400       0.848928
    13860.013900       0.846756
    13879.250500       0.844575
    13898.540700       0.842382
    13917.884500       0.840180
    13937.282200       0.837967
    13956.734100       0.835745
    13976.240400       0.833512
    13995.801300       0.831269
    14015.417000       0.829017
    14035.087700       0.826754
    14054.813800       0.824481
    14074.595400       0.822199
    14094.432700       0.819908
    14114.326000       0.817606
    14134.275600       0.815295
    14154.281700       0.812974
    14174.344400       0.810645
    14194.464200       0.808305
    14214.641100       0.805957
    14234.875400       0.803599
    14255.167500       0.801232
    14275.517500       0.798856
    14295.925700       0.796470
    14316.392300       0.794076
    14336.917600       0.791673
    14357.501800       0.789261
    14378.145200       0.786840
    14398.848100       0.784411
    14419.610700       0.781973
    14440.433200       0.779526
    14461.316000       0.777071
    14482.259200       0.774607
    14503.263200       0.772135
    14524.328200       0.769655
    14545.454500       0.767166
    14566.642400       0.764669
    14587.892000       0.762164
    14609.203800       0.759651
    14630.577900       0.757131
    14652.014700       0.754602
    14673.514300       0.752066
    14695.077100       0.749521
    14716.703500       0.746969
    14738.393500       0.744410
    14760.147600       0.741843
    14781.966000       0.739269
    14803.849000       0.736687
    14825.796900       0.734099
    14847.809900       0.731503
    14869.888500       0.728900
    14892.032800       0.726290
    14914.243100       0.723673
    14936.519800       0.721049
    14958.863100       0.718419
    14981.273400       0.715782
    15003.750900       0.713139
    15026.296000       0.710489
    15048.909000       0.707833
    15071.590100       0.705170
    15094.339600       0.702502
    15117.158000       0.699827
    15140.045400       0.697147
    15163.002300       0.694461
    15186.028900       0.691769
    15209.125500       0.689071
    15232.292500       0.686368
    15255.530100       0.683659
    15278.838800       0.680946
    15302.218800       0.678227
    15325.670500       0.675502
    15349.194200       0.672773
    15372.790200       0.670040
    15396.458800       0.667301
    15420.200500       0.664558
    15444.015400       0.661810
    15467.904100       0.659058
    15491.866800       0.656302
    15515.903800       0.653541
    15540.015500       0.650777
    15564.202300       0.648008
    15588.464500       0.645236
    15612.802500       0.642460
    15637.216600       0.639681
    15661.707100       0.636899
    15686.274500       0.634113
    15710.919100       0.631324
    15735.641200       0.628532
    15760.441300       0.625737
    15785.319700       0.622939
    15810.276700       0.620139
    15835.312700       0.617337
    15860.428200       0.614532
    15885.623500       0.611725
    15910.899000       0.608916
    15936.255000       0.606105
    15961.691900       0.603292
    15987.210200       0.600478
    16012.810200       0.597662
    16038.492400       0.594845
    16064.257000       0.592027
    16090.104600       0.589207
    16116.035500       0.586387
    16142.050000       0.583566
    16168.148700       0.580745
    16194.332000       0.577923
    16220.600200       0.575101
    16246.953700       0.572278
    16273.393000       0.569456
    16299.918500       0.566634
    16326.530600       0.563812
    16353.229800       0.560990
    16380.016400       0.558169
    16406.890900       0.555349
    16433.853700       0.552530
    16460.905300       0.549711
    16488.046200       0.546894
    16515.276600       0.544078
    16542.597200       0.541264
    16570.008300       0.538452
    16597.510400       0.535641
    16625.103900       0.532832
    16652.789300       0.530025
    16680.567100       0.527221
    16708.437800       0.524418
    16736.401700       0.521619
    16764.459300       0.518822
    16792.611300       0.516028
    16820.857900       0.513236
    16849.199700       0.510448
    16877.637100       0.507663
    16906.170800       0.504882
    16934.801000       0.502104
    16963.528400       0.499330
    16992.353400       0.496559
    17021.276600       0.493793
    17050.298400       0.491031
    17079.419300       0.488273
    17108.639900       0.485519
    17137.960600       0.482770
    17167.382000       0.480025
    17196.904600       0.477285
    17226.528900       0.474550
    17256.255400       0.471820
    17286.084700       0.469095
    17316.017300       0.466376
    17346.053800       0.463662
    17376.194600       0.460953
    17406.440400       0.458250
    17436.791600       0.455553
    17467.248900       0.452862
    17497.812800       0.450177
    17528.483800       0.447497
    17559.262500       0.444824
    17590.149500       0.442158
    17621.145400       0.439497
    17652.250700       0.436844
    17683.466000       0.434196
    17714.791900       0.431556
    17746.228900       0.428922
    17777.777800       0.426296
    17809.439000       0.423676
    17841.213200       0.421063
    17873.101000       0.418458
    17905.103000       0.415859
    17937.219700       0.413268
    17969.451900       0.410685
    18001.800200       0.408109
    18034.265100       0.405540
    18066.847300       0.402979
    18099.547500       0.400426
    18132.366300       0.397880
    18165.304300       0.395342
    18198.362100       0.392812
    18231.540600       0.390290
    18264.840200       0.387776
    18298.261700       0.385269
    18331.805700       0.382771
    18365.472900       0.380281
    18399.264000       0.377799
    18433.179700       0.375324
    18467.220700       0.372858
    18501.387600       0.370400
    18535.681200       0.367950
    18570.102100       0.365509
    18604.651200       0.363075
    18639.329000       0.360650
    18674.136300       0.358233
    18709.073900       0.355824
    18744.142500       0.353423
    18779.342700       0.351030
    18814.675400       0.348645
    18850.141400       0.346269
    18885.741300       0.343900
    18921.475900       0.341540
    18957.346000       0.339187
    18993.352300       0.336842
    19029.495700       0.334506
    19065.776900       0.332177
    19102.196800       0.329856
    19138.756000       0.327543
    19175.455400       0.325238
    19212.295900       0.322940
    19249.278200       0.320650
    19286.403100       0.318367
    19323.671500       0.316092
    19361.084200       0.313824
    19398.642100       0.311563
    19436.346000       0.309310
    19474.196700       0.307063
    19512.195100       0.304824
    19550.342100       0.302591
    19588.638600       0.300365
    19627.085400       0.298146
    19665.683400       0.295934
    19704.433500       0.293728
    19743.336600       0.291528
    19782.393700       0.289334
    19821.605600       0.287146
    19860.973200       0.284965
    19900.497500       0.282789
    19940.179500       0.280619
    19980.020000       0.278454
    20020.020000       0.276295
    20060.180500       0.274140
    20100.502500       0.271991
    20140.986900       0.269847
    20181.634700       0.267707
    20222.446900       0.265572
    20263.424500       0.263441
    20304.568500       0.261315
    20345.880000       0.259192
    20387.359800       0.257074
    20429.009200       0.254959
    20470.829100       0.252847
    20512.820500       0.250739
    20554.984600       0.248633
    20597.322300       0.246531
    20639.834900       0.244431
    20682.523300       0.242334
    20725.388600       0.240240
    20768.432000       0.238147
    20811.654500       0.236056
    20855.057400       0.233967
    20898.641600       0.231879
    20942.408400       0.229792
    20986.358900       0.227707
    21030.494200       0.225622
    21074.815600       0.223538
    21119.324200       0.221455
    21164.021200       0.219371
    21208.907700       0.217288
    21253.985100       0.215204
    21299.254500       0.213120
    21344.717200       0.211035
    21390.374300       0.208949
    21436.227200       0.206862
    21482.277100       0.204774
    21528.525300       0.202684
    21574.973000       0.200592
    21621.621600       0.198499
    21668.472400       0.196403
    21715.526600       0.194305
    21762.785600       0.192204
    21810.250800       0.190100
    21857.923500       0.187993
    21905.805000       0.185883
    21953.896800       0.183770
    22002.200200       0.181653
    22050.716600       0.179532
    22099.447500       0.177407
    22148.394200       0.175277
    22197.558300       0.173144
    22246.941000       0.171005
    22296.544000       0.168862
    22346.368700       0.166714
    22396.416600       0.164561
    22446.689100       0.162403
    22497.187900       0.160239
    22547.914300       0.158070
    22598.870100       0.155895
    22650.056600       0.153714
    22701.475600       0.151527
    22753.128600       0.149334
    22805.017100       0.147134
    22857.142900       0.144929
    22909.507400       0.142717
    22962.112500       0.140498
    23014.959700       0.138273
    23068.050700       0.136041
    23121.387300       0.133803
    23174.971000       0.131558
    23228.803700       0.129305
    23282.887100       0.127047
    23337.222900       0.124781
    23391.812900       0.122508
    23446.658900       0.120228
    23501.762600       0.117942
    23557.126000       0.115648
    23612.750900       0.113348
    23668.639100       0.111041
    23724.792400       0.108728
    23781.212800       0.106408
    23837.902300       0.104081
    23894.862600       0.101748
    23952.095800       0.099409
    24009.603800       0.097063
    24067.388700       0.094712
    24125.452400       0.092355
    24183.796900       0.089992
    24242.424200       0.087624
    24301.336600       0.085251
    24360.535900       0.082873
    24420.024400       0.080491
    24479.804200       0.078104
    24539.877300       0.075713
    24600.246000       0.073319
    24660.912500       0.070921
    24721.878900       0.068520
    24783.147500       0.066117
    24844.720500       0.063712
    24906.600200       0.061304
    24968.789000       0.058896
    25031.289100       0.056487
    25094.102900       0.054078
    25157.232700       0.051670
    25220.681000       0.049262
    25284.450100       0.046855
    25348.542500       0.044451
    25412.960600       0.042050
    25477.707000       0.039652
