12,   channel 12 SRF from file SRF_SSH-1_Delivery_220520/SRF_DMSP-F1_SSH_Chan12.asc received June 2022 from SPASCIA
Number of data points:
247
Wavenumber (cm-1)   Filter response
      695.800000       0.000910
      695.900000       0.001020
      696.000000       0.001140
      696.100000       0.001280
      696.200000       0.001430
      696.300000       0.001590
      696.400000       0.001780
      696.500000       0.001980
      696.600000       0.002200
      696.700000       0.002450
      696.800000       0.002720
      696.900000       0.003020
      697.000000       0.003350
      697.100000       0.003710
      697.200000       0.004100
      697.300000       0.004530
      697.400000       0.005010
      697.500000       0.005530
      697.600000       0.006090
      697.700000       0.006710
      697.800000       0.007390
      697.900000       0.008120
      698.000000       0.008920
      698.100000       0.009790
      698.200000       0.010740
      698.300000       0.011760
      698.400000       0.012870
      698.500000       0.014070
      698.600000       0.015370
      698.700000       0.016780
      698.800000       0.018290
      698.900000       0.019930
      699.000000       0.021690
      699.100000       0.023580
      699.200000       0.025620
      699.300000       0.027810
      699.400000       0.030150
      699.500000       0.032660
      699.600000       0.035350
      699.700000       0.038230
      699.800000       0.041300
      699.900000       0.044570
      700.000000       0.048060
      700.100000       0.051780
      700.200000       0.055730
      700.300000       0.059930
      700.400000       0.064390
      700.500000       0.069110
      700.600000       0.074110
      700.700000       0.079400
      700.800000       0.084980
      700.900000       0.090880
      701.000000       0.097100
      701.100000       0.107720
      701.200000       0.122250
      701.300000       0.137440
      701.400000       0.153260
      701.500000       0.169710
      701.600000       0.186770
      701.700000       0.204440
      701.800000       0.222680
      701.900000       0.241470
      702.000000       0.260800
      702.100000       0.280640
      702.200000       0.300950
      702.300000       0.321700
      702.400000       0.342860
      702.500000       0.364390
      702.600000       0.386240
      702.700000       0.408380
      702.800000       0.430760
      702.900000       0.453330
      703.000000       0.476050
      703.100000       0.498860
      703.200000       0.513230
      703.300000       0.527250
      703.400000       0.541350
      703.500000       0.555520
      703.600000       0.569740
      703.700000       0.584000
      703.800000       0.598290
      703.900000       0.612590
      704.000000       0.626880
      704.100000       0.641140
      704.200000       0.655370
      704.300000       0.669540
      704.400000       0.683640
      704.500000       0.697640
      704.600000       0.711540
      704.700000       0.725310
      704.800000       0.738940
      704.900000       0.752400
      705.000000       0.765690
      705.100000       0.778780
      705.200000       0.791650
      705.300000       0.804280
      705.400000       0.816660
      705.500000       0.828780
      705.600000       0.840600
      705.700000       0.852130
      705.800000       0.863330
      705.900000       0.874190
      706.000000       0.884690
      706.100000       0.894830
      706.200000       0.904570
      706.300000       0.913920
      706.400000       0.922850
      706.500000       0.931350
      706.600000       0.939410
      706.700000       0.947000
      706.800000       0.954130
      706.900000       0.960780
      707.000000       0.966940
      707.100000       0.972600
      707.200000       0.977750
      707.300000       0.982380
      707.400000       0.986480
      707.500000       0.990050
      707.600000       0.993080
      707.700000       0.995560
      707.800000       0.997500
      707.900000       0.998890
      708.000000       0.999720
      708.100000       1.000000
      708.200000       0.999720
      708.300000       0.998890
      708.400000       0.997500
      708.500000       0.995560
      708.600000       0.993080
      708.700000       0.990050
      708.800000       0.986480
      708.900000       0.982380
      709.000000       0.977750
      709.100000       0.972600
      709.200000       0.966940
      709.300000       0.960780
      709.400000       0.954130
      709.500000       0.947000
      709.600000       0.939410
      709.700000       0.931350
      709.800000       0.922850
      709.900000       0.913920
      710.000000       0.904570
      710.100000       0.894830
      710.200000       0.884690
      710.300000       0.874190
      710.400000       0.863330
      710.500000       0.852130
      710.600000       0.840600
      710.700000       0.828780
      710.800000       0.816660
      710.900000       0.804280
      711.000000       0.791650
      711.100000       0.778780
      711.200000       0.765690
      711.300000       0.752400
      711.400000       0.738940
      711.500000       0.725310
      711.600000       0.711540
      711.700000       0.697640
      711.800000       0.683640
      711.900000       0.669540
      712.000000       0.655370
      712.100000       0.641140
      712.200000       0.626880
      712.300000       0.612590
      712.400000       0.598290
      712.500000       0.584000
      712.600000       0.569740
      712.700000       0.555520
      712.800000       0.541350
      712.900000       0.527250
      713.000000       0.513230
      713.100000       0.498860
      713.200000       0.476050
      713.300000       0.453330
      713.400000       0.430760
      713.500000       0.408380
      713.600000       0.386240
      713.700000       0.364390
      713.800000       0.342860
      713.900000       0.321700
      714.000000       0.300950
      714.100000       0.280640
      714.200000       0.260800
      714.300000       0.241470
      714.400000       0.222680
      714.500000       0.204440
      714.600000       0.186770
      714.700000       0.169710
      714.800000       0.153260
      714.900000       0.137440
      715.000000       0.122250
      715.100000       0.107720
      715.200000       0.097100
      715.300000       0.090880
      715.400000       0.084980
      715.500000       0.079400
      715.600000       0.074110
      715.700000       0.069110
      715.800000       0.064390
      715.900000       0.059930
      716.000000       0.055730
      716.100000       0.051780
      716.200000       0.048060
      716.300000       0.044570
      716.400000       0.041300
      716.500000       0.038230
      716.600000       0.035350
      716.700000       0.032660
      716.800000       0.030150
      716.900000       0.027810
      717.000000       0.025620
      717.100000       0.023580
      717.200000       0.021690
      717.300000       0.019930
      717.400000       0.018290
      717.500000       0.016780
      717.600000       0.015370
      717.700000       0.014070
      717.800000       0.012870
      717.900000       0.011760
      718.000000       0.010740
      718.100000       0.009790
      718.200000       0.008920
      718.300000       0.008120
      718.400000       0.007390
      718.500000       0.006710
      718.600000       0.006090
      718.700000       0.005530
      718.800000       0.005010
      718.900000       0.004530
      719.000000       0.004100
      719.100000       0.003710
      719.200000       0.003350
      719.300000       0.003020
      719.400000       0.002720
      719.500000       0.002450
      719.600000       0.002200
      719.700000       0.001980
      719.800000       0.001780
      719.900000       0.001590
      720.000000       0.001430
      720.100000       0.001280
      720.200000       0.001140
      720.300000       0.001020
      720.400000       0.000910
