  5   ,FY1D 2B-CH5
Number of data points:
150
Wavenumber (cm-1)   Filter response
      702.000000       0.000794
      704.000000       0.000599
      706.000000       0.000296
      708.000000       0.000120
      710.000000       0.000553
      712.000000       0.000530
      714.000000       0.000465
      716.000000       0.000558
      718.000000       0.000665
      720.000000       0.000769
      722.000000       0.000873
      724.000000       0.000982
      726.000000       0.001118
      728.000000       0.001373
      730.000000       0.001515
      732.000000       0.001357
      734.000000       0.001309
      736.000000       0.001481
      738.000000       0.001171
      740.000000       0.000168
      742.000000       0.001004
      744.000000       0.002357
      746.000000       0.001614
      748.000000       0.000767
      750.000000       0.003091
      752.000000       0.005408
      754.000000       0.006247
      756.000000       0.006392
      758.000000       0.007466
      760.000000       0.008892
      762.000000       0.011485
      764.000000       0.014337
      766.000000       0.018327
      768.000000       0.022635
      770.000000       0.028714
      772.000000       0.035801
      774.000000       0.047073
      776.000000       0.059930
      778.000000       0.077091
      780.000000       0.095828
      782.000000       0.118337
      784.000000       0.144795
      786.000000       0.180642
      788.000000       0.221868
      790.000000       0.272847
      792.000000       0.324499
      794.000000       0.380341
      796.000000       0.433427
      798.000000       0.482703
      800.000000       0.522125
      802.000000       0.552258
      804.000000       0.569294
      806.000000       0.577126
      808.000000       0.578715
      810.000000       0.577171
      812.000000       0.578657
      814.000000       0.581279
      816.000000       0.581987
      818.000000       0.582053
      820.000000       0.570523
      822.000000       0.557785
      824.000000       0.548552
      826.000000       0.543128
      828.000000       0.556270
      830.000000       0.573465
      832.000000       0.603301
      834.000000       0.632030
      836.000000       0.657216
      838.000000       0.681122
      840.000000       0.702055
      842.000000       0.725298
      844.000000       0.755738
      846.000000       0.791385
      848.000000       0.836080
      850.000000       0.880336
      852.000000       0.923998
      854.000000       0.957978
      856.000000       0.982132
      858.000000       0.995368
      860.000000       1.000000
      862.000000       0.995753
      864.000000       0.985837
      866.000000       0.959702
      868.000000       0.927081
      870.000000       0.876868
      872.000000       0.821388
      874.000000       0.760483
      876.000000       0.698491
      878.000000       0.639195
      880.000000       0.581279
      882.000000       0.527024
      884.000000       0.474631
      886.000000       0.431272
      888.000000       0.390465
      890.000000       0.361826
      892.000000       0.333227
      894.000000       0.304747
      896.000000       0.276197
      898.000000       0.248478
      900.000000       0.224185
      902.000000       0.208576
      904.000000       0.194318
      906.000000       0.182057
      908.000000       0.167551
      910.000000       0.150560
      912.000000       0.135923
      914.000000       0.123430
      916.000000       0.113125
      918.000000       0.104311
      920.000000       0.095625
      922.000000       0.087003
      924.000000       0.080476
      926.000000       0.074598
      928.000000       0.070304
      930.000000       0.066326
      932.000000       0.062636
      934.000000       0.059010
      936.000000       0.055540
      938.000000       0.052278
      940.000000       0.049574
      942.000000       0.047148
      944.000000       0.045187
      946.000000       0.043296
      948.000000       0.041436
      950.000000       0.039761
      952.000000       0.038552
      954.000000       0.037545
      956.000000       0.036811
      958.000000       0.036163
      960.000000       0.035603
      962.000000       0.035041
      964.000000       0.034417
      966.000000       0.033598
      968.000000       0.032612
      970.000000       0.031588
      972.000000       0.030536
      974.000000       0.029480
      976.000000       0.028431
      978.000000       0.027447
      980.000000       0.026483
      982.000000       0.025107
      984.000000       0.023516
      986.000000       0.021281
      988.000000       0.018965
      990.000000       0.017353
      992.000000       0.016044
      994.000000       0.015316
      996.000000       0.014589
      998.000000       0.013468
     1000.000000       0.012342
