77,   77, MVIRI VIS channel from srf_MET2_1991258_1991259_1801-Release_S10EL_10.dat
Number of data points:
730
Wavenumber (cm-1)   Filter response
     8916.629500       0.000000
     8924.587200       0.000000
     8932.559200       0.000002
     8940.545400       0.000012
     8948.545900       0.000033
     8956.560700       0.000070
     8964.589900       0.000128
     8972.633500       0.000212
     8980.691500       0.000324
     8988.764000       0.000469
     8996.851100       0.000651
     9004.952700       0.000873
     9013.068900       0.001139
     9021.199800       0.001451
     9029.345400       0.001814
     9037.505600       0.002229
     9045.680700       0.002700
     9053.870500       0.003229
     9062.075200       0.003820
     9070.294800       0.004474
     9078.529300       0.005193
     9086.778700       0.005980
     9095.043200       0.006836
     9103.322700       0.007764
     9111.617300       0.008766
     9119.927000       0.009842
     9128.251900       0.010995
     9136.592100       0.012226
     9144.947400       0.013536
     9153.318100       0.014926
     9161.704100       0.016398
     9170.105500       0.017953
     9178.522300       0.019592
     9186.954500       0.021314
     9195.402300       0.023122
     9203.865600       0.025015
     9212.344500       0.026994
     9220.839100       0.029061
     9229.349300       0.031214
     9237.875300       0.033455
     9246.417000       0.035783
     9254.974500       0.038199
     9263.547900       0.040703
     9272.137200       0.043295
     9280.742500       0.045975
     9289.363700       0.048742
     9298.000900       0.051597
     9306.654300       0.054540
     9315.323700       0.057569
     9324.009300       0.060685
     9332.711200       0.063887
     9341.429200       0.067174
     9350.163600       0.070547
     9358.914400       0.074005
     9367.681500       0.077546
     9376.465100       0.081171
     9385.265100       0.084878
     9394.081700       0.088667
     9402.914900       0.092536
     9411.764700       0.096487
     9420.631200       0.100516
     9429.514400       0.104623
     9438.414300       0.108808
     9447.331100       0.113069
     9456.264800       0.117406
     9465.215300       0.121817
     9474.182900       0.126301
     9483.167400       0.130857
     9492.169000       0.135483
     9501.187600       0.140180
     9510.223500       0.144946
     9519.276500       0.149778
     9528.346800       0.154676
     9537.434400       0.159640
     9546.539400       0.164667
     9555.661700       0.169756
     9564.801500       0.174906
     9573.958800       0.180115
     9583.133700       0.185383
     9592.326100       0.190708
     9601.536200       0.196088
     9610.764100       0.201522
     9620.009600       0.207009
     9629.273000       0.212548
     9638.554200       0.218135
     9647.853400       0.223772
     9657.170400       0.229455
     9666.505600       0.235185
     9675.858700       0.240958
     9685.230000       0.246774
     9694.619500       0.252632
     9704.027200       0.258528
     9713.453100       0.264464
     9722.897400       0.270436
     9732.360100       0.276443
     9741.841200       0.282485
     9751.340800       0.288559
     9760.859000       0.294664
     9770.395700       0.300799
     9779.951100       0.306961
     9789.525200       0.313151
     9799.118100       0.319366
     9808.729800       0.325604
     9818.360300       0.331865
     9828.009800       0.338146
     9837.678300       0.344447
     9847.365800       0.350767
     9857.072400       0.357102
     9866.798200       0.363454
     9876.543200       0.369819
     9886.307500       0.376196
     9896.091000       0.382585
     9905.894000       0.388983
     9915.716400       0.395391
     9925.558300       0.401804
     9935.419800       0.408224
     9945.300800       0.414648
     9955.201600       0.421075
     9965.122100       0.427504
     9975.062300       0.433933
     9985.022500       0.440362
     9995.002500       0.446789
    10005.002500       0.453212
    10015.022500       0.459631
    10025.062700       0.466044
    10035.122900       0.472450
    10045.203400       0.478848
    10055.304200       0.485237
    10065.425300       0.491615
    10075.566800       0.497981
    10085.728700       0.504335
    10095.911200       0.510675
    10106.114200       0.517000
    10116.337900       0.523309
    10126.582300       0.529601
    10136.847400       0.535874
    10147.133400       0.542129
    10157.440300       0.548363
    10167.768200       0.554575
    10178.117000       0.560766
    10188.487000       0.566933
    10198.878100       0.573076
    10209.290500       0.579194
    10219.724100       0.585286
    10230.179000       0.591351
    10240.655400       0.597388
    10251.153300       0.603397
    10261.672700       0.609375
    10272.213700       0.615324
    10282.776300       0.621241
    10293.360800       0.627126
    10303.967000       0.632978
    10314.595200       0.638797
    10325.245200       0.644581
    10335.917300       0.650330
    10346.611500       0.656043
    10357.327800       0.661720
    10368.066400       0.667360
    10378.827200       0.672961
    10389.610400       0.678524
    10400.416000       0.684048
    10411.244100       0.689532
    10422.094800       0.694976
    10432.968200       0.700379
    10443.864200       0.705740
    10454.783100       0.711059
    10465.724800       0.716335
    10476.689400       0.721568
    10487.677000       0.726758
    10498.687700       0.731904
    10509.721500       0.737004
    10520.778500       0.742060
    10531.858900       0.747070
    10542.962600       0.752034
    10554.089700       0.756952
    10565.240400       0.761823
    10576.414600       0.766647
    10587.612500       0.771423
    10598.834100       0.776152
    10610.079600       0.780832
    10621.348900       0.785464
    10632.642200       0.790047
    10643.959600       0.794582
    10655.301000       0.799066
    10666.666700       0.803501
    10678.056600       0.807886
    10689.470900       0.812221
    10700.909600       0.816506
    10712.372800       0.820740
    10723.860600       0.824924
    10735.373100       0.829057
    10746.910300       0.833138
    10758.472300       0.837169
    10770.059200       0.841148
    10781.671200       0.845075
    10793.308100       0.848951
    10804.970300       0.852776
    10816.657700       0.856549
    10828.370300       0.860269
    10840.108400       0.863938
    10851.871900       0.867555
    10863.661100       0.871120
    10875.475800       0.874633
    10887.316300       0.878094
    10899.182600       0.881503
    10911.074700       0.884860
    10922.992900       0.888164
    10934.937100       0.891417
    10946.907500       0.894618
    10958.904100       0.897767
    10970.927000       0.900864
    10982.976400       0.903909
    10995.052200       0.906903
    11007.154700       0.909845
    11019.283700       0.912735
    11031.439600       0.915574
    11043.622300       0.918361
    11055.832000       0.921098
    11068.068600       0.923783
    11080.332400       0.926417
    11092.623400       0.929001
    11104.941700       0.931534
    11117.287400       0.934016
    11129.660500       0.936448
    11142.061300       0.938830
    11154.489700       0.941162
    11166.945800       0.943444
    11179.429800       0.945677
    11191.941800       0.947860
    11204.481800       0.949994
    11217.049900       0.952079
    11229.646300       0.954115
    11242.270900       0.956103
    11254.924000       0.958043
    11267.605600       0.959934
    11280.315800       0.961778
    11293.054800       0.963574
    11305.822500       0.965323
    11318.619100       0.967025
    11331.444800       0.968680
    11344.299500       0.970289
    11357.183400       0.971851
    11370.096600       0.973368
    11383.039300       0.974839
    11396.011400       0.976264
    11409.013100       0.977644
    11422.044500       0.978980
    11435.105800       0.980271
    11448.196900       0.981518
    11461.318100       0.982721
    11474.469300       0.983881
    11487.650800       0.984997
    11500.862600       0.986070
    11514.104800       0.987101
    11527.377500       0.988089
    11540.680900       0.989035
    11554.015000       0.989940
    11567.380000       0.990803
    11580.775900       0.991625
    11594.202900       0.992406
    11607.661100       0.993147
    11621.150500       0.993848
    11634.671300       0.994509
    11648.223600       0.995131
    11661.807600       0.995714
    11675.423200       0.996258
    11689.070700       0.996764
    11702.750100       0.997231
    11716.461600       0.997661
    11730.205300       0.998054
    11743.981200       0.998409
    11757.789500       0.998728
    11771.630400       0.999010
    11785.503800       0.999257
    11799.410000       0.999467
    11813.349100       0.999642
    11827.321100       0.999783
    11841.326200       0.999888
    11855.364600       0.999959
    11869.436200       0.999997
    11883.541300       1.000000
    11897.680000       0.999970
    11911.852300       0.999907
    11926.058400       0.999812
    11940.298500       0.999684
    11954.572600       0.999524
    11968.880900       0.999332
    11983.223500       0.999109
    11997.600500       0.998855
    12012.012000       0.998570
    12026.458200       0.998255
    12040.939200       0.997910
    12055.455100       0.997534
    12070.006000       0.997130
    12084.592100       0.996696
    12099.213600       0.996234
    12113.870400       0.995743
    12128.562800       0.995224
    12143.290800       0.994677
    12158.054700       0.994102
    12172.854500       0.993500
    12187.690400       0.992871
    12202.562500       0.992216
    12217.471000       0.991534
    12232.415900       0.990826
    12247.397400       0.990092
    12262.415700       0.989333
    12277.470800       0.988548
    12292.563000       0.987738
    12307.692300       0.986904
    12322.858900       0.986046
    12338.062900       0.985163
    12353.304500       0.984257
    12368.583800       0.983326
    12383.900900       0.982373
    12399.256000       0.981397
    12414.649300       0.980398
    12430.080800       0.979376
    12445.550700       0.978332
    12461.059200       0.977266
    12476.606400       0.976178
    12492.192400       0.975069
    12507.817400       0.973939
    12523.481500       0.972787
    12539.185000       0.971615
    12554.927800       0.970422
    12570.710200       0.969209
    12586.532400       0.967976
    12602.394500       0.966723
    12618.296500       0.965450
    12634.238800       0.964158
    12650.221400       0.962846
    12666.244500       0.961516
    12682.308200       0.960167
    12698.412700       0.958799
    12714.558200       0.957413
    12730.744700       0.956009
    12746.972600       0.954587
    12763.241900       0.953147
    12779.552700       0.951690
    12795.905300       0.950215
    12812.299800       0.948723
    12828.736400       0.947214
    12845.215200       0.945688
    12861.736300       0.944145
    12878.300100       0.942586
    12894.906500       0.941011
    12911.555800       0.939420
    12928.248200       0.937812
    12944.983800       0.936189
    12961.762800       0.934550
    12978.585300       0.932896
    12995.451600       0.931227
    13012.361700       0.929542
    13029.316000       0.927842
    13046.314400       0.926127
    13063.357300       0.924398
    13080.444700       0.922654
    13097.576900       0.920896
    13114.754100       0.919123
    13131.976400       0.917336
    13149.243900       0.915535
    13166.556900       0.913720
    13183.915600       0.911892
    13201.320100       0.910050
    13218.770700       0.908194
    13236.267400       0.906325
    13253.810500       0.904442
    13271.400100       0.902547
    13289.036500       0.900638
    13306.719900       0.898717
    13324.450400       0.896783
    13342.228200       0.894835
    13360.053400       0.892876
    13377.926400       0.890904
    13395.847300       0.888919
    13413.816200       0.886922
    13431.833400       0.884913
    13449.899100       0.882892
    13468.013500       0.880859
    13486.176700       0.878814
    13504.388900       0.876757
    13522.650400       0.874689
    13540.961400       0.872609
    13559.322000       0.870517
    13577.732500       0.868414
    13596.193100       0.866299
    13614.703900       0.864173
    13633.265200       0.862036
    13651.877100       0.859888
    13670.540000       0.857729
    13689.253900       0.855559
    13708.019200       0.853378
    13726.836000       0.851187
    13745.704500       0.848984
    13764.624900       0.846771
    13783.597500       0.844547
    13802.622500       0.842313
    13821.700100       0.840069
    13840.830400       0.837814
    13860.013900       0.835549
    13879.250500       0.833274
    13898.540700       0.830988
    13917.884500       0.828693
    13937.282200       0.826387
    13956.734100       0.824072
    13976.240400       0.821747
    13995.801300       0.819412
    14015.417000       0.817067
    14035.087700       0.814713
    14054.813800       0.812349
    14074.595400       0.809976
    14094.432700       0.807593
    14114.326000       0.805201
    14134.275600       0.802799
    14154.281700       0.800389
    14174.344400       0.797969
    14194.464200       0.795540
    14214.641100       0.793102
    14234.875400       0.790655
    14255.167500       0.788200
    14275.517500       0.785735
    14295.925700       0.783262
    14316.392300       0.780780
    14336.917600       0.778290
    14357.501800       0.775791
    14378.145200       0.773284
    14398.848100       0.770768
    14419.610700       0.768244
    14440.433200       0.765712
    14461.316000       0.763171
    14482.259200       0.760623
    14503.263200       0.758066
    14524.328200       0.755502
    14545.454500       0.752930
    14566.642400       0.750350
    14587.892000       0.747762
    14609.203800       0.745167
    14630.577900       0.742564
    14652.014700       0.739954
    14673.514300       0.737336
    14695.077100       0.734711
    14716.703500       0.732079
    14738.393500       0.729440
    14760.147600       0.726794
    14781.966000       0.724141
    14803.849000       0.721481
    14825.796900       0.718814
    14847.809900       0.716141
    14869.888500       0.713461
    14892.032800       0.710774
    14914.243100       0.708081
    14936.519800       0.705382
    14958.863100       0.702677
    14981.273400       0.699965
    15003.750900       0.697248
    15026.296000       0.694525
    15048.909000       0.691796
    15071.590100       0.689061
    15094.339600       0.686320
    15117.158000       0.683574
    15140.045400       0.680823
    15163.002300       0.678067
    15186.028900       0.675305
    15209.125500       0.672538
    15232.292500       0.669767
    15255.530100       0.666990
    15278.838800       0.664209
    15302.218800       0.661423
    15325.670500       0.658633
    15349.194200       0.655838
    15372.790200       0.653040
    15396.458800       0.650237
    15420.200500       0.647430
    15444.015400       0.644619
    15467.904100       0.641804
    15491.866800       0.638986
    15515.903800       0.636164
    15540.015500       0.633339
    15564.202300       0.630510
    15588.464500       0.627679
    15612.802500       0.624845
    15637.216600       0.622007
    15661.707100       0.619167
    15686.274500       0.616324
    15710.919100       0.613479
    15735.641200       0.610632
    15760.441300       0.607782
    15785.319700       0.604931
    15810.276700       0.602077
    15835.312700       0.599222
    15860.428200       0.596365
    15885.623500       0.593506
    15910.899000       0.590647
    15936.255000       0.587786
    15961.691900       0.584924
    15987.210200       0.582061
    16012.810200       0.579197
    16038.492400       0.576333
    16064.257000       0.573468
    16090.104600       0.570603
    16116.035500       0.567737
    16142.050000       0.564872
    16168.148700       0.562007
    16194.332000       0.559142
    16220.600200       0.556277
    16246.953700       0.553413
    16273.393000       0.550550
    16299.918500       0.547688
    16326.530600       0.544826
    16353.229800       0.541966
    16380.016400       0.539107
    16406.890900       0.536250
    16433.853700       0.533394
    16460.905300       0.530540
    16488.046200       0.527688
    16515.276600       0.524838
    16542.597200       0.521990
    16570.008300       0.519145
    16597.510400       0.516302
    16625.103900       0.513461
    16652.789300       0.510624
    16680.567100       0.507789
    16708.437800       0.504958
    16736.401700       0.502130
    16764.459300       0.499305
    16792.611300       0.496484
    16820.857900       0.493666
    16849.199700       0.490853
    16877.637100       0.488043
    16906.170800       0.485237
    16934.801000       0.482436
    16963.528400       0.479639
    16992.353400       0.476847
    17021.276600       0.474059
    17050.298400       0.471276
    17079.419300       0.468498
    17108.639900       0.465725
    17137.960600       0.462958
    17167.382000       0.460195
    17196.904600       0.457438
    17226.528900       0.454687
    17256.255400       0.451942
    17286.084700       0.449202
    17316.017300       0.446469
    17346.053800       0.443741
    17376.194600       0.441020
    17406.440400       0.438305
    17436.791600       0.435596
    17467.248900       0.432894
    17497.812800       0.430199
    17528.483800       0.427511
    17559.262500       0.424829
    17590.149500       0.422154
    17621.145400       0.419487
    17652.250700       0.416827
    17683.466000       0.414174
    17714.791900       0.411528
    17746.228900       0.408890
    17777.777800       0.406259
    17809.439000       0.403636
    17841.213200       0.401021
    17873.101000       0.398414
    17905.103000       0.395814
    17937.219700       0.393223
    17969.451900       0.390639
    18001.800200       0.388064
    18034.265100       0.385497
    18066.847300       0.382938
    18099.547500       0.380387
    18132.366300       0.377845
    18165.304300       0.375311
    18198.362100       0.372786
    18231.540600       0.370269
    18264.840200       0.367761
    18298.261700       0.365261
    18331.805700       0.362770
    18365.472900       0.360288
    18399.264000       0.357814
    18433.179700       0.355349
    18467.220700       0.352893
    18501.387600       0.350445
    18535.681200       0.348006
    18570.102100       0.345576
    18604.651200       0.343155
    18639.329000       0.340743
    18674.136300       0.338339
    18709.073900       0.335944
    18744.142500       0.333558
    18779.342700       0.331181
    18814.675400       0.328813
    18850.141400       0.326453
    18885.741300       0.324102
    18921.475900       0.321759
    18957.346000       0.319426
    18993.352300       0.317100
    19029.495700       0.314784
    19065.776900       0.312476
    19102.196800       0.310176
    19138.756000       0.307885
    19175.455400       0.305603
    19212.295900       0.303328
    19249.278200       0.301062
    19286.403100       0.298804
    19323.671500       0.296554
    19361.084200       0.294312
    19398.642100       0.292078
    19436.346000       0.289853
    19474.196700       0.287634
    19512.195100       0.285424
    19550.342100       0.283221
    19588.638600       0.281026
    19627.085400       0.278838
    19665.683400       0.276657
    19704.433500       0.274483
    19743.336600       0.272317
    19782.393700       0.270158
    19821.605600       0.268005
    19860.973200       0.265859
    19900.497500       0.263720
    19940.179500       0.261587
    19980.020000       0.259461
    20020.020000       0.257340
    20060.180500       0.255226
    20100.502500       0.253118
    20140.986900       0.251015
    20181.634700       0.248918
    20222.446900       0.246827
    20263.424500       0.244741
    20304.568500       0.242660
    20345.880000       0.240584
    20387.359800       0.238513
    20429.009200       0.236446
    20470.829100       0.234384
    20512.820500       0.232326
    20554.984600       0.230273
    20597.322300       0.228223
    20639.834900       0.226177
    20682.523300       0.224135
    20725.388600       0.222096
    20768.432000       0.220061
    20811.654500       0.218029
    20855.057400       0.215999
    20898.641600       0.213972
    20942.408400       0.211948
    20986.358900       0.209926
    21030.494200       0.207906
    21074.815600       0.205889
    21119.324200       0.203873
    21164.021200       0.201858
    21208.907700       0.199845
    21253.985100       0.197833
    21299.254500       0.195822
    21344.717200       0.193812
    21390.374300       0.191803
    21436.227200       0.189794
    21482.277100       0.187785
    21528.525300       0.185776
    21574.973000       0.183767
    21621.621600       0.181758
    21668.472400       0.179749
    21715.526600       0.177739
    21762.785600       0.175727
    21810.250800       0.173715
    21857.923500       0.171702
    21905.805000       0.169687
    21953.896800       0.167671
    22002.200200       0.165653
    22050.716600       0.163633
    22099.447500       0.161612
    22148.394200       0.159588
    22197.558300       0.157561
    22246.941000       0.155533
    22296.544000       0.153501
    22346.368700       0.151467
    22396.416600       0.149430
    22446.689100       0.147390
    22497.187900       0.145347
    22547.914300       0.143301
    22598.870100       0.141251
    22650.056600       0.139198
    22701.475600       0.137141
    22753.128600       0.135081
    22805.017100       0.133017
    22857.142900       0.130949
    22909.507400       0.128877
    22962.112500       0.126802
    23014.959700       0.124722
    23068.050700       0.122638
    23121.387300       0.120551
    23174.971000       0.118459
    23228.803700       0.116363
    23282.887100       0.114263
    23337.222900       0.112159
    23391.812900       0.110051
    23446.658900       0.107939
    23501.762600       0.105823
    23557.126000       0.103703
    23612.750900       0.101579
    23668.639100       0.099452
    23724.792400       0.097321
    23781.212800       0.095186
    23837.902300       0.093047
    23894.862600       0.090905
    23952.095800       0.088760
    24009.603800       0.086612
    24067.388700       0.084461
    24125.452400       0.082307
    24183.796900       0.080151
    24242.424200       0.077992
    24301.336600       0.075832
    24360.535900       0.073669
    24420.024400       0.071505
    24479.804200       0.069340
    24539.877300       0.067173
    24600.246000       0.065007
    24660.912500       0.062839
    24721.878900       0.060672
    24783.147500       0.058505
    24844.720500       0.056339
    24906.600200       0.054174
    24968.789000       0.052011
    25031.289100       0.049850
    25094.102900       0.047692
    25157.232700       0.045537
    25220.681000       0.043385
    25284.450100       0.041237
    25348.542500       0.039094
    25412.960600       0.036956
    25477.707000       0.034825
