56,   56, MVIRI VIS channel from srf_MET2_1989033_1989034_1801-Release_S10EL_10.dat
Number of data points:
730
Wavenumber (cm-1)   Filter response
     8916.629500       0.000000
     8924.587200       0.000000
     8932.559200       0.000002
     8940.545400       0.000012
     8948.545900       0.000032
     8956.560700       0.000070
     8964.589900       0.000127
     8972.633500       0.000210
     8980.691500       0.000321
     8988.764000       0.000465
     8996.851100       0.000645
     9004.952700       0.000865
     9013.068900       0.001128
     9021.199800       0.001438
     9029.345400       0.001797
     9037.505600       0.002209
     9045.680700       0.002676
     9053.870500       0.003200
     9062.075200       0.003786
     9070.294800       0.004434
     9078.529300       0.005146
     9086.778700       0.005926
     9095.043200       0.006775
     9103.322700       0.007695
     9111.617300       0.008688
     9119.927000       0.009755
     9128.251900       0.010898
     9136.592100       0.012118
     9144.947400       0.013417
     9153.318100       0.014796
     9161.704100       0.016255
     9170.105500       0.017796
     9178.522300       0.019421
     9186.954500       0.021129
     9195.402300       0.022921
     9203.865600       0.024798
     9212.344500       0.026761
     9220.839100       0.028810
     9229.349300       0.030946
     9237.875300       0.033168
     9246.417000       0.035477
     9254.974500       0.037873
     9263.547900       0.040357
     9272.137200       0.042927
     9280.742500       0.045585
     9289.363700       0.048330
     9298.000900       0.051162
     9306.654300       0.054080
     9315.323700       0.057085
     9324.009300       0.060176
     9332.711200       0.063353
     9341.429200       0.066614
     9350.163600       0.069960
     9358.914400       0.073390
     9367.681500       0.076903
     9376.465100       0.080500
     9385.265100       0.084178
     9394.081700       0.087938
     9402.914900       0.091777
     9411.764700       0.095697
     9420.631200       0.099696
     9429.514400       0.103771
     9438.414300       0.107925
     9447.331100       0.112153
     9456.264800       0.116457
     9465.215300       0.120835
     9474.182900       0.125286
     9483.167400       0.129808
     9492.169000       0.134400
     9501.187600       0.139063
     9510.223500       0.143793
     9519.276500       0.148590
     9528.346800       0.153454
     9537.434400       0.158382
     9546.539400       0.163372
     9555.661700       0.168425
     9564.801500       0.173539
     9573.958800       0.178712
     9583.133700       0.183943
     9592.326100       0.189230
     9601.536200       0.194573
     9610.764100       0.199970
     9620.009600       0.205420
     9629.273000       0.210921
     9638.554200       0.216471
     9647.853400       0.222070
     9657.170400       0.227715
     9666.505600       0.233407
     9675.858700       0.239142
     9685.230000       0.244920
     9694.619500       0.250739
     9704.027200       0.256598
     9713.453100       0.262496
     9722.897400       0.268430
     9732.360100       0.274400
     9741.841200       0.280404
     9751.340800       0.286440
     9760.859000       0.292508
     9770.395700       0.298605
     9779.951100       0.304730
     9789.525200       0.310883
     9799.118100       0.317061
     9808.729800       0.323262
     9818.360300       0.329486
     9828.009800       0.335731
     9837.678300       0.341997
     9847.365800       0.348280
     9857.072400       0.354580
     9866.798200       0.360896
     9876.543200       0.367226
     9886.307500       0.373569
     9896.091000       0.379923
     9905.894000       0.386287
     9915.716400       0.392661
     9925.558300       0.399041
     9935.419800       0.405427
     9945.300800       0.411819
     9955.201600       0.418213
     9965.122100       0.424610
     9975.062300       0.431008
     9985.022500       0.437406
     9995.002500       0.443802
    10005.002500       0.450195
    10015.022500       0.456584
    10025.062700       0.462967
    10035.122900       0.469345
    10045.203400       0.475714
    10055.304200       0.482075
    10065.425300       0.488426
    10075.566800       0.494765
    10085.728700       0.501093
    10095.911200       0.507407
    10106.114200       0.513707
    10116.337900       0.519991
    10126.582300       0.526258
    10136.847400       0.532508
    10147.133400       0.538740
    10157.440300       0.544951
    10167.768200       0.551142
    10178.117000       0.557311
    10188.487000       0.563458
    10198.878100       0.569581
    10209.290500       0.575679
    10219.724100       0.581752
    10230.179000       0.587799
    10240.655400       0.593819
    10251.153300       0.599810
    10261.672700       0.605772
    10272.213700       0.611705
    10282.776300       0.617607
    10293.360800       0.623478
    10303.967000       0.629316
    10314.595200       0.635122
    10325.245200       0.640894
    10335.917300       0.646631
    10346.611500       0.652334
    10357.327800       0.658000
    10368.066400       0.663630
    10378.827200       0.669222
    10389.610400       0.674777
    10400.416000       0.680294
    10411.244100       0.685771
    10422.094800       0.691208
    10432.968200       0.696606
    10443.864200       0.701962
    10454.783100       0.707277
    10465.724800       0.712550
    10476.689400       0.717781
    10487.677000       0.722969
    10498.687700       0.728113
    10509.721500       0.733213
    10520.778500       0.738269
    10531.858900       0.743280
    10542.962600       0.748246
    10554.089700       0.753166
    10565.240400       0.758040
    10576.414600       0.762868
    10587.612500       0.767649
    10598.834100       0.772383
    10610.079600       0.777069
    10621.348900       0.781708
    10632.642200       0.786298
    10643.959600       0.790841
    10655.301000       0.795334
    10666.666700       0.799779
    10678.056600       0.804174
    10689.470900       0.808520
    10700.909600       0.812817
    10712.372800       0.817063
    10723.860600       0.821260
    10735.373100       0.825406
    10746.910300       0.829502
    10758.472300       0.833548
    10770.059200       0.837543
    10781.671200       0.841487
    10793.308100       0.845380
    10804.970300       0.849223
    10816.657700       0.853014
    10828.370300       0.856754
    10840.108400       0.860443
    10851.871900       0.864080
    10863.661100       0.867667
    10875.475800       0.871201
    10887.316300       0.874685
    10899.182600       0.878117
    10911.074700       0.881498
    10922.992900       0.884827
    10934.937100       0.888105
    10946.907500       0.891332
    10958.904100       0.894507
    10970.927000       0.897632
    10982.976400       0.900705
    10995.052200       0.903727
    11007.154700       0.906698
    11019.283700       0.909618
    11031.439600       0.912487
    11043.622300       0.915305
    11055.832000       0.918073
    11068.068600       0.920791
    11080.332400       0.923458
    11092.623400       0.926075
    11104.941700       0.928641
    11117.287400       0.931158
    11129.660500       0.933625
    11142.061300       0.936043
    11154.489700       0.938411
    11166.945800       0.940730
    11179.429800       0.943000
    11191.941800       0.945221
    11204.481800       0.947393
    11217.049900       0.949517
    11229.646300       0.951593
    11242.270900       0.953621
    11254.924000       0.955601
    11267.605600       0.957534
    11280.315800       0.959420
    11293.054800       0.961258
    11305.822500       0.963049
    11318.619100       0.964795
    11331.444800       0.966493
    11344.299500       0.968146
    11357.183400       0.969753
    11370.096600       0.971315
    11383.039300       0.972831
    11396.011400       0.974303
    11409.013100       0.975730
    11422.044500       0.977113
    11435.105800       0.978451
    11448.196900       0.979746
    11461.318100       0.980997
    11474.469300       0.982206
    11487.650800       0.983371
    11500.862600       0.984494
    11514.104800       0.985575
    11527.377500       0.986614
    11540.680900       0.987611
    11554.015000       0.988567
    11567.380000       0.989482
    11580.775900       0.990356
    11594.202900       0.991190
    11607.661100       0.991984
    11621.150500       0.992738
    11634.671300       0.993453
    11648.223600       0.994129
    11661.807600       0.994766
    11675.423200       0.995365
    11689.070700       0.995926
    11702.750100       0.996449
    11716.461600       0.996935
    11730.205300       0.997384
    11743.981200       0.997796
    11757.789500       0.998171
    11771.630400       0.998511
    11785.503800       0.998815
    11799.410000       0.999083
    11813.349100       0.999317
    11827.321100       0.999515
    11841.326200       0.999680
    11855.364600       0.999810
    11869.436200       0.999907
    11883.541300       0.999970
    11897.680000       1.000000
    11911.852300       0.999997
    11926.058400       0.999962
    11940.298500       0.999895
    11954.572600       0.999796
    11968.880900       0.999666
    11983.223500       0.999505
    11997.600500       0.999312
    12012.012000       0.999090
    12026.458200       0.998837
    12040.939200       0.998554
    12055.455100       0.998242
    12070.006000       0.997901
    12084.592100       0.997530
    12099.213600       0.997132
    12113.870400       0.996704
    12128.562800       0.996249
    12143.290800       0.995766
    12158.054700       0.995256
    12172.854500       0.994719
    12187.690400       0.994155
    12202.562500       0.993564
    12217.471000       0.992948
    12232.415900       0.992305
    12247.397400       0.991637
    12262.415700       0.990943
    12277.470800       0.990224
    12292.563000       0.989481
    12307.692300       0.988713
    12322.858900       0.987921
    12338.062900       0.987105
    12353.304500       0.986265
    12368.583800       0.985402
    12383.900900       0.984516
    12399.256000       0.983607
    12414.649300       0.982675
    12430.080800       0.981721
    12445.550700       0.980745
    12461.059200       0.979747
    12476.606400       0.978727
    12492.192400       0.977686
    12507.817400       0.976623
    12523.481500       0.975540
    12539.185000       0.974436
    12554.927800       0.973312
    12570.710200       0.972168
    12586.532400       0.971003
    12602.394500       0.969819
    12618.296500       0.968615
    12634.238800       0.967392
    12650.221400       0.966150
    12666.244500       0.964889
    12682.308200       0.963609
    12698.412700       0.962311
    12714.558200       0.960994
    12730.744700       0.959659
    12746.972600       0.958307
    12763.241900       0.956937
    12779.552700       0.955549
    12795.905300       0.954144
    12812.299800       0.952722
    12828.736400       0.951283
    12845.215200       0.949827
    12861.736300       0.948354
    12878.300100       0.946865
    12894.906500       0.945360
    12911.555800       0.943839
    12928.248200       0.942302
    12944.983800       0.940749
    12961.762800       0.939180
    12978.585300       0.937596
    12995.451600       0.935997
    13012.361700       0.934383
    13029.316000       0.932753
    13046.314400       0.931109
    13063.357300       0.929450
    13080.444700       0.927776
    13097.576900       0.926088
    13114.754100       0.924386
    13131.976400       0.922670
    13149.243900       0.920939
    13166.556900       0.919195
    13183.915600       0.917436
    13201.320100       0.915665
    13218.770700       0.913879
    13236.267400       0.912080
    13253.810500       0.910268
    13271.400100       0.908443
    13289.036500       0.906605
    13306.719900       0.904753
    13324.450400       0.902889
    13342.228200       0.901012
    13360.053400       0.899122
    13377.926400       0.897220
    13395.847300       0.895306
    13413.816200       0.893379
    13431.833400       0.891439
    13449.899100       0.889488
    13468.013500       0.887525
    13486.176700       0.885549
    13504.388900       0.883562
    13522.650400       0.881563
    13540.961400       0.879552
    13559.322000       0.877530
    13577.732500       0.875496
    13596.193100       0.873450
    13614.703900       0.871394
    13633.265200       0.869326
    13651.877100       0.867246
    13670.540000       0.865156
    13689.253900       0.863054
    13708.019200       0.860942
    13726.836000       0.858819
    13745.704500       0.856684
    13764.624900       0.854539
    13783.597500       0.852384
    13802.622500       0.850217
    13821.700100       0.848041
    13840.830400       0.845853
    13860.013900       0.843656
    13879.250500       0.841448
    13898.540700       0.839229
    13917.884500       0.837001
    13937.282200       0.834762
    13956.734100       0.832513
    13976.240400       0.830255
    13995.801300       0.827986
    14015.417000       0.825707
    14035.087700       0.823419
    14054.813800       0.821121
    14074.595400       0.818813
    14094.432700       0.816496
    14114.326000       0.814169
    14134.275600       0.811832
    14154.281700       0.809486
    14174.344400       0.807131
    14194.464200       0.804767
    14214.641100       0.802393
    14234.875400       0.800010
    14255.167500       0.797618
    14275.517500       0.795217
    14295.925700       0.792807
    14316.392300       0.790388
    14336.917600       0.787960
    14357.501800       0.785524
    14378.145200       0.783079
    14398.848100       0.780625
    14419.610700       0.778162
    14440.433200       0.775692
    14461.316000       0.773212
    14482.259200       0.770725
    14503.263200       0.768229
    14524.328200       0.765725
    14545.454500       0.763213
    14566.642400       0.760692
    14587.892000       0.758164
    14609.203800       0.755628
    14630.577900       0.753084
    14652.014700       0.750532
    14673.514300       0.747973
    14695.077100       0.745406
    14716.703500       0.742831
    14738.393500       0.740249
    14760.147600       0.737660
    14781.966000       0.735063
    14803.849000       0.732459
    14825.796900       0.729848
    14847.809900       0.727231
    14869.888500       0.724606
    14892.032800       0.721974
    14914.243100       0.719336
    14936.519800       0.716691
    14958.863100       0.714039
    14981.273400       0.711381
    15003.750900       0.708716
    15026.296000       0.706046
    15048.909000       0.703369
    15071.590100       0.700686
    15094.339600       0.697997
    15117.158000       0.695302
    15140.045400       0.692601
    15163.002300       0.689895
    15186.028900       0.687183
    15209.125500       0.684466
    15232.292500       0.681743
    15255.530100       0.679015
    15278.838800       0.676282
    15302.218800       0.673544
    15325.670500       0.670801
    15349.194200       0.668053
    15372.790200       0.665301
    15396.458800       0.662544
    15420.200500       0.659783
    15444.015400       0.657017
    15467.904100       0.654247
    15491.866800       0.651473
    15515.903800       0.648695
    15540.015500       0.645913
    15564.202300       0.643127
    15588.464500       0.640338
    15612.802500       0.637545
    15637.216600       0.634749
    15661.707100       0.631950
    15686.274500       0.629148
    15710.919100       0.626343
    15735.641200       0.623535
    15760.441300       0.620724
    15785.319700       0.617911
    15810.276700       0.615096
    15835.312700       0.612278
    15860.428200       0.609458
    15885.623500       0.606636
    15910.899000       0.603812
    15936.255000       0.600987
    15961.691900       0.598160
    15987.210200       0.595331
    16012.810200       0.592502
    16038.492400       0.589671
    16064.257000       0.586839
    16090.104600       0.584006
    16116.035500       0.581173
    16142.050000       0.578339
    16168.148700       0.575505
    16194.332000       0.572670
    16220.600200       0.569836
    16246.953700       0.567001
    16273.393000       0.564167
    16299.918500       0.561333
    16326.530600       0.558499
    16353.229800       0.555666
    16380.016400       0.552834
    16406.890900       0.550003
    16433.853700       0.547173
    16460.905300       0.544344
    16488.046200       0.541517
    16515.276600       0.538690
    16542.597200       0.535866
    16570.008300       0.533044
    16597.510400       0.530224
    16625.103900       0.527405
    16652.789300       0.524589
    16680.567100       0.521776
    16708.437800       0.518965
    16736.401700       0.516156
    16764.459300       0.513351
    16792.611300       0.510549
    16820.857900       0.507749
    16849.199700       0.504954
    16877.637100       0.502161
    16906.170800       0.499372
    16934.801000       0.496587
    16963.528400       0.493806
    16992.353400       0.491029
    17021.276600       0.488256
    17050.298400       0.485487
    17079.419300       0.482723
    17108.639900       0.479963
    17137.960600       0.477208
    17167.382000       0.474458
    17196.904600       0.471713
    17226.528900       0.468972
    17256.255400       0.466237
    17286.084700       0.463508
    17316.017300       0.460784
    17346.053800       0.458065
    17376.194600       0.455352
    17406.440400       0.452646
    17436.791600       0.449944
    17467.248900       0.447249
    17497.812800       0.444561
    17528.483800       0.441878
    17559.262500       0.439202
    17590.149500       0.436532
    17621.145400       0.433869
    17652.250700       0.431213
    17683.466000       0.428564
    17714.791900       0.425921
    17746.228900       0.423286
    17777.777800       0.420657
    17809.439000       0.418036
    17841.213200       0.415422
    17873.101000       0.412815
    17905.103000       0.410216
    17937.219700       0.407624
    17969.451900       0.405040
    18001.800200       0.402463
    18034.265100       0.399894
    18066.847300       0.397333
    18099.547500       0.394780
    18132.366300       0.392234
    18165.304300       0.389697
    18198.362100       0.387167
    18231.540600       0.384646
    18264.840200       0.382133
    18298.261700       0.379627
    18331.805700       0.377130
    18365.472900       0.374641
    18399.264000       0.372161
    18433.179700       0.369689
    18467.220700       0.367224
    18501.387600       0.364769
    18535.681200       0.362321
    18570.102100       0.359882
    18604.651200       0.357451
    18639.329000       0.355029
    18674.136300       0.352615
    18709.073900       0.350209
    18744.142500       0.347811
    18779.342700       0.345422
    18814.675400       0.343041
    18850.141400       0.340669
    18885.741300       0.338304
    18921.475900       0.335948
    18957.346000       0.333600
    18993.352300       0.331260
    19029.495700       0.328929
    19065.776900       0.326605
    19102.196800       0.324289
    19138.756000       0.321982
    19175.455400       0.319682
    19212.295900       0.317390
    19249.278200       0.315106
    19286.403100       0.312829
    19323.671500       0.310560
    19361.084200       0.308299
    19398.642100       0.306045
    19436.346000       0.303799
    19474.196700       0.301559
    19512.195100       0.299327
    19550.342100       0.297102
    19588.638600       0.294884
    19627.085400       0.292673
    19665.683400       0.290469
    19704.433500       0.288271
    19743.336600       0.286080
    19782.393700       0.283895
    19821.605600       0.281717
    19860.973200       0.279544
    19900.497500       0.277378
    19940.179500       0.275218
    19980.020000       0.273063
    20020.020000       0.270914
    20060.180500       0.268770
    20100.502500       0.266632
    20140.986900       0.264498
    20181.634700       0.262370
    20222.446900       0.260246
    20263.424500       0.258127
    20304.568500       0.256013
    20345.880000       0.253903
    20387.359800       0.251797
    20429.009200       0.249695
    20470.829100       0.247596
    20512.820500       0.245502
    20554.984600       0.243410
    20597.322300       0.241322
    20639.834900       0.239237
    20682.523300       0.237154
    20725.388600       0.235075
    20768.432000       0.232997
    20811.654500       0.230922
    20855.057400       0.228849
    20898.641600       0.226778
    20942.408400       0.224708
    20986.358900       0.222640
    21030.494200       0.220573
    21074.815600       0.218507
    21119.324200       0.216442
    21164.021200       0.214377
    21208.907700       0.212313
    21253.985100       0.210249
    21299.254500       0.208185
    21344.717200       0.206120
    21390.374300       0.204055
    21436.227200       0.201990
    21482.277100       0.199923
    21528.525300       0.197856
    21574.973000       0.195787
    21621.621600       0.193717
    21668.472400       0.191644
    21715.526600       0.189570
    21762.785600       0.187494
    21810.250800       0.185416
    21857.923500       0.183335
    21905.805000       0.181251
    21953.896800       0.179165
    22002.200200       0.177075
    22050.716600       0.174982
    22099.447500       0.172886
    22148.394200       0.170786
    22197.558300       0.168682
    22246.941000       0.166574
    22296.544000       0.164462
    22346.368700       0.162346
    22396.416600       0.160226
    22446.689100       0.158100
    22497.187900       0.155970
    22547.914300       0.153835
    22598.870100       0.151695
    22650.056600       0.149550
    22701.475600       0.147400
    22753.128600       0.145244
    22805.017100       0.143083
    22857.142900       0.140916
    22909.507400       0.138743
    22962.112500       0.136565
    23014.959700       0.134381
    23068.050700       0.132191
    23121.387300       0.129995
    23174.971000       0.127793
    23228.803700       0.125585
    23282.887100       0.123371
    23337.222900       0.121151
    23391.812900       0.118925
    23446.658900       0.116692
    23501.762600       0.114454
    23557.126000       0.112210
    23612.750900       0.109960
    23668.639100       0.107704
    23724.792400       0.105442
    23781.212800       0.103175
    23837.902300       0.100901
    23894.862600       0.098623
    23952.095800       0.096339
    24009.603800       0.094050
    24067.388700       0.091755
    24125.452400       0.089456
    24183.796900       0.087153
    24242.424200       0.084844
    24301.336600       0.082532
    24360.535900       0.080216
    24420.024400       0.077896
    24479.804200       0.075572
    24539.877300       0.073246
    24600.246000       0.070916
    24660.912500       0.068585
    24721.878900       0.066251
    24783.147500       0.063915
    24844.720500       0.061579
    24906.600200       0.059241
    24968.789000       0.056904
    25031.289100       0.054566
    25094.102900       0.052229
    25157.232700       0.049893
    25220.681000       0.047559
    25284.450100       0.045227
    25348.542500       0.042898
    25412.960600       0.040573
    25477.707000       0.038252
