9, GOES 6.95um ABI FM4 SRF CWG processed March 10, 2016
Number of data points:
2105
Wavenumber (cm-1)   Filter response
     1342.600000       0.001010
     1342.700000       0.001070
     1342.800000       0.001189
     1342.900000       0.001249
     1343.000000       0.001290
     1343.100000       0.001323
     1343.200000       0.001354
     1343.300000       0.001387
     1343.400000       0.001420
     1343.500000       0.001454
     1343.600000       0.001487
     1343.700000       0.001517
     1343.800000       0.001537
     1343.900000       0.001551
     1344.000000       0.001557
     1344.100000       0.001559
     1344.200000       0.001559
     1344.300000       0.001558
     1344.400000       0.001556
     1344.500000       0.001553
     1344.600000       0.001550
     1344.700000       0.001546
     1344.800000       0.001540
     1344.900000       0.001539
     1345.000000       0.001537
     1345.100000       0.001537
     1345.200000       0.001540
     1345.300000       0.001563
     1345.400000       0.001592
     1345.500000       0.001626
     1345.600000       0.001663
     1345.700000       0.001701
     1345.800000       0.001739
     1345.900000       0.001778
     1346.000000       0.001816
     1346.100000       0.001852
     1346.200000       0.001887
     1346.300000       0.001919
     1346.400000       0.001948
     1346.500000       0.001972
     1346.600000       0.001989
     1346.700000       0.001989
     1346.800000       0.001987
     1346.900000       0.001973
     1347.000000       0.001953
     1347.100000       0.001933
     1347.200000       0.001914
     1347.300000       0.001895
     1347.400000       0.001879
     1347.500000       0.001864
     1347.600000       0.001853
     1347.700000       0.001843
     1347.800000       0.001836
     1347.900000       0.001832
     1348.000000       0.001833
     1348.100000       0.001837
     1348.200000       0.001851
     1348.300000       0.001870
     1348.400000       0.001894
     1348.500000       0.001916
     1348.600000       0.001938
     1348.700000       0.001955
     1348.800000       0.001970
     1348.900000       0.001981
     1349.000000       0.001989
     1349.100000       0.001994
     1349.200000       0.001996
     1349.300000       0.001998
     1349.400000       0.001998
     1349.500000       0.001999
     1349.600000       0.001999
     1349.700000       0.002001
     1349.800000       0.002006
     1349.900000       0.002012
     1350.000000       0.002021
     1350.100000       0.002031
     1350.200000       0.002045
     1350.300000       0.002059
     1350.400000       0.002076
     1350.500000       0.002093
     1350.600000       0.002112
     1350.700000       0.002130
     1350.800000       0.002147
     1350.900000       0.002164
     1351.000000       0.002179
     1351.100000       0.002192
     1351.200000       0.002204
     1351.300000       0.002214
     1351.400000       0.002223
     1351.500000       0.002231
     1351.600000       0.002238
     1351.700000       0.002246
     1351.800000       0.002255
     1351.900000       0.002266
     1352.000000       0.002278
     1352.100000       0.002292
     1352.200000       0.002309
     1352.300000       0.002329
     1352.400000       0.002351
     1352.500000       0.002375
     1352.600000       0.002401
     1352.700000       0.002428
     1352.800000       0.002456
     1352.900000       0.002483
     1353.000000       0.002509
     1353.100000       0.002534
     1353.200000       0.002555
     1353.300000       0.002575
     1353.400000       0.002590
     1353.500000       0.002602
     1353.600000       0.002611
     1353.700000       0.002616
     1353.800000       0.002620
     1353.900000       0.002625
     1354.000000       0.002633
     1354.100000       0.002647
     1354.200000       0.002664
     1354.300000       0.002684
     1354.400000       0.002706
     1354.500000       0.002730
     1354.600000       0.002756
     1354.700000       0.002784
     1354.800000       0.002815
     1354.900000       0.002848
     1355.000000       0.002882
     1355.100000       0.002918
     1355.200000       0.002954
     1355.300000       0.002991
     1355.400000       0.003023
     1355.500000       0.003046
     1355.600000       0.003063
     1355.700000       0.003076
     1355.800000       0.003087
     1355.900000       0.003098
     1356.000000       0.003107
     1356.100000       0.003116
     1356.200000       0.003126
     1356.300000       0.003137
     1356.400000       0.003149
     1356.500000       0.003163
     1356.600000       0.003179
     1356.700000       0.003198
     1356.800000       0.003219
     1356.900000       0.003241
     1357.000000       0.003265
     1357.100000       0.003289
     1357.200000       0.003314
     1357.300000       0.003337
     1357.400000       0.003358
     1357.500000       0.003375
     1357.600000       0.003390
     1357.700000       0.003400
     1357.800000       0.003404
     1357.900000       0.003404
     1358.000000       0.003402
     1358.100000       0.003391
     1358.200000       0.003380
     1358.300000       0.003367
     1358.400000       0.003359
     1358.500000       0.003353
     1358.600000       0.003354
     1358.700000       0.003358
     1358.800000       0.003366
     1358.900000       0.003378
     1359.000000       0.003394
     1359.100000       0.003415
     1359.200000       0.003442
     1359.300000       0.003474
     1359.400000       0.003510
     1359.500000       0.003549
     1359.600000       0.003591
     1359.700000       0.003635
     1359.800000       0.003677
     1359.900000       0.003712
     1360.000000       0.003740
     1360.100000       0.003763
     1360.200000       0.003782
     1360.300000       0.003797
     1360.400000       0.003807
     1360.500000       0.003813
     1360.600000       0.003814
     1360.700000       0.003814
     1360.800000       0.003813
     1360.900000       0.003810
     1361.000000       0.003808
     1361.100000       0.003807
     1361.200000       0.003809
     1361.300000       0.003815
     1361.400000       0.003830
     1361.500000       0.003851
     1361.600000       0.003877
     1361.700000       0.003907
     1361.800000       0.003939
     1361.900000       0.003971
     1362.000000       0.004004
     1362.100000       0.004036
     1362.200000       0.004067
     1362.300000       0.004096
     1362.400000       0.004123
     1362.500000       0.004145
     1362.600000       0.004165
     1362.700000       0.004182
     1362.800000       0.004197
     1362.900000       0.004210
     1363.000000       0.004223
     1363.100000       0.004236
     1363.200000       0.004251
     1363.300000       0.004268
     1363.400000       0.004287
     1363.500000       0.004310
     1363.600000       0.004340
     1363.700000       0.004368
     1363.800000       0.004404
     1363.900000       0.004443
     1364.000000       0.004485
     1364.100000       0.004529
     1364.200000       0.004575
     1364.300000       0.004620
     1364.400000       0.004675
     1364.500000       0.004725
     1364.600000       0.004774
     1364.700000       0.004819
     1364.800000       0.004859
     1364.900000       0.004892
     1365.000000       0.004920
     1365.100000       0.004941
     1365.200000       0.004958
     1365.300000       0.004972
     1365.400000       0.004984
     1365.500000       0.004994
     1365.600000       0.005007
     1365.700000       0.005022
     1365.800000       0.005042
     1365.900000       0.005068
     1366.000000       0.005099
     1366.100000       0.005136
     1366.200000       0.005179
     1366.300000       0.005228
     1366.400000       0.005284
     1366.500000       0.005346
     1366.600000       0.005411
     1366.700000       0.005478
     1366.800000       0.005547
     1366.900000       0.005616
     1367.000000       0.005684
     1367.100000       0.005751
     1367.200000       0.005818
     1367.300000       0.005889
     1367.400000       0.005965
     1367.500000       0.006043
     1367.600000       0.006123
     1367.700000       0.006202
     1367.800000       0.006280
     1367.900000       0.006358
     1368.000000       0.006435
     1368.100000       0.006515
     1368.200000       0.006596
     1368.300000       0.006679
     1368.400000       0.006765
     1368.500000       0.006855
     1368.600000       0.006941
     1368.700000       0.007024
     1368.800000       0.007097
     1368.900000       0.007161
     1369.000000       0.007219
     1369.100000       0.007272
     1369.200000       0.007327
     1369.300000       0.007382
     1369.400000       0.007439
     1369.500000       0.007498
     1369.600000       0.007559
     1369.700000       0.007621
     1369.800000       0.007684
     1369.900000       0.007749
     1370.000000       0.007814
     1370.100000       0.007879
     1370.200000       0.007945
     1370.300000       0.008010
     1370.400000       0.008075
     1370.500000       0.008140
     1370.600000       0.008205
     1370.700000       0.008270
     1370.800000       0.008335
     1370.900000       0.008400
     1371.000000       0.008467
     1371.100000       0.008535
     1371.200000       0.008606
     1371.300000       0.008678
     1371.400000       0.008753
     1371.500000       0.008831
     1371.600000       0.008911
     1371.700000       0.008994
     1371.800000       0.009080
     1371.900000       0.009168
     1372.000000       0.009259
     1372.100000       0.009350
     1372.200000       0.009443
     1372.300000       0.009536
     1372.400000       0.009628
     1372.500000       0.009721
     1372.600000       0.009811
     1372.700000       0.009901
     1372.800000       0.009990
     1372.900000       0.010077
     1373.000000       0.010164
     1373.100000       0.010251
     1373.200000       0.010337
     1373.300000       0.010423
     1373.400000       0.010510
     1373.500000       0.010599
     1373.600000       0.010690
     1373.700000       0.010783
     1373.800000       0.010880
     1373.900000       0.010981
     1374.000000       0.011085
     1374.100000       0.011192
     1374.200000       0.011303
     1374.300000       0.011417
     1374.400000       0.011533
     1374.500000       0.011653
     1374.600000       0.011774
     1374.700000       0.011897
     1374.800000       0.012020
     1374.900000       0.012144
     1375.000000       0.012269
     1375.100000       0.012393
     1375.200000       0.012518
     1375.300000       0.012641
     1375.400000       0.012765
     1375.500000       0.012889
     1375.600000       0.013014
     1375.700000       0.013139
     1375.800000       0.013266
     1375.900000       0.013395
     1376.000000       0.013526
     1376.100000       0.013661
     1376.200000       0.013800
     1376.300000       0.013942
     1376.400000       0.014089
     1376.500000       0.014239
     1376.600000       0.014394
     1376.700000       0.014552
     1376.800000       0.014715
     1376.900000       0.014880
     1377.000000       0.015049
     1377.100000       0.015219
     1377.200000       0.015391
     1377.300000       0.015565
     1377.400000       0.015740
     1377.500000       0.015915
     1377.600000       0.016091
     1377.700000       0.016266
     1377.800000       0.016442
     1377.900000       0.016618
     1378.000000       0.016794
     1378.100000       0.016972
     1378.200000       0.017150
     1378.300000       0.017329
     1378.400000       0.017511
     1378.500000       0.017695
     1378.600000       0.017883
     1378.700000       0.018075
     1378.800000       0.018270
     1378.900000       0.018469
     1379.000000       0.018674
     1379.100000       0.018883
     1379.200000       0.019094
     1379.300000       0.019307
     1379.400000       0.019524
     1379.500000       0.019743
     1379.600000       0.019965
     1379.700000       0.020190
     1379.800000       0.020417
     1379.900000       0.020646
     1380.000000       0.020879
     1380.100000       0.021114
     1380.200000       0.021353
     1380.300000       0.021593
     1380.400000       0.021837
     1380.500000       0.022084
     1380.600000       0.022335
     1380.700000       0.022590
     1380.800000       0.022849
     1380.900000       0.023115
     1381.000000       0.023386
     1381.100000       0.023663
     1381.200000       0.023948
     1381.300000       0.024242
     1381.400000       0.024541
     1381.500000       0.024848
     1381.600000       0.025161
     1381.700000       0.025482
     1381.800000       0.025811
     1381.900000       0.026148
     1382.000000       0.026491
     1382.100000       0.026842
     1382.200000       0.027199
     1382.300000       0.027563
     1382.400000       0.027933
     1382.500000       0.028309
     1382.600000       0.028692
     1382.700000       0.029082
     1382.800000       0.029479
     1382.900000       0.029882
     1383.000000       0.030292
     1383.100000       0.030709
     1383.200000       0.031138
     1383.300000       0.031575
     1383.400000       0.032021
     1383.500000       0.032473
     1383.600000       0.032936
     1383.700000       0.033408
     1383.800000       0.033887
     1383.900000       0.034373
     1384.000000       0.034868
     1384.100000       0.035370
     1384.200000       0.035880
     1384.300000       0.036397
     1384.400000       0.036923
     1384.500000       0.037457
     1384.600000       0.038000
     1384.700000       0.038549
     1384.800000       0.039104
     1384.900000       0.039670
     1385.000000       0.040247
     1385.100000       0.040838
     1385.200000       0.041442
     1385.300000       0.042066
     1385.400000       0.042707
     1385.500000       0.043359
     1385.600000       0.044023
     1385.700000       0.044701
     1385.800000       0.045391
     1385.900000       0.046098
     1386.000000       0.046820
     1386.100000       0.047559
     1386.200000       0.048314
     1386.300000       0.049084
     1386.400000       0.049868
     1386.500000       0.050667
     1386.600000       0.051483
     1386.700000       0.052322
     1386.800000       0.053178
     1386.900000       0.054051
     1387.000000       0.054938
     1387.100000       0.055838
     1387.200000       0.056757
     1387.300000       0.057697
     1387.400000       0.058647
     1387.500000       0.059610
     1387.600000       0.060602
     1387.700000       0.061622
     1387.800000       0.062671
     1387.900000       0.063742
     1388.000000       0.064839
     1388.100000       0.065958
     1388.200000       0.067102
     1388.300000       0.068268
     1388.400000       0.069460
     1388.500000       0.070677
     1388.600000       0.071920
     1388.700000       0.073189
     1388.800000       0.074486
     1388.900000       0.075809
     1389.000000       0.077157
     1389.100000       0.078531
     1389.200000       0.079932
     1389.300000       0.081357
     1389.400000       0.082806
     1389.500000       0.084278
     1389.600000       0.085770
     1389.700000       0.087290
     1389.800000       0.088840
     1389.900000       0.090416
     1390.000000       0.092024
     1390.100000       0.093664
     1390.200000       0.095334
     1390.300000       0.097033
     1390.400000       0.098763
     1390.500000       0.100534
     1390.600000       0.102337
     1390.700000       0.104180
     1390.800000       0.106063
     1390.900000       0.107983
     1391.000000       0.109939
     1391.100000       0.111924
     1391.200000       0.113941
     1391.300000       0.115995
     1391.400000       0.118084
     1391.500000       0.120209
     1391.600000       0.122369
     1391.700000       0.124564
     1391.800000       0.126796
     1391.900000       0.129067
     1392.000000       0.131379
     1392.100000       0.133740
     1392.200000       0.136147
     1392.300000       0.138596
     1392.400000       0.141097
     1392.500000       0.143662
     1392.600000       0.146270
     1392.700000       0.148936
     1392.800000       0.151668
     1392.900000       0.154473
     1393.000000       0.157325
     1393.100000       0.160226
     1393.200000       0.163174
     1393.300000       0.166171
     1393.400000       0.169225
     1393.500000       0.172337
     1393.600000       0.175501
     1393.700000       0.178719
     1393.800000       0.181985
     1393.900000       0.185299
     1394.000000       0.188658
     1394.100000       0.192062
     1394.200000       0.195513
     1394.300000       0.199002
     1394.400000       0.202548
     1394.500000       0.206135
     1394.600000       0.209775
     1394.700000       0.213462
     1394.800000       0.217199
     1394.900000       0.220995
     1395.000000       0.224874
     1395.100000       0.228806
     1395.200000       0.232798
     1395.300000       0.236847
     1395.400000       0.240953
     1395.500000       0.245116
     1395.600000       0.249339
     1395.700000       0.253618
     1395.800000       0.257955
     1395.900000       0.262351
     1396.000000       0.266809
     1396.100000       0.271318
     1396.200000       0.275884
     1396.300000       0.280509
     1396.400000       0.285191
     1396.500000       0.289919
     1396.600000       0.294702
     1396.700000       0.299535
     1396.800000       0.304414
     1396.900000       0.309350
     1397.000000       0.314341
     1397.100000       0.319375
     1397.200000       0.324461
     1397.300000       0.329596
     1397.400000       0.334774
     1397.500000       0.340003
     1397.600000       0.345279
     1397.700000       0.350596
     1397.800000       0.355952
     1397.900000       0.361330
     1398.000000       0.366736
     1398.100000       0.372182
     1398.200000       0.377665
     1398.300000       0.383189
     1398.400000       0.388747
     1398.500000       0.394349
     1398.600000       0.399991
     1398.700000       0.405687
     1398.800000       0.411422
     1398.900000       0.417188
     1399.000000       0.422989
     1399.100000       0.428838
     1399.200000       0.434725
     1399.300000       0.440648
     1399.400000       0.446603
     1399.500000       0.452555
     1399.600000       0.458549
     1399.700000       0.464621
     1399.800000       0.470720
     1399.900000       0.476833
     1400.000000       0.482962
     1400.100000       0.489109
     1400.200000       0.495275
     1400.300000       0.501460
     1400.400000       0.507656
     1400.500000       0.513861
     1400.600000       0.520068
     1400.700000       0.526274
     1400.800000       0.532483
     1400.900000       0.538696
     1401.000000       0.544908
     1401.100000       0.551119
     1401.200000       0.557328
     1401.300000       0.563537
     1401.400000       0.569748
     1401.500000       0.575961
     1401.600000       0.582188
     1401.700000       0.588425
     1401.800000       0.594634
     1401.900000       0.600816
     1402.000000       0.606995
     1402.100000       0.613167
     1402.200000       0.619328
     1402.300000       0.625476
     1402.400000       0.631606
     1402.500000       0.637715
     1402.600000       0.643797
     1402.700000       0.649849
     1402.800000       0.655859
     1402.900000       0.661829
     1403.000000       0.667756
     1403.100000       0.673645
     1403.200000       0.679485
     1403.300000       0.685287
     1403.400000       0.691037
     1403.500000       0.696739
     1403.600000       0.702398
     1403.700000       0.708009
     1403.800000       0.713562
     1403.900000       0.719067
     1404.000000       0.724513
     1404.100000       0.729925
     1404.200000       0.735297
     1404.300000       0.740627
     1404.400000       0.745910
     1404.500000       0.751141
     1404.600000       0.756316
     1404.700000       0.761439
     1404.800000       0.766512
     1404.900000       0.771532
     1405.000000       0.776497
     1405.100000       0.781413
     1405.200000       0.786285
     1405.300000       0.791113
     1405.400000       0.795880
     1405.500000       0.800572
     1405.600000       0.805165
     1405.700000       0.809680
     1405.800000       0.814112
     1405.900000       0.818489
     1406.000000       0.822805
     1406.100000       0.827085
     1406.200000       0.831308
     1406.300000       0.835472
     1406.400000       0.839556
     1406.500000       0.843673
     1406.600000       0.847907
     1406.700000       0.851843
     1406.800000       0.855392
     1406.900000       0.858896
     1407.000000       0.862399
     1407.100000       0.865919
     1407.200000       0.869478
     1407.300000       0.872930
     1407.400000       0.876255
     1407.500000       0.879509
     1407.600000       0.882671
     1407.700000       0.885786
     1407.800000       0.888849
     1407.900000       0.891820
     1408.000000       0.894705
     1408.100000       0.897502
     1408.200000       0.900213
     1408.300000       0.902909
     1408.400000       0.905585
     1408.500000       0.908191
     1408.600000       0.910723
     1408.700000       0.913246
     1408.800000       0.915760
     1408.900000       0.918236
     1409.000000       0.920676
     1409.100000       0.923083
     1409.200000       0.925458
     1409.300000       0.927789
     1409.400000       0.930078
     1409.500000       0.932317
     1409.600000       0.934509
     1409.700000       0.936657
     1409.800000       0.938746
     1409.900000       0.940754
     1410.000000       0.942689
     1410.100000       0.944548
     1410.200000       0.946338
     1410.300000       0.948065
     1410.400000       0.949732
     1410.500000       0.951331
     1410.600000       0.952869
     1410.700000       0.954355
     1410.800000       0.955806
     1410.900000       0.957223
     1411.000000       0.958613
     1411.100000       0.960008
     1411.200000       0.961408
     1411.300000       0.962830
     1411.400000       0.964274
     1411.500000       0.965755
     1411.600000       0.967272
     1411.700000       0.968818
     1411.800000       0.970390
     1411.900000       0.971969
     1412.000000       0.973560
     1412.100000       0.975140
     1412.200000       0.976704
     1412.300000       0.978232
     1412.400000       0.979722
     1412.500000       0.981151
     1412.600000       0.982523
     1412.700000       0.983822
     1412.800000       0.985059
     1412.900000       0.986227
     1413.000000       0.987330
     1413.100000       0.988354
     1413.200000       0.989316
     1413.300000       0.990214
     1413.400000       0.991057
     1413.500000       0.991843
     1413.600000       0.992578
     1413.700000       0.993262
     1413.800000       0.993910
     1413.900000       0.994506
     1414.000000       0.995060
     1414.100000       0.995580
     1414.200000       0.996064
     1414.300000       0.996495
     1414.400000       0.996888
     1414.500000       0.997273
     1414.600000       0.997623
     1414.700000       0.997850
     1414.800000       0.998017
     1414.900000       0.998165
     1415.000000       0.998277
     1415.100000       0.998276
     1415.200000       0.998217
     1415.300000       0.998064
     1415.400000       0.997835
     1415.500000       0.997617
     1415.600000       0.997386
     1415.700000       0.997098
     1415.800000       0.996775
     1415.900000       0.996519
     1416.000000       0.996298
     1416.100000       0.996066
     1416.200000       0.995852
     1416.300000       0.995746
     1416.400000       0.995714
     1416.500000       0.995731
     1416.600000       0.995801
     1416.700000       0.995907
     1416.800000       0.996076
     1416.900000       0.996269
     1417.000000       0.996498
     1417.100000       0.996753
     1417.200000       0.997035
     1417.300000       0.997323
     1417.400000       0.997618
     1417.500000       0.997922
     1417.600000       0.998229
     1417.700000       0.998527
     1417.800000       0.998816
     1417.900000       0.999088
     1418.000000       0.999340
     1418.100000       0.999518
     1418.200000       0.999654
     1418.300000       0.999782
     1418.400000       0.999898
     1418.500000       0.999976
     1418.600000       0.999983
     1418.700000       0.999990
     1418.800000       0.999999
     1418.900000       0.999972
     1419.000000       0.999844
     1419.100000       0.999707
     1419.200000       0.999548
     1419.300000       0.999372
     1419.400000       0.999176
     1419.500000       0.998971
     1419.600000       0.998760
     1419.700000       0.998565
     1419.800000       0.998406
     1419.900000       0.998212
     1420.000000       0.997980
     1420.100000       0.997751
     1420.200000       0.997526
     1420.300000       0.997305
     1420.400000       0.997088
     1420.500000       0.996865
     1420.600000       0.996633
     1420.700000       0.996397
     1420.800000       0.996157
     1420.900000       0.995906
     1421.000000       0.995642
     1421.100000       0.995374
     1421.200000       0.995103
     1421.300000       0.994829
     1421.400000       0.994548
     1421.500000       0.994267
     1421.600000       0.993985
     1421.700000       0.993713
     1421.800000       0.993452
     1421.900000       0.993208
     1422.000000       0.992991
     1422.100000       0.992800
     1422.200000       0.992632
     1422.300000       0.992499
     1422.400000       0.992402
     1422.500000       0.992302
     1422.600000       0.992176
     1422.700000       0.992084
     1422.800000       0.992033
     1422.900000       0.991985
     1423.000000       0.991934
     1423.100000       0.991879
     1423.200000       0.991818
     1423.300000       0.991737
     1423.400000       0.991639
     1423.500000       0.991520
     1423.600000       0.991364
     1423.700000       0.991177
     1423.800000       0.990958
     1423.900000       0.990706
     1424.000000       0.990416
     1424.100000       0.990098
     1424.200000       0.989749
     1424.300000       0.989372
     1424.400000       0.988962
     1424.500000       0.988526
     1424.600000       0.988068
     1424.700000       0.987587
     1424.800000       0.987089
     1424.900000       0.986573
     1425.000000       0.986039
     1425.100000       0.985492
     1425.200000       0.984936
     1425.300000       0.984389
     1425.400000       0.983890
     1425.500000       0.983408
     1425.600000       0.982897
     1425.700000       0.982379
     1425.800000       0.981883
     1425.900000       0.981406
     1426.000000       0.980959
     1426.100000       0.980541
     1426.200000       0.980162
     1426.300000       0.979817
     1426.400000       0.979519
     1426.500000       0.979262
     1426.600000       0.979120
     1426.700000       0.979032
     1426.800000       0.978996
     1426.900000       0.978977
     1427.000000       0.978852
     1427.100000       0.978551
     1427.200000       0.978221
     1427.300000       0.977875
     1427.400000       0.977492
     1427.500000       0.977094
     1427.600000       0.976705
     1427.700000       0.976327
     1427.800000       0.975918
     1427.900000       0.975473
     1428.000000       0.974997
     1428.100000       0.974483
     1428.200000       0.973995
     1428.300000       0.973542
     1428.400000       0.973100
     1428.500000       0.972665
     1428.600000       0.972238
     1428.700000       0.971818
     1428.800000       0.971401
     1428.900000       0.970985
     1429.000000       0.970574
     1429.100000       0.970168
     1429.200000       0.969769
     1429.300000       0.969377
     1429.400000       0.968992
     1429.500000       0.968620
     1429.600000       0.968261
     1429.700000       0.967894
     1429.800000       0.967523
     1429.900000       0.967152
     1430.000000       0.966781
     1430.100000       0.966417
     1430.200000       0.966054
     1430.300000       0.965685
     1430.400000       0.965314
     1430.500000       0.964942
     1430.600000       0.964571
     1430.700000       0.964202
     1430.800000       0.963837
     1430.900000       0.963477
     1431.000000       0.963124
     1431.100000       0.962777
     1431.200000       0.962436
     1431.300000       0.962105
     1431.400000       0.961785
     1431.500000       0.961482
     1431.600000       0.961196
     1431.700000       0.960927
     1431.800000       0.960671
     1431.900000       0.960477
     1432.000000       0.960329
     1432.100000       0.960172
     1432.200000       0.960006
     1432.300000       0.959861
     1432.400000       0.959737
     1432.500000       0.959617
     1432.600000       0.959502
     1432.700000       0.959383
     1432.800000       0.959259
     1432.900000       0.959122
     1433.000000       0.958977
     1433.100000       0.958822
     1433.200000       0.958646
     1433.300000       0.958451
     1433.400000       0.958233
     1433.500000       0.957998
     1433.600000       0.957737
     1433.700000       0.957481
     1433.800000       0.957255
     1433.900000       0.957026
     1434.000000       0.956759
     1434.100000       0.956489
     1434.200000       0.956237
     1434.300000       0.956008
     1434.400000       0.955815
     1434.500000       0.955653
     1434.600000       0.955533
     1434.700000       0.955440
     1434.800000       0.955383
     1434.900000       0.955368
     1435.000000       0.955384
     1435.100000       0.955439
     1435.200000       0.955506
     1435.300000       0.955594
     1435.400000       0.955679
     1435.500000       0.955768
     1435.600000       0.955848
     1435.700000       0.955919
     1435.800000       0.955930
     1435.900000       0.955920
     1436.000000       0.955887
     1436.100000       0.955779
     1436.200000       0.955658
     1436.300000       0.955490
     1436.400000       0.955298
     1436.500000       0.955078
     1436.600000       0.954846
     1436.700000       0.954605
     1436.800000       0.954364
     1436.900000       0.954124
     1437.000000       0.953905
     1437.100000       0.953706
     1437.200000       0.953542
     1437.300000       0.953396
     1437.400000       0.953320
     1437.500000       0.953330
     1437.600000       0.953346
     1437.700000       0.953369
     1437.800000       0.953425
     1437.900000       0.953501
     1438.000000       0.953576
     1438.100000       0.953595
     1438.200000       0.953606
     1438.300000       0.953644
     1438.400000       0.953669
     1438.500000       0.953686
     1438.600000       0.953700
     1438.700000       0.953677
     1438.800000       0.953560
     1438.900000       0.953423
     1439.000000       0.953252
     1439.100000       0.953065
     1439.200000       0.952862
     1439.300000       0.952661
     1439.400000       0.952462
     1439.500000       0.952292
     1439.600000       0.952141
     1439.700000       0.952056
     1439.800000       0.952014
     1439.900000       0.952003
     1440.000000       0.952072
     1440.100000       0.952187
     1440.200000       0.952366
     1440.300000       0.952608
     1440.400000       0.952904
     1440.500000       0.953264
     1440.600000       0.953704
     1440.700000       0.954200
     1440.800000       0.954677
     1440.900000       0.955145
     1441.000000       0.955620
     1441.100000       0.956092
     1441.200000       0.956551
     1441.300000       0.956997
     1441.400000       0.957420
     1441.500000       0.957823
     1441.600000       0.958195
     1441.700000       0.958541
     1441.800000       0.958843
     1441.900000       0.959106
     1442.000000       0.959364
     1442.100000       0.959618
     1442.200000       0.959870
     1442.300000       0.960085
     1442.400000       0.960327
     1442.500000       0.960631
     1442.600000       0.960962
     1442.700000       0.961317
     1442.800000       0.961698
     1442.900000       0.962105
     1443.000000       0.962522
     1443.100000       0.962943
     1443.200000       0.963364
     1443.300000       0.963774
     1443.400000       0.964178
     1443.500000       0.964587
     1443.600000       0.964986
     1443.700000       0.965349
     1443.800000       0.965673
     1443.900000       0.965909
     1444.000000       0.966091
     1444.100000       0.966225
     1444.200000       0.966328
     1444.300000       0.966391
     1444.400000       0.966426
     1444.500000       0.966427
     1444.600000       0.966396
     1444.700000       0.966359
     1444.800000       0.966317
     1444.900000       0.966285
     1445.000000       0.966271
     1445.100000       0.966265
     1445.200000       0.966265
     1445.300000       0.966265
     1445.400000       0.966292
     1445.500000       0.966343
     1445.600000       0.966409
     1445.700000       0.966493
     1445.800000       0.966584
     1445.900000       0.966685
     1446.000000       0.966787
     1446.100000       0.966890
     1446.200000       0.966983
     1446.300000       0.967067
     1446.400000       0.967133
     1446.500000       0.967188
     1446.600000       0.967210
     1446.700000       0.967205
     1446.800000       0.967163
     1446.900000       0.967078
     1447.000000       0.966978
     1447.100000       0.966865
     1447.200000       0.966761
     1447.300000       0.966653
     1447.400000       0.966540
     1447.500000       0.966417
     1447.600000       0.966295
     1447.700000       0.966177
     1447.800000       0.966070
     1447.900000       0.965969
     1448.000000       0.965902
     1448.100000       0.965910
     1448.200000       0.965926
     1448.300000       0.965924
     1448.400000       0.965912
     1448.500000       0.965913
     1448.600000       0.965921
     1448.700000       0.965920
     1448.800000       0.965906
     1448.900000       0.965880
     1449.000000       0.965829
     1449.100000       0.965750
     1449.200000       0.965617
     1449.300000       0.965469
     1449.400000       0.965244
     1449.500000       0.964963
     1449.600000       0.964635
     1449.700000       0.964267
     1449.800000       0.963863
     1449.900000       0.963428
     1450.000000       0.962970
     1450.100000       0.962490
     1450.200000       0.961997
     1450.300000       0.961493
     1450.400000       0.960995
     1450.500000       0.960501
     1450.600000       0.960017
     1450.700000       0.959542
     1450.800000       0.959084
     1450.900000       0.958643
     1451.000000       0.958208
     1451.100000       0.957779
     1451.200000       0.957347
     1451.300000       0.956905
     1451.400000       0.956460
     1451.500000       0.956013
     1451.600000       0.955546
     1451.700000       0.955094
     1451.800000       0.954616
     1451.900000       0.954063
     1452.000000       0.953463
     1452.100000       0.952834
     1452.200000       0.952177
     1452.300000       0.951498
     1452.400000       0.950805
     1452.500000       0.950101
     1452.600000       0.949388
     1452.700000       0.948679
     1452.800000       0.947974
     1452.900000       0.947282
     1453.000000       0.946602
     1453.100000       0.945948
     1453.200000       0.945322
     1453.300000       0.944717
     1453.400000       0.944135
     1453.500000       0.943574
     1453.600000       0.943037
     1453.700000       0.942523
     1453.800000       0.942038
     1453.900000       0.941570
     1454.000000       0.941111
     1454.100000       0.940650
     1454.200000       0.940168
     1454.300000       0.939667
     1454.400000       0.939137
     1454.500000       0.938575
     1454.600000       0.937978
     1454.700000       0.937342
     1454.800000       0.936670
     1454.900000       0.935959
     1455.000000       0.935219
     1455.100000       0.934450
     1455.200000       0.933658
     1455.300000       0.932839
     1455.400000       0.932009
     1455.500000       0.931179
     1455.600000       0.930339
     1455.700000       0.929474
     1455.800000       0.928611
     1455.900000       0.927821
     1456.000000       0.927052
     1456.100000       0.926308
     1456.200000       0.925578
     1456.300000       0.924861
     1456.400000       0.924158
     1456.500000       0.923452
     1456.600000       0.922744
     1456.700000       0.922030
     1456.800000       0.921310
     1456.900000       0.920571
     1457.000000       0.919808
     1457.100000       0.919020
     1457.200000       0.918204
     1457.300000       0.917361
     1457.400000       0.916489
     1457.500000       0.915594
     1457.600000       0.914681
     1457.700000       0.913752
     1457.800000       0.912810
     1457.900000       0.911858
     1458.000000       0.910905
     1458.100000       0.909952
     1458.200000       0.909011
     1458.300000       0.908079
     1458.400000       0.907151
     1458.500000       0.906228
     1458.600000       0.905304
     1458.700000       0.904369
     1458.800000       0.903452
     1458.900000       0.902576
     1459.000000       0.901704
     1459.100000       0.900806
     1459.200000       0.899904
     1459.300000       0.899018
     1459.400000       0.898142
     1459.500000       0.897276
     1459.600000       0.896420
     1459.700000       0.895581
     1459.800000       0.894758
     1459.900000       0.893953
     1460.000000       0.893165
     1460.100000       0.892404
     1460.200000       0.891685
     1460.300000       0.891002
     1460.400000       0.890373
     1460.500000       0.889785
     1460.600000       0.889247
     1460.700000       0.888751
     1460.800000       0.888300
     1460.900000       0.887879
     1461.000000       0.887464
     1461.100000       0.887069
     1461.200000       0.886726
     1461.300000       0.886419
     1461.400000       0.886112
     1461.500000       0.885807
     1461.600000       0.885492
     1461.700000       0.885167
     1461.800000       0.884824
     1461.900000       0.884457
     1462.000000       0.884071
     1462.100000       0.883666
     1462.200000       0.883242
     1462.300000       0.882799
     1462.400000       0.882343
     1462.500000       0.881878
     1462.600000       0.881410
     1462.700000       0.880956
     1462.800000       0.880516
     1462.900000       0.880112
     1463.000000       0.879738
     1463.100000       0.879374
     1463.200000       0.879013
     1463.300000       0.878725
     1463.400000       0.878502
     1463.500000       0.878329
     1463.600000       0.878185
     1463.700000       0.878089
     1463.800000       0.878034
     1463.900000       0.878005
     1464.000000       0.878013
     1464.100000       0.878040
     1464.200000       0.878080
     1464.300000       0.878145
     1464.400000       0.878212
     1464.500000       0.878283
     1464.600000       0.878352
     1464.700000       0.878412
     1464.800000       0.878466
     1464.900000       0.878525
     1465.000000       0.878558
     1465.100000       0.878566
     1465.200000       0.878575
     1465.300000       0.878623
     1465.400000       0.878704
     1465.500000       0.878793
     1465.600000       0.878901
     1465.700000       0.879035
     1465.800000       0.879202
     1465.900000       0.879400
     1466.000000       0.879639
     1466.100000       0.879917
     1466.200000       0.880245
     1466.300000       0.880607
     1466.400000       0.881008
     1466.500000       0.881446
     1466.600000       0.881929
     1466.700000       0.882446
     1466.800000       0.882993
     1466.900000       0.883564
     1467.000000       0.884157
     1467.100000       0.884758
     1467.200000       0.885368
     1467.300000       0.885983
     1467.400000       0.886592
     1467.500000       0.887195
     1467.600000       0.887768
     1467.700000       0.888302
     1467.800000       0.888839
     1467.900000       0.889392
     1468.000000       0.889948
     1468.100000       0.890499
     1468.200000       0.891052
     1468.300000       0.891610
     1468.400000       0.892182
     1468.500000       0.892808
     1468.600000       0.893479
     1468.700000       0.894154
     1468.800000       0.894838
     1468.900000       0.895565
     1469.000000       0.896344
     1469.100000       0.897155
     1469.200000       0.898035
     1469.300000       0.898958
     1469.400000       0.899882
     1469.500000       0.900827
     1469.600000       0.901833
     1469.700000       0.902857
     1469.800000       0.903866
     1469.900000       0.904863
     1470.000000       0.905819
     1470.100000       0.906741
     1470.200000       0.907610
     1470.300000       0.908432
     1470.400000       0.909191
     1470.500000       0.909890
     1470.600000       0.910533
     1470.700000       0.911120
     1470.800000       0.911666
     1470.900000       0.912181
     1471.000000       0.912665
     1471.100000       0.913121
     1471.200000       0.913556
     1471.300000       0.913984
     1471.400000       0.914400
     1471.500000       0.914818
     1471.600000       0.915248
     1471.700000       0.915695
     1471.800000       0.916165
     1471.900000       0.916636
     1472.000000       0.917106
     1472.100000       0.917560
     1472.200000       0.917995
     1472.300000       0.918392
     1472.400000       0.918729
     1472.500000       0.919006
     1472.600000       0.919155
     1472.700000       0.919252
     1472.800000       0.919248
     1472.900000       0.919092
     1473.000000       0.918857
     1473.100000       0.918448
     1473.200000       0.917922
     1473.300000       0.917259
     1473.400000       0.916488
     1473.500000       0.915571
     1473.600000       0.914555
     1473.700000       0.913499
     1473.800000       0.912374
     1473.900000       0.911184
     1474.000000       0.909930
     1474.100000       0.908631
     1474.200000       0.907283
     1474.300000       0.905887
     1474.400000       0.904443
     1474.500000       0.902940
     1474.600000       0.901376
     1474.700000       0.899737
     1474.800000       0.898009
     1474.900000       0.896184
     1475.000000       0.894240
     1475.100000       0.892174
     1475.200000       0.889980
     1475.300000       0.887631
     1475.400000       0.885106
     1475.500000       0.882416
     1475.600000       0.879577
     1475.700000       0.876534
     1475.800000       0.873328
     1475.900000       0.869942
     1476.000000       0.866389
     1476.100000       0.862667
     1476.200000       0.858820
     1476.300000       0.854858
     1476.400000       0.850776
     1476.500000       0.846605
     1476.600000       0.842340
     1476.700000       0.837981
     1476.800000       0.833534
     1476.900000       0.828955
     1477.000000       0.824234
     1477.100000       0.819332
     1477.200000       0.814120
     1477.300000       0.808828
     1477.400000       0.803751
     1477.500000       0.798813
     1477.600000       0.793824
     1477.700000       0.788806
     1477.800000       0.783681
     1477.900000       0.778429
     1478.000000       0.773088
     1478.100000       0.767650
     1478.200000       0.762133
     1478.300000       0.756506
     1478.400000       0.750818
     1478.500000       0.745069
     1478.600000       0.739270
     1478.700000       0.733454
     1478.800000       0.727614
     1478.900000       0.721748
     1479.000000       0.715856
     1479.100000       0.709938
     1479.200000       0.703980
     1479.300000       0.697987
     1479.400000       0.691946
     1479.500000       0.685871
     1479.600000       0.679770
     1479.700000       0.673641
     1479.800000       0.667489
     1479.900000       0.661311
     1480.000000       0.655100
     1480.100000       0.648854
     1480.200000       0.642582
     1480.300000       0.636291
     1480.400000       0.629980
     1480.500000       0.623644
     1480.600000       0.617290
     1480.700000       0.610913
     1480.800000       0.604515
     1480.900000       0.598095
     1481.000000       0.591655
     1481.100000       0.585190
     1481.200000       0.578702
     1481.300000       0.572181
     1481.400000       0.565624
     1481.500000       0.559053
     1481.600000       0.552469
     1481.700000       0.545883
     1481.800000       0.539308
     1481.900000       0.532739
     1482.000000       0.526180
     1482.100000       0.519630
     1482.200000       0.513094
     1482.300000       0.506568
     1482.400000       0.500065
     1482.500000       0.493596
     1482.600000       0.487145
     1482.700000       0.480721
     1482.800000       0.474326
     1482.900000       0.467972
     1483.000000       0.461649
     1483.100000       0.455376
     1483.200000       0.449134
     1483.300000       0.442931
     1483.400000       0.436765
     1483.500000       0.430634
     1483.600000       0.424539
     1483.700000       0.418473
     1483.800000       0.412436
     1483.900000       0.406426
     1484.000000       0.400441
     1484.100000       0.394485
     1484.200000       0.388564
     1484.300000       0.382673
     1484.400000       0.376811
     1484.500000       0.370981
     1484.600000       0.365196
     1484.700000       0.359452
     1484.800000       0.353753
     1484.900000       0.348115
     1485.000000       0.342516
     1485.100000       0.336958
     1485.200000       0.331437
     1485.300000       0.325967
     1485.400000       0.320547
     1485.500000       0.315186
     1485.600000       0.309881
     1485.700000       0.304633
     1485.800000       0.299439
     1485.900000       0.294304
     1486.000000       0.289226
     1486.100000       0.284211
     1486.200000       0.279258
     1486.300000       0.274369
     1486.400000       0.269550
     1486.500000       0.264797
     1486.600000       0.260108
     1486.700000       0.255488
     1486.800000       0.250932
     1486.900000       0.246440
     1487.000000       0.242001
     1487.100000       0.237636
     1487.200000       0.233326
     1487.300000       0.229082
     1487.400000       0.224884
     1487.500000       0.220743
     1487.600000       0.216656
     1487.700000       0.212627
     1487.800000       0.208654
     1487.900000       0.204740
     1488.000000       0.200884
     1488.100000       0.197089
     1488.200000       0.193354
     1488.300000       0.189676
     1488.400000       0.186049
     1488.500000       0.182477
     1488.600000       0.178976
     1488.700000       0.175542
     1488.800000       0.172164
     1488.900000       0.168861
     1489.000000       0.165626
     1489.100000       0.162459
     1489.200000       0.159346
     1489.300000       0.156297
     1489.400000       0.153299
     1489.500000       0.150363
     1489.600000       0.147470
     1489.700000       0.144630
     1489.800000       0.141841
     1489.900000       0.139099
     1490.000000       0.136407
     1490.100000       0.133752
     1490.200000       0.131129
     1490.300000       0.128546
     1490.400000       0.126006
     1490.500000       0.123508
     1490.600000       0.121052
     1490.700000       0.118639
     1490.800000       0.116278
     1490.900000       0.113961
     1491.000000       0.111684
     1491.100000       0.109456
     1491.200000       0.107272
     1491.300000       0.105137
     1491.400000       0.103040
     1491.500000       0.100995
     1491.600000       0.098994
     1491.700000       0.097030
     1491.800000       0.095103
     1491.900000       0.093212
     1492.000000       0.091359
     1492.100000       0.089539
     1492.200000       0.087753
     1492.300000       0.085998
     1492.400000       0.084270
     1492.500000       0.082568
     1492.600000       0.080897
     1492.700000       0.079261
     1492.800000       0.077660
     1492.900000       0.076093
     1493.000000       0.074557
     1493.100000       0.073055
     1493.200000       0.071581
     1493.300000       0.070138
     1493.400000       0.068730
     1493.500000       0.067365
     1493.600000       0.066033
     1493.700000       0.064735
     1493.800000       0.063471
     1493.900000       0.062229
     1494.000000       0.061019
     1494.100000       0.059829
     1494.200000       0.058662
     1494.300000       0.057513
     1494.400000       0.056379
     1494.500000       0.055259
     1494.600000       0.054155
     1494.700000       0.053065
     1494.800000       0.051997
     1494.900000       0.050949
     1495.000000       0.049924
     1495.100000       0.048921
     1495.200000       0.047944
     1495.300000       0.046998
     1495.400000       0.046078
     1495.500000       0.045182
     1495.600000       0.044312
     1495.700000       0.043462
     1495.800000       0.042628
     1495.900000       0.041814
     1496.000000       0.041021
     1496.100000       0.040244
     1496.200000       0.039490
     1496.300000       0.038754
     1496.400000       0.038037
     1496.500000       0.037338
     1496.600000       0.036657
     1496.700000       0.035989
     1496.800000       0.035336
     1496.900000       0.034698
     1497.000000       0.034072
     1497.100000       0.033459
     1497.200000       0.032857
     1497.300000       0.032266
     1497.400000       0.031685
     1497.500000       0.031115
     1497.600000       0.030556
     1497.700000       0.030005
     1497.800000       0.029466
     1497.900000       0.028938
     1498.000000       0.028426
     1498.100000       0.027929
     1498.200000       0.027448
     1498.300000       0.026982
     1498.400000       0.026527
     1498.500000       0.026086
     1498.600000       0.025654
     1498.700000       0.025235
     1498.800000       0.024825
     1498.900000       0.024427
     1499.000000       0.024038
     1499.100000       0.023658
     1499.200000       0.023287
     1499.300000       0.022924
     1499.400000       0.022569
     1499.500000       0.022222
     1499.600000       0.021881
     1499.700000       0.021547
     1499.800000       0.021218
     1499.900000       0.020895
     1500.000000       0.020578
     1500.100000       0.020266
     1500.200000       0.019960
     1500.300000       0.019661
     1500.400000       0.019368
     1500.500000       0.019082
     1500.600000       0.018804
     1500.700000       0.018545
     1500.800000       0.018295
     1500.900000       0.018055
     1501.000000       0.017821
     1501.100000       0.017591
     1501.200000       0.017367
     1501.300000       0.017147
     1501.400000       0.016932
     1501.500000       0.016722
     1501.600000       0.016515
     1501.700000       0.016312
     1501.800000       0.016111
     1501.900000       0.015913
     1502.000000       0.015715
     1502.100000       0.015518
     1502.200000       0.015323
     1502.300000       0.015129
     1502.400000       0.014936
     1502.500000       0.014745
     1502.600000       0.014555
     1502.700000       0.014368
     1502.800000       0.014183
     1502.900000       0.014001
     1503.000000       0.013823
     1503.100000       0.013648
     1503.200000       0.013478
     1503.300000       0.013313
     1503.400000       0.013153
     1503.500000       0.012998
     1503.600000       0.012849
     1503.700000       0.012705
     1503.800000       0.012565
     1503.900000       0.012430
     1504.000000       0.012298
     1504.100000       0.012170
     1504.200000       0.012044
     1504.300000       0.011920
     1504.400000       0.011797
     1504.500000       0.011674
     1504.600000       0.011553
     1504.700000       0.011431
     1504.800000       0.011309
     1504.900000       0.011187
     1505.000000       0.011064
     1505.100000       0.010942
     1505.200000       0.010820
     1505.300000       0.010700
     1505.400000       0.010581
     1505.500000       0.010464
     1505.600000       0.010350
     1505.700000       0.010238
     1505.800000       0.010128
     1505.900000       0.010022
     1506.000000       0.009918
     1506.100000       0.009815
     1506.200000       0.009715
     1506.300000       0.009616
     1506.400000       0.009519
     1506.500000       0.009421
     1506.600000       0.009323
     1506.700000       0.009223
     1506.800000       0.009122
     1506.900000       0.009019
     1507.000000       0.008913
     1507.100000       0.008805
     1507.200000       0.008696
     1507.300000       0.008585
     1507.400000       0.008473
     1507.500000       0.008361
     1507.600000       0.008250
     1507.700000       0.008141
     1507.800000       0.008035
     1507.900000       0.007933
     1508.000000       0.007834
     1508.100000       0.007742
     1508.200000       0.007655
     1508.300000       0.007573
     1508.400000       0.007498
     1508.500000       0.007428
     1508.600000       0.007363
     1508.700000       0.007303
     1508.800000       0.007247
     1508.900000       0.007193
     1509.000000       0.007141
     1509.100000       0.007090
     1509.200000       0.007038
     1509.300000       0.006986
     1509.400000       0.006931
     1509.500000       0.006875
     1509.600000       0.006816
     1509.700000       0.006755
     1509.800000       0.006693
     1509.900000       0.006629
     1510.000000       0.006564
     1510.100000       0.006499
     1510.200000       0.006433
     1510.300000       0.006369
     1510.400000       0.006306
     1510.500000       0.006244
     1510.600000       0.006186
     1510.700000       0.006130
     1510.800000       0.006077
     1510.900000       0.006026
     1511.000000       0.005978
     1511.100000       0.005932
     1511.200000       0.005887
     1511.300000       0.005843
     1511.400000       0.005800
     1511.500000       0.005756
     1511.600000       0.005712
     1511.700000       0.005667
     1511.800000       0.005621
     1511.900000       0.005574
     1512.000000       0.005525
     1512.100000       0.005475
     1512.200000       0.005425
     1512.300000       0.005374
     1512.400000       0.005323
     1512.500000       0.005272
     1512.600000       0.005222
     1512.700000       0.005174
     1512.800000       0.005127
     1512.900000       0.005083
     1513.000000       0.005040
     1513.100000       0.004999
     1513.200000       0.004960
     1513.300000       0.004922
     1513.400000       0.004885
     1513.500000       0.004850
     1513.600000       0.004814
     1513.700000       0.004778
     1513.800000       0.004742
     1513.900000       0.004704
     1514.000000       0.004665
     1514.100000       0.004625
     1514.200000       0.004584
     1514.300000       0.004541
     1514.400000       0.004498
     1514.500000       0.004453
     1514.600000       0.004407
     1514.700000       0.004359
     1514.800000       0.004310
     1514.900000       0.004259
     1515.000000       0.004206
     1515.100000       0.004153
     1515.200000       0.004104
     1515.300000       0.004057
     1515.400000       0.004013
     1515.500000       0.003972
     1515.600000       0.003932
     1515.700000       0.003892
     1515.800000       0.003851
     1515.900000       0.003809
     1516.000000       0.003767
     1516.100000       0.003724
     1516.200000       0.003680
     1516.300000       0.003637
     1516.400000       0.003593
     1516.500000       0.003549
     1516.600000       0.003506
     1516.700000       0.003463
     1516.800000       0.003422
     1516.900000       0.003382
     1517.000000       0.003344
     1517.100000       0.003309
     1517.200000       0.003277
     1517.300000       0.003249
     1517.400000       0.003223
     1517.500000       0.003198
     1517.600000       0.003175
     1517.700000       0.003152
     1517.800000       0.003130
     1517.900000       0.003108
     1518.000000       0.003087
     1518.100000       0.003066
     1518.200000       0.003046
     1518.300000       0.003025
     1518.400000       0.003005
     1518.500000       0.002984
     1518.600000       0.002964
     1518.700000       0.002943
     1518.800000       0.002923
     1518.900000       0.002904
     1519.000000       0.002887
     1519.100000       0.002870
     1519.200000       0.002855
     1519.300000       0.002839
     1519.400000       0.002823
     1519.500000       0.002806
     1519.600000       0.002788
     1519.700000       0.002770
     1519.800000       0.002751
     1519.900000       0.002731
     1520.000000       0.002711
     1520.100000       0.002690
     1520.200000       0.002669
     1520.300000       0.002647
     1520.400000       0.002626
     1520.500000       0.002606
     1520.600000       0.002585
     1520.700000       0.002567
     1520.800000       0.002551
     1520.900000       0.002537
     1521.000000       0.002525
     1521.100000       0.002515
     1521.200000       0.002505
     1521.300000       0.002497
     1521.400000       0.002489
     1521.500000       0.002482
     1521.600000       0.002475
     1521.700000       0.002468
     1521.800000       0.002460
     1521.900000       0.002452
     1522.000000       0.002443
     1522.100000       0.002432
     1522.200000       0.002421
     1522.300000       0.002409
     1522.400000       0.002395
     1522.500000       0.002383
     1522.600000       0.002373
     1522.700000       0.002365
     1522.800000       0.002361
     1522.900000       0.002359
     1523.000000       0.002358
     1523.100000       0.002359
     1523.200000       0.002361
     1523.300000       0.002363
     1523.400000       0.002366
     1523.500000       0.002369
     1523.600000       0.002373
     1523.700000       0.002376
     1523.800000       0.002380
     1523.900000       0.002383
     1524.000000       0.002383
     1524.100000       0.002383
     1524.200000       0.002383
     1524.300000       0.002378
     1524.400000       0.002371
     1524.500000       0.002360
     1524.600000       0.002346
     1524.700000       0.002329
     1524.800000       0.002309
     1524.900000       0.002287
     1525.000000       0.002260
     1525.100000       0.002235
     1525.200000       0.002208
     1525.300000       0.002180
     1525.400000       0.002153
     1525.500000       0.002126
     1525.600000       0.002100
     1525.700000       0.002075
     1525.800000       0.002052
     1525.900000       0.002030
     1526.000000       0.002010
     1526.100000       0.001993
     1526.200000       0.001977
     1526.300000       0.001965
     1526.400000       0.001957
     1526.500000       0.001953
     1526.600000       0.001951
     1526.700000       0.001950
     1526.800000       0.001951
     1526.900000       0.001954
     1527.000000       0.001956
     1527.100000       0.001960
     1527.200000       0.001964
     1527.300000       0.001969
     1527.400000       0.001974
     1527.500000       0.001980
     1527.600000       0.001986
     1527.700000       0.001992
     1527.800000       0.001999
     1527.900000       0.002007
     1528.000000       0.002016
     1528.100000       0.002026
     1528.200000       0.002038
     1528.300000       0.002052
     1528.400000       0.002066
     1528.500000       0.002083
     1528.600000       0.002098
     1528.700000       0.002113
     1528.800000       0.002126
     1528.900000       0.002136
     1529.000000       0.002145
     1529.100000       0.002152
     1529.200000       0.002157
     1529.300000       0.002159
     1529.400000       0.002160
     1529.500000       0.002160
     1529.600000       0.002161
     1529.700000       0.002161
     1529.800000       0.002161
     1529.900000       0.002164
     1530.000000       0.002167
     1530.100000       0.002173
     1530.200000       0.002180
     1530.300000       0.002188
     1530.400000       0.002199
     1530.500000       0.002210
     1530.600000       0.002222
     1530.700000       0.002234
     1530.800000       0.002246
     1530.900000       0.002255
     1531.000000       0.002261
     1531.100000       0.002264
     1531.200000       0.002264
     1531.300000       0.002258
     1531.400000       0.002248
     1531.500000       0.002234
     1531.600000       0.002216
     1531.700000       0.002196
     1531.800000       0.002173
     1531.900000       0.002150
     1532.000000       0.002127
     1532.100000       0.002106
     1532.200000       0.002086
     1532.300000       0.002068
     1532.400000       0.002055
     1532.500000       0.002044
     1532.600000       0.002039
     1532.700000       0.002037
     1532.800000       0.002036
     1532.900000       0.002039
     1533.000000       0.002046
     1533.100000       0.002054
     1533.200000       0.002063
     1533.300000       0.002072
     1533.400000       0.002080
     1533.500000       0.002085
     1533.600000       0.002085
     1533.700000       0.002085
     1533.800000       0.002083
     1533.900000       0.002074
     1534.000000       0.002063
     1534.100000       0.002049
     1534.200000       0.002033
     1534.300000       0.002016
     1534.400000       0.001999
     1534.500000       0.001983
     1534.600000       0.001967
     1534.700000       0.001953
     1534.800000       0.001940
     1534.900000       0.001930
     1535.000000       0.001921
     1535.100000       0.001914
     1535.200000       0.001909
     1535.300000       0.001905
     1535.400000       0.001901
     1535.500000       0.001897
     1535.600000       0.001894
     1535.700000       0.001889
     1535.800000       0.001882
     1535.900000       0.001874
     1536.000000       0.001863
     1536.100000       0.001850
     1536.200000       0.001835
     1536.300000       0.001818
     1536.400000       0.001801
     1536.500000       0.001784
     1536.600000       0.001767
     1536.700000       0.001751
     1536.800000       0.001737
     1536.900000       0.001725
     1537.000000       0.001720
     1537.100000       0.001708
     1537.200000       0.001703
     1537.300000       0.001702
     1537.400000       0.001703
     1537.500000       0.001710
     1537.600000       0.001709
     1537.700000       0.001714
     1537.800000       0.001719
     1537.900000       0.001725
     1538.000000       0.001728
     1538.100000       0.001729
     1538.200000       0.001729
     1538.300000       0.001727
     1538.400000       0.001719
     1538.500000       0.001709
     1538.600000       0.001695
     1538.700000       0.001679
     1538.800000       0.001661
     1538.900000       0.001640
     1539.000000       0.001623
     1539.100000       0.001604
     1539.200000       0.001586
     1539.300000       0.001569
     1539.400000       0.001554
     1539.500000       0.001541
     1539.600000       0.001530
     1539.700000       0.001521
     1539.800000       0.001513
     1539.900000       0.001507
     1540.000000       0.001503
     1540.100000       0.001499
     1540.200000       0.001496
     1540.300000       0.001492
     1540.400000       0.001487
     1540.500000       0.001482
     1540.600000       0.001475
     1540.700000       0.001466
     1540.800000       0.001456
     1540.900000       0.001444
     1541.000000       0.001431
     1541.100000       0.001417
     1541.200000       0.001403
     1541.300000       0.001392
     1541.400000       0.001385
     1541.500000       0.001380
     1541.600000       0.001381
     1541.700000       0.001385
     1541.800000       0.001392
     1541.900000       0.001402
     1542.000000       0.001415
     1542.100000       0.001429
     1542.200000       0.001446
     1542.300000       0.001464
     1542.400000       0.001484
     1542.500000       0.001505
     1542.600000       0.001527
     1542.700000       0.001549
     1542.800000       0.001570
     1542.900000       0.001592
     1543.000000       0.001610
     1543.100000       0.001628
     1543.200000       0.001640
     1543.300000       0.001648
     1543.400000       0.001652
     1543.500000       0.001652
     1543.600000       0.001647
     1543.700000       0.001643
     1543.800000       0.001637
     1543.900000       0.001632
     1544.000000       0.001630
     1544.100000       0.001630
     1544.200000       0.001628
     1544.300000       0.001631
     1544.400000       0.001634
     1544.500000       0.001638
     1544.600000       0.001643
     1544.700000       0.001647
     1544.800000       0.001650
     1544.900000       0.001651
     1545.000000       0.001649
     1545.100000       0.001645
     1545.200000       0.001638
     1545.300000       0.001625
     1545.400000       0.001609
     1545.500000       0.001588
     1545.600000       0.001565
     1545.700000       0.001539
     1545.800000       0.001510
     1545.900000       0.001482
     1546.000000       0.001454
     1546.100000       0.001427
     1546.200000       0.001402
     1546.300000       0.001380
     1546.400000       0.001362
     1546.500000       0.001347
     1546.600000       0.001338
     1546.700000       0.001332
     1546.800000       0.001329
     1546.900000       0.001331
     1547.000000       0.001330
     1547.100000       0.001340
     1547.200000       0.001346
     1547.300000       0.001352
     1547.400000       0.001357
     1547.500000       0.001359
     1547.600000       0.001358
     1547.700000       0.001354
     1547.800000       0.001347
     1547.900000       0.001334
     1548.000000       0.001318
     1548.100000       0.001298
     1548.200000       0.001275
     1548.300000       0.001250
     1548.400000       0.001223
     1548.500000       0.001195
     1548.600000       0.001166
     1548.700000       0.001140
     1548.800000       0.001115
     1548.900000       0.001095
     1549.000000       0.001092
     1549.100000       0.001093
     1549.200000       0.001096
     1549.300000       0.001113
     1549.400000       0.001139
     1549.500000       0.001165
     1549.600000       0.001192
     1549.700000       0.001215
     1549.800000       0.001236
     1549.900000       0.001250
     1550.000000       0.001258
     1550.100000       0.001263
     1550.200000       0.001262
     1550.300000       0.001255
     1550.400000       0.001246
     1550.500000       0.001234
     1550.600000       0.001221
     1550.700000       0.001209
     1550.800000       0.001197
     1550.900000       0.001190
     1551.000000       0.001185
     1551.100000       0.001182
     1551.200000       0.001185
     1551.300000       0.001191
     1551.400000       0.001198
     1551.500000       0.001211
     1551.600000       0.001224
     1551.700000       0.001238
     1551.800000       0.001251
     1551.900000       0.001260
     1552.000000       0.001267
     1552.100000       0.001269
     1552.200000       0.001263
     1552.300000       0.001252
     1552.400000       0.001235
     1552.500000       0.001211
     1552.600000       0.001184
     1552.700000       0.001155
     1552.800000       0.001118
     1552.900000       0.001055
     1553.000000       0.000984
