109,   109, MVIRI VIS channel from srf_MET7_2011078_2011079_1801-Release_S10EE_10.dat
Number of data points:
793
Wavenumber (cm-1)   Filter response
     8442.380800       0.000000
     8449.514200       0.000000
     8456.659600       0.000004
     8463.817200       0.000056
     8470.986900       0.000167
     8478.168700       0.000333
     8485.362700       0.000555
     8492.569000       0.000829
     8499.787500       0.001156
     8507.018300       0.001532
     8514.261400       0.001957
     8521.516800       0.002429
     8528.784600       0.002947
     8536.064900       0.003510
     8543.357500       0.004116
     8550.662700       0.004764
     8557.980300       0.005454
     8565.310500       0.006183
     8572.653200       0.006951
     8580.008600       0.007757
     8587.376600       0.008600
     8594.757200       0.009479
     8602.150500       0.010392
     8609.556600       0.011340
     8616.975400       0.012321
     8624.407100       0.013334
     8631.851500       0.014379
     8639.308900       0.015455
     8646.779100       0.016562
     8654.262200       0.017698
     8661.758300       0.018863
     8669.267400       0.020056
     8676.789600       0.021277
     8684.324800       0.022525
     8691.873100       0.023800
     8699.434500       0.025102
     8707.009100       0.026429
     8714.596900       0.027782
     8722.198000       0.029159
     8729.812300       0.030561
     8737.439900       0.031987
     8745.080900       0.033438
     8752.735200       0.034911
     8760.403000       0.036408
     8768.084200       0.037928
     8775.778900       0.039470
     8783.487000       0.041035
     8791.208800       0.042623
     8798.944100       0.044232
     8806.693100       0.045863
     8814.455700       0.047516
     8822.232000       0.049190
     8830.022100       0.050886
     8837.825900       0.052603
     8845.643500       0.054341
     8853.475000       0.056100
     8861.320300       0.057880
     8869.179600       0.059681
     8877.052800       0.061503
     8884.940000       0.063346
     8892.841300       0.065209
     8900.756600       0.067094
     8908.686000       0.068999
     8916.629500       0.070924
     8924.587200       0.072871
     8932.559200       0.074837
     8940.545400       0.076825
     8948.545900       0.078834
     8956.560700       0.080863
     8964.589900       0.082913
     8972.633500       0.084984
     8980.691500       0.087076
     8988.764000       0.089189
     8996.851100       0.091323
     9004.952700       0.093478
     9013.068900       0.095654
     9021.199800       0.097851
     9029.345400       0.100070
     9037.505600       0.102310
     9045.680700       0.104571
     9053.870500       0.106854
     9062.075200       0.109159
     9070.294800       0.111486
     9078.529300       0.113834
     9086.778700       0.116204
     9095.043200       0.118596
     9103.322700       0.121010
     9111.617300       0.123446
     9119.927000       0.125905
     9128.251900       0.128386
     9136.592100       0.130889
     9144.947400       0.133415
     9153.318100       0.135963
     9161.704100       0.138534
     9170.105500       0.141128
     9178.522300       0.143745
     9186.954500       0.146384
     9195.402300       0.149047
     9203.865600       0.151732
     9212.344500       0.154441
     9220.839100       0.157173
     9229.349300       0.159928
     9237.875300       0.162707
     9246.417000       0.165509
     9254.974500       0.168334
     9263.547900       0.171183
     9272.137200       0.174055
     9280.742500       0.176952
     9289.363700       0.179871
     9298.000900       0.182814
     9306.654300       0.185781
     9315.323700       0.188772
     9324.009300       0.191786
     9332.711200       0.194825
     9341.429200       0.197886
     9350.163600       0.200972
     9358.914400       0.204081
     9367.681500       0.207214
     9376.465100       0.210371
     9385.265100       0.213551
     9394.081700       0.216756
     9402.914900       0.219983
     9411.764700       0.223235
     9420.631200       0.226510
     9429.514400       0.229808
     9438.414300       0.233130
     9447.331100       0.236475
     9456.264800       0.239844
     9465.215300       0.243236
     9474.182900       0.246651
     9483.167400       0.250090
     9492.169000       0.253551
     9501.187600       0.257035
     9510.223500       0.260542
     9519.276500       0.264072
     9528.346800       0.267624
     9537.434400       0.271199
     9546.539400       0.274796
     9555.661700       0.278415
     9564.801500       0.282056
     9573.958800       0.285719
     9583.133700       0.289405
     9592.326100       0.293111
     9601.536200       0.296839
     9610.764100       0.300588
     9620.009600       0.304358
     9629.273000       0.308149
     9638.554200       0.311961
     9647.853400       0.315793
     9657.170400       0.319646
     9666.505600       0.323518
     9675.858700       0.327411
     9685.230000       0.331322
     9694.619500       0.335254
     9704.027200       0.339204
     9713.453100       0.343174
     9722.897400       0.347162
     9732.360100       0.351168
     9741.841200       0.355192
     9751.340800       0.359234
     9760.859000       0.363294
     9770.395700       0.367372
     9779.951100       0.371466
     9789.525200       0.375577
     9799.118100       0.379704
     9808.729800       0.383847
     9818.360300       0.388006
     9828.009800       0.392181
     9837.678300       0.396371
     9847.365800       0.400575
     9857.072400       0.404794
     9866.798200       0.409027
     9876.543200       0.413274
     9886.307500       0.417535
     9896.091000       0.421809
     9905.894000       0.426095
     9915.716400       0.430394
     9925.558300       0.434704
     9935.419800       0.439027
     9945.300800       0.443361
     9955.201600       0.447705
     9965.122100       0.452061
     9975.062300       0.456426
     9985.022500       0.460801
     9995.002500       0.465186
    10005.002500       0.469579
    10015.022500       0.473981
    10025.062700       0.478391
    10035.122900       0.482808
    10045.203400       0.487233
    10055.304200       0.491666
    10065.425300       0.496104
    10075.566800       0.500548
    10085.728700       0.504998
    10095.911200       0.509454
    10106.114200       0.513914
    10116.337900       0.518378
    10126.582300       0.522846
    10136.847400       0.527317
    10147.133400       0.531792
    10157.440300       0.536269
    10167.768200       0.540748
    10178.117000       0.545229
    10188.487000       0.549711
    10198.878100       0.554193
    10209.290500       0.558676
    10219.724100       0.563159
    10230.179000       0.567640
    10240.655400       0.572121
    10251.153300       0.576601
    10261.672700       0.581078
    10272.213700       0.585552
    10282.776300       0.590024
    10293.360800       0.594492
    10303.967000       0.598956
    10314.595200       0.603415
    10325.245200       0.607870
    10335.917300       0.612320
    10346.611500       0.616763
    10357.327800       0.621200
    10368.066400       0.625631
    10378.827200       0.630054
    10389.610400       0.634469
    10400.416000       0.638876
    10411.244100       0.643275
    10422.094800       0.647664
    10432.968200       0.652044
    10443.864200       0.656413
    10454.783100       0.660772
    10465.724800       0.665120
    10476.689400       0.669456
    10487.677000       0.673781
    10498.687700       0.678093
    10509.721500       0.682392
    10520.778500       0.686677
    10531.858900       0.690949
    10542.962600       0.695206
    10554.089700       0.699448
    10565.240400       0.703676
    10576.414600       0.707887
    10587.612500       0.712082
    10598.834100       0.716261
    10610.079600       0.720423
    10621.348900       0.724567
    10632.642200       0.728693
    10643.959600       0.732801
    10655.301000       0.736889
    10666.666700       0.740959
    10678.056600       0.745009
    10689.470900       0.749038
    10700.909600       0.753047
    10712.372800       0.757035
    10723.860600       0.761001
    10735.373100       0.764946
    10746.910300       0.768868
    10758.472300       0.772768
    10770.059200       0.776644
    10781.671200       0.780497
    10793.308100       0.784325
    10804.970300       0.788130
    10816.657700       0.791910
    10828.370300       0.795664
    10840.108400       0.799393
    10851.871900       0.803096
    10863.661100       0.806773
    10875.475800       0.810423
    10887.316300       0.814046
    10899.182600       0.817641
    10911.074700       0.821209
    10922.992900       0.824749
    10934.937100       0.828260
    10946.907500       0.831742
    10958.904100       0.835195
    10970.927000       0.838619
    10982.976400       0.842012
    10995.052200       0.845376
    11007.154700       0.848708
    11019.283700       0.852010
    11031.439600       0.855281
    11043.622300       0.858520
    11055.832000       0.861728
    11068.068600       0.864903
    11080.332400       0.868046
    11092.623400       0.871156
    11104.941700       0.874234
    11117.287400       0.877278
    11129.660500       0.880288
    11142.061300       0.883265
    11154.489700       0.886208
    11166.945800       0.889116
    11179.429800       0.891990
    11191.941800       0.894829
    11204.481800       0.897633
    11217.049900       0.900402
    11229.646300       0.903135
    11242.270900       0.905833
    11254.924000       0.908495
    11267.605600       0.911120
    11280.315800       0.913710
    11293.054800       0.916262
    11305.822500       0.918778
    11318.619100       0.921258
    11331.444800       0.923700
    11344.299500       0.926104
    11357.183400       0.928472
    11370.096600       0.930802
    11383.039300       0.933094
    11396.011400       0.935348
    11409.013100       0.937565
    11422.044500       0.939743
    11435.105800       0.941883
    11448.196900       0.943985
    11461.318100       0.946048
    11474.469300       0.948073
    11487.650800       0.950059
    11500.862600       0.952006
    11514.104800       0.953915
    11527.377500       0.955785
    11540.680900       0.957615
    11554.015000       0.959407
    11567.380000       0.961159
    11580.775900       0.962873
    11594.202900       0.964547
    11607.661100       0.966182
    11621.150500       0.967778
    11634.671300       0.969334
    11648.223600       0.970852
    11661.807600       0.972330
    11675.423200       0.973768
    11689.070700       0.975168
    11702.750100       0.976528
    11716.461600       0.977849
    11730.205300       0.979131
    11743.981200       0.980373
    11757.789500       0.981576
    11771.630400       0.982741
    11785.503800       0.983866
    11799.410000       0.984952
    11813.349100       0.986000
    11827.321100       0.987008
    11841.326200       0.987978
    11855.364600       0.988909
    11869.436200       0.989801
    11883.541300       0.990655
    11897.680000       0.991471
    11911.852300       0.992248
    11926.058400       0.992987
    11940.298500       0.993688
    11954.572600       0.994352
    11968.880900       0.994977
    11983.223500       0.995565
    11997.600500       0.996115
    12012.012000       0.996629
    12026.458200       0.997105
    12040.939200       0.997544
    12055.455100       0.997946
    12070.006000       0.998312
    12084.592100       0.998641
    12099.213600       0.998934
    12113.870400       0.999191
    12128.562800       0.999412
    12143.290800       0.999598
    12158.054700       0.999748
    12172.854500       0.999863
    12187.690400       0.999943
    12202.562500       0.999989
    12217.471000       1.000000
    12232.415900       0.999977
    12247.397400       0.999920
    12262.415700       0.999829
    12277.470800       0.999705
    12292.563000       0.999548
    12307.692300       0.999358
    12322.858900       0.999135
    12338.062900       0.998880
    12353.304500       0.998593
    12368.583800       0.998274
    12383.900900       0.997924
    12399.256000       0.997543
    12414.649300       0.997131
    12430.080800       0.996688
    12445.550700       0.996216
    12461.059200       0.995713
    12476.606400       0.995181
    12492.192400       0.994620
    12507.817400       0.994030
    12523.481500       0.993412
    12539.185000       0.992765
    12554.927800       0.992091
    12570.710200       0.991389
    12586.532400       0.990660
    12602.394500       0.989905
    12618.296500       0.989123
    12634.238800       0.988315
    12650.221400       0.987482
    12666.244500       0.986623
    12682.308200       0.985740
    12698.412700       0.984832
    12714.558200       0.983900
    12730.744700       0.982945
    12746.972600       0.981966
    12763.241900       0.980964
    12779.552700       0.979940
    12795.905300       0.978894
    12812.299800       0.977827
    12828.736400       0.976738
    12845.215200       0.975628
    12861.736300       0.974498
    12878.300100       0.973348
    12894.906500       0.972179
    12911.555800       0.970990
    12928.248200       0.969783
    12944.983800       0.968557
    12961.762800       0.967314
    12978.585300       0.966053
    12995.451600       0.964776
    13012.361700       0.963481
    13029.316000       0.962171
    13046.314400       0.960845
    13063.357300       0.959504
    13080.444700       0.958149
    13097.576900       0.956778
    13114.754100       0.955395
    13131.976400       0.953997
    13149.243900       0.952587
    13166.556900       0.951164
    13183.915600       0.949729
    13201.320100       0.948283
    13218.770700       0.946825
    13236.267400       0.945357
    13253.810500       0.943878
    13271.400100       0.942390
    13289.036500       0.940892
    13306.719900       0.939386
    13324.450400       0.937871
    13342.228200       0.936348
    13360.053400       0.934817
    13377.926400       0.933280
    13395.847300       0.931735
    13413.816200       0.930185
    13431.833400       0.928629
    13449.899100       0.927067
    13468.013500       0.925501
    13486.176700       0.923930
    13504.388900       0.922355
    13522.650400       0.920777
    13540.961400       0.919196
    13559.322000       0.917612
    13577.732500       0.916026
    13596.193100       0.914439
    13614.703900       0.912850
    13633.265200       0.911260
    13651.877100       0.909670
    13670.540000       0.908079
    13689.253900       0.906489
    13708.019200       0.904900
    13726.836000       0.903313
    13745.704500       0.901727
    13764.624900       0.900143
    13783.597500       0.898561
    13802.622500       0.896983
    13821.700100       0.895408
    13840.830400       0.893836
    13860.013900       0.892269
    13879.250500       0.890707
    13898.540700       0.889149
    13917.884500       0.887597
    13937.282200       0.886050
    13956.734100       0.884510
    13976.240400       0.882976
    13995.801300       0.881449
    14015.417000       0.879929
    14035.087700       0.878417
    14054.813800       0.876913
    14074.595400       0.875417
    14094.432700       0.873930
    14114.326000       0.872453
    14134.275600       0.870984
    14154.281700       0.869525
    14174.344400       0.868077
    14194.464200       0.866639
    14214.641100       0.865211
    14234.875400       0.863795
    14255.167500       0.862390
    14275.517500       0.860997
    14295.925700       0.859616
    14316.392300       0.858247
    14336.917600       0.856891
    14357.501800       0.855548
    14378.145200       0.854218
    14398.848100       0.852901
    14419.610700       0.851599
    14440.433200       0.850310
    14461.316000       0.849035
    14482.259200       0.847775
    14503.263200       0.846530
    14524.328200       0.845300
    14545.454500       0.844085
    14566.642400       0.842886
    14587.892000       0.841703
    14609.203800       0.840535
    14630.577900       0.839383
    14652.014700       0.838248
    14673.514300       0.837130
    14695.077100       0.836028
    14716.703500       0.834943
    14738.393500       0.833875
    14760.147600       0.832824
    14781.966000       0.831791
    14803.849000       0.830775
    14825.796900       0.829777
    14847.809900       0.828797
    14869.888500       0.827835
    14892.032800       0.826891
    14914.243100       0.825965
    14936.519800       0.825057
    14958.863100       0.824168
    14981.273400       0.823297
    15003.750900       0.822445
    15026.296000       0.821611
    15048.909000       0.820796
    15071.590100       0.820000
    15094.339600       0.819223
    15117.158000       0.818465
    15140.045400       0.817725
    15163.002300       0.817005
    15186.028900       0.816303
    15209.125500       0.815620
    15232.292500       0.814956
    15255.530100       0.814311
    15278.838800       0.813685
    15302.218800       0.813078
    15325.670500       0.812490
    15349.194200       0.811920
    15372.790200       0.811370
    15396.458800       0.810837
    15420.200500       0.810324
    15444.015400       0.809829
    15467.904100       0.809352
    15491.866800       0.808894
    15515.903800       0.808454
    15540.015500       0.808032
    15564.202300       0.807628
    15588.464500       0.807242
    15612.802500       0.806873
    15637.216600       0.806522
    15661.707100       0.806188
    15686.274500       0.805872
    15710.919100       0.805573
    15735.641200       0.805290
    15760.441300       0.805024
    15785.319700       0.804775
    15810.276700       0.804541
    15835.312700       0.804324
    15860.428200       0.804122
    15885.623500       0.803936
    15910.899000       0.803765
    15936.255000       0.803609
    15961.691900       0.803468
    15987.210200       0.803341
    16012.810200       0.803229
    16038.492400       0.803130
    16064.257000       0.803044
    16090.104600       0.802972
    16116.035500       0.802913
    16142.050000       0.802866
    16168.148700       0.802832
    16194.332000       0.802809
    16220.600200       0.802798
    16246.953700       0.802798
    16273.393000       0.802808
    16299.918500       0.802829
    16326.530600       0.802860
    16353.229800       0.802900
    16380.016400       0.802950
    16406.890900       0.803008
    16433.853700       0.803074
    16460.905300       0.803149
    16488.046200       0.803230
    16515.276600       0.803318
    16542.597200       0.803413
    16570.008300       0.803514
    16597.510400       0.803620
    16625.103900       0.803732
    16652.789300       0.803847
    16680.567100       0.803967
    16708.437800       0.804090
    16736.401700       0.804216
    16764.459300       0.804345
    16792.611300       0.804475
    16820.857900       0.804607
    16849.199700       0.804739
    16877.637100       0.804871
    16906.170800       0.805004
    16934.801000       0.805135
    16963.528400       0.805265
    16992.353400       0.805392
    17021.276600       0.805517
    17050.298400       0.805638
    17079.419300       0.805756
    17108.639900       0.805869
    17137.960600       0.805977
    17167.382000       0.806079
    17196.904600       0.806174
    17226.528900       0.806263
    17256.255400       0.806343
    17286.084700       0.806416
    17316.017300       0.806479
    17346.053800       0.806532
    17376.194600       0.806575
    17406.440400       0.806607
    17436.791600       0.806627
    17467.248900       0.806635
    17497.812800       0.806630
    17528.483800       0.806611
    17559.262500       0.806577
    17590.149500       0.806528
    17621.145400       0.806463
    17652.250700       0.806381
    17683.466000       0.806282
    17714.791900       0.806165
    17746.228900       0.806029
    17777.777800       0.805874
    17809.439000       0.805698
    17841.213200       0.805501
    17873.101000       0.805282
    17905.103000       0.805041
    17937.219700       0.804777
    17969.451900       0.804488
    18001.800200       0.804175
    18034.265100       0.803837
    18066.847300       0.803472
    18099.547500       0.803080
    18132.366300       0.802660
    18165.304300       0.802212
    18198.362100       0.801735
    18231.540600       0.801228
    18264.840200       0.800690
    18298.261700       0.800120
    18331.805700       0.799518
    18365.472900       0.798883
    18399.264000       0.798214
    18433.179700       0.797511
    18467.220700       0.796772
    18501.387600       0.795998
    18535.681200       0.795186
    18570.102100       0.794338
    18604.651200       0.793450
    18639.329000       0.792524
    18674.136300       0.791558
    18709.073900       0.790552
    18744.142500       0.789504
    18779.342700       0.788414
    18814.675400       0.787282
    18850.141400       0.786106
    18885.741300       0.784886
    18921.475900       0.783621
    18957.346000       0.782310
    18993.352300       0.780954
    19029.495700       0.779550
    19065.776900       0.778099
    19102.196800       0.776599
    19138.756000       0.775051
    19175.455400       0.773452
    19212.295900       0.771804
    19249.278200       0.770104
    19286.403100       0.768352
    19323.671500       0.766549
    19361.084200       0.764692
    19398.642100       0.762782
    19436.346000       0.760817
    19474.196700       0.758798
    19512.195100       0.756723
    19550.342100       0.754593
    19588.638600       0.752405
    19627.085400       0.750161
    19665.683400       0.747859
    19704.433500       0.745499
    19743.336600       0.743079
    19782.393700       0.740601
    19821.605600       0.738063
    19860.973200       0.735464
    19900.497500       0.732805
    19940.179500       0.730085
    19980.020000       0.727302
    20020.020000       0.724458
    20060.180500       0.721551
    20100.502500       0.718581
    20140.986900       0.715547
    20181.634700       0.712450
    20222.446900       0.709289
    20263.424500       0.706063
    20304.568500       0.702773
    20345.880000       0.699417
    20387.359800       0.695996
    20429.009200       0.692509
    20470.829100       0.688957
    20512.820500       0.685338
    20554.984600       0.681653
    20597.322300       0.677901
    20639.834900       0.674082
    20682.523300       0.670196
    20725.388600       0.666244
    20768.432000       0.662224
    20811.654500       0.658137
    20855.057400       0.653982
    20898.641600       0.649761
    20942.408400       0.645471
    20986.358900       0.641115
    21030.494200       0.636690
    21074.815600       0.632199
    21119.324200       0.627640
    21164.021200       0.623015
    21208.907700       0.618322
    21253.985100       0.613562
    21299.254500       0.608736
    21344.717200       0.603843
    21390.374300       0.598883
    21436.227200       0.593858
    21482.277100       0.588768
    21528.525300       0.583611
    21574.973000       0.578390
    21621.621600       0.573104
    21668.472400       0.567754
    21715.526600       0.562341
    21762.785600       0.556864
    21810.250800       0.551324
    21857.923500       0.545722
    21905.805000       0.540058
    21953.896800       0.534334
    22002.200200       0.528549
    22050.716600       0.522704
    22099.447500       0.516801
    22148.394200       0.510839
    22197.558300       0.504820
    22246.941000       0.498744
    22296.544000       0.492613
    22346.368700       0.486426
    22396.416600       0.480186
    22446.689100       0.473893
    22497.187900       0.467548
    22547.914300       0.461153
    22598.870100       0.454707
    22650.056600       0.448214
    22701.475600       0.441673
    22753.128600       0.435085
    22805.017100       0.428453
    22857.142900       0.421778
    22909.507400       0.415060
    22962.112500       0.408302
    23014.959700       0.401504
    23068.050700       0.394669
    23121.387300       0.387797
    23174.971000       0.380891
    23228.803700       0.373952
    23282.887100       0.366981
    23337.222900       0.359981
    23391.812900       0.352953
    23446.658900       0.345899
    23501.762600       0.338822
    23557.126000       0.331722
    23612.750900       0.324602
    23668.639100       0.317464
    23724.792400       0.310310
    23781.212800       0.303142
    23837.902300       0.295963
    23894.862600       0.288774
    23952.095800       0.281578
    24009.603800       0.274378
    24067.388700       0.267176
    24125.452400       0.259973
    24183.796900       0.252774
    24242.424200       0.245580
    24301.336600       0.238394
    24360.535900       0.231219
    24420.024400       0.224057
    24479.804200       0.216912
    24539.877300       0.209787
    24600.246000       0.202683
    24660.912500       0.195605
    24721.878900       0.188555
    24783.147500       0.181537
    24844.720500       0.174554
    24906.600200       0.167608
    24968.789000       0.160705
    25031.289100       0.153846
    25094.102900       0.147035
    25157.232700       0.140276
    25220.681000       0.133573
    25284.450100       0.126929
    25348.542500       0.120347
    25412.960600       0.113833
    25477.707000       0.107389
