   5  ,noaa_10_hirs_05.flt
Number of data points:
81
Wavenumber (cm-1)   Filter response
      688.040000       0.000000
      690.990000       0.000000
      692.720000       0.000000
      694.330000       0.000354
      695.980000       0.001777
      697.300000       0.003187
      698.670000       0.006511
      699.890000       0.014328
      701.050000       0.022642
      701.890000       0.035424
      702.670000       0.050569
      703.300000       0.066642
      703.970000       0.088230
      704.340000       0.109060
      704.860000       0.140660
      705.630000       0.177290
      706.050000       0.208540
      706.380000       0.239930
      706.610000       0.267310
      706.890000       0.298260
      706.980000       0.328800
      707.440000       0.370320
      707.620000       0.407750
      707.760000       0.436950
      708.110000       0.471620
      708.440000       0.502970
      708.670000       0.534220
      708.930000       0.562690
      709.200000       0.594190
      709.510000       0.622480
      709.730000       0.651080
      710.060000       0.684700
      710.430000       0.717050
      710.890000       0.753080
      711.340000       0.783810
      711.600000       0.808620
      712.040000       0.839600
      712.520000       0.868390
      713.020000       0.896910
      713.590000       0.921870
      714.210000       0.947510
      714.890000       0.973140
      715.960000       1.000000
      716.740000       0.997350
      717.560000       0.986960
      718.110000       0.973440
      718.660000       0.960530
      719.220000       0.943160
      719.640000       0.923250
      720.100000       0.899650
      720.550000       0.880450
      720.910000       0.861710
      721.310000       0.843020
      721.640000       0.817020
      722.010000       0.790050
      722.330000       0.752560
      722.630000       0.718720
      723.070000       0.682380
      723.460000       0.646750
      723.820000       0.614600
      724.210000       0.580270
      724.540000       0.536250
      724.930000       0.483020
      725.390000       0.429310
      725.900000       0.374880
      726.370000       0.320610
      726.790000       0.265420
      727.480000       0.211360
      727.990000       0.170560
      728.520000       0.142360
      729.030000       0.117870
      729.840000       0.090485
      730.680000       0.067192
      731.340000       0.048974
      732.410000       0.032130
      733.850000       0.018720
      735.230000       0.008439
      736.630000       0.006215
      739.060000       0.001880
      742.350000       0.000000
      746.030000       0.000000
