  10  ,metop_02_hirs_10.flt
Number of data points:
352
Wavenumber (cm-1)   Filter response
      782.120000       0.000000
      782.220000       0.002070
      782.320000       0.002489
      782.420000       0.002992
      782.520000       0.003552
      782.620000       0.004138
      782.720000       0.004717
      782.820000       0.005257
      782.920000       0.005732
      783.020000       0.006121
      783.120000       0.006412
      783.220000       0.006606
      783.320000       0.006710
      783.420000       0.006741
      783.520000       0.006721
      783.620000       0.006679
      783.720000       0.006641
      783.820000       0.006634
      783.920000       0.006679
      784.020000       0.006793
      784.120000       0.006983
      784.220000       0.007248
      784.320000       0.007582
      784.420000       0.007972
      784.520000       0.008398
      784.620000       0.008844
      784.720000       0.009289
      784.820000       0.009717
      784.920000       0.010116
      785.020000       0.010478
      785.120000       0.010801
      785.220000       0.011088
      785.320000       0.011347
      785.420000       0.011588
      785.520000       0.011823
      785.620000       0.012066
      785.720000       0.012327
      785.820000       0.012617
      785.920000       0.012943
      786.020000       0.013309
      786.120000       0.013712
      786.220000       0.014160
      786.320000       0.014652
      786.420000       0.015189
      786.520000       0.015771
      786.620000       0.016399
      786.720000       0.017075
      786.820000       0.017801
      786.920000       0.018582
      787.020000       0.019421
      787.120000       0.020320
      787.220000       0.021284
      787.320000       0.022315
      787.420000       0.023413
      787.520000       0.024577
      787.620000       0.025805
      787.720000       0.027096
      787.820000       0.028447
      787.920000       0.029857
      788.020000       0.031326
      788.120000       0.032866
      788.220000       0.034466
      788.320000       0.036131
      788.420000       0.037865
      788.520000       0.039675
      788.620000       0.041568
      788.720000       0.043553
      788.820000       0.045639
      788.920000       0.047834
      789.020000       0.050145
      789.120000       0.052585
      789.220000       0.055164
      789.320000       0.057895
      789.420000       0.060789
      789.520000       0.063860
      789.620000       0.066114
      789.720000       0.069494
      789.820000       0.073090
      789.920000       0.076923
      790.020000       0.081010
      790.120000       0.085361
      790.220000       0.090002
      790.320000       0.094944
      790.420000       0.100200
      790.520000       0.105770
      790.620000       0.111680
      790.720000       0.117920
      790.820000       0.124510
      790.920000       0.131450
      791.020000       0.138760
      791.120000       0.146460
      791.220000       0.154580
      791.320000       0.163140
      791.420000       0.172190
      791.520000       0.181740
      791.620000       0.191840
      791.720000       0.202490
      791.820000       0.213730
      791.920000       0.225560
      792.020000       0.237980
      792.120000       0.250960
      792.220000       0.264520
      792.320000       0.278620
      792.420000       0.293250
      792.520000       0.308370
      792.620000       0.323970
      792.720000       0.340020
      792.820000       0.356510
      792.920000       0.373420
      793.020000       0.390740
      793.120000       0.408460
      793.220000       0.426550
      793.320000       0.444990
      793.420000       0.463760
      793.520000       0.482820
      793.620000       0.502110
      793.720000       0.521570
      793.820000       0.541130
      793.920000       0.560700
      794.020000       0.580210
      794.120000       0.599620
      794.220000       0.618780
      794.320000       0.637630
      794.420000       0.656100
      794.520000       0.674130
      794.620000       0.691700
      794.720000       0.708790
      794.820000       0.725420
      794.920000       0.741560
      795.020000       0.757230
      795.120000       0.772420
      795.220000       0.787150
      795.320000       0.801420
      795.420000       0.815210
      795.520000       0.828500
      795.620000       0.841270
      795.720000       0.853470
      795.820000       0.865070
      795.920000       0.876020
      796.020000       0.886270
      796.120000       0.895780
      796.220000       0.904560
      796.320000       0.912610
      796.420000       0.919950
      796.520000       0.926610
      796.620000       0.932640
      796.720000       0.938110
      796.820000       0.943060
      796.920000       0.947550
      797.020000       0.951640
      797.120000       0.955360
      797.220000       0.958780
      797.320000       0.961940
      797.420000       0.964860
      797.520000       0.967580
      797.620000       0.970120
      797.720000       0.972500
      797.820000       0.974720
      797.920000       0.976800
      798.020000       0.978810
      798.120000       0.980880
      798.220000       0.982860
      798.320000       0.984770
      798.420000       0.986620
      798.520000       0.988400
      798.620000       0.990130
      798.720000       0.991810
      798.820000       0.993390
      798.920000       0.994850
      799.020000       0.996160
      799.120000       0.997290
      799.220000       0.998230
      799.320000       0.998970
      799.420000       0.999500
      799.520000       0.999830
      799.620000       0.999990
      799.720000       1.000000
      799.820000       0.999900
      799.920000       0.999730
      800.020000       0.999420
      800.120000       0.998720
      800.220000       0.998010
      800.320000       0.997310
      800.420000       0.996590
      800.520000       0.995840
      800.620000       0.995000
      800.720000       0.994050
      800.820000       0.992920
      800.920000       0.991590
      801.020000       0.990030
      801.120000       0.988230
      801.220000       0.986210
      801.320000       0.983990
      801.420000       0.981620
      801.520000       0.979170
      801.620000       0.976700
      801.720000       0.974270
      801.820000       0.971930
      801.920000       0.969730
      802.020000       0.967720
      802.120000       0.966070
      802.220000       0.964540
      802.320000       0.963100
      802.420000       0.961670
      802.520000       0.960190
      802.620000       0.958630
      802.720000       0.956970
      802.820000       0.955210
      802.920000       0.953360
      803.020000       0.951450
      803.120000       0.949550
      803.220000       0.947730
      803.320000       0.946070
      803.420000       0.944650
      803.520000       0.943540
      803.620000       0.942780
      803.720000       0.942390
      803.820000       0.942360
      803.920000       0.942630
      804.020000       0.943150
      804.120000       0.943820
      804.220000       0.944540
      804.320000       0.945230
      804.420000       0.945770
      804.520000       0.946100
      804.620000       0.946160
      804.720000       0.945930
      804.820000       0.945390
      804.920000       0.944560
      805.020000       0.943430
      805.120000       0.942030
      805.220000       0.940360
      805.320000       0.938410
      805.420000       0.936140
      805.520000       0.933510
      805.620000       0.930420
      805.720000       0.926790
      805.820000       0.922490
      805.920000       0.917410
      806.020000       0.911410
      806.120000       0.904370
      806.220000       0.896260
      806.320000       0.887040
      806.420000       0.876680
      806.520000       0.865190
      806.620000       0.852580
      806.720000       0.838920
      806.820000       0.824260
      806.920000       0.808660
      807.020000       0.792200
      807.120000       0.774920
      807.220000       0.756880
      807.320000       0.738120
      807.420000       0.718670
      807.520000       0.698590
      807.620000       0.677920
      807.720000       0.656720
      807.820000       0.635060
      807.920000       0.613040
      808.020000       0.590770
      808.120000       0.568390
      808.220000       0.546000
      808.320000       0.523730
      808.420000       0.501700
      808.520000       0.480010
      808.620000       0.458760
      808.720000       0.438000
      808.820000       0.417770
      808.920000       0.398090
      809.020000       0.378940
      809.120000       0.360320
      809.220000       0.342200
      809.320000       0.324540
      809.420000       0.307360
      809.520000       0.290640
      809.620000       0.274400
      809.720000       0.258690
      809.820000       0.243550
      809.920000       0.229040
      810.020000       0.215210
      810.120000       0.202090
      810.220000       0.189760
      810.320000       0.178220
      810.420000       0.167470
      810.520000       0.157490
      810.620000       0.148230
      810.720000       0.139630
      810.820000       0.131620
      810.920000       0.124140
      811.020000       0.117110
      811.120000       0.110470
      811.220000       0.104190
      811.320000       0.098225
      811.420000       0.092567
      811.520000       0.087209
      811.620000       0.082154
      811.720000       0.077405
      811.820000       0.072967
      811.920000       0.068834
      812.020000       0.065001
      812.120000       0.061460
      812.220000       0.058166
      812.320000       0.055088
      812.420000       0.052194
      812.520000       0.049458
      812.620000       0.046858
      812.720000       0.044384
      812.820000       0.042035
      812.920000       0.039817
      813.020000       0.037744
      813.120000       0.035831
      813.220000       0.034089
      813.320000       0.032523
      813.420000       0.031126
      813.520000       0.029880
      813.620000       0.028751
      813.720000       0.027698
      813.820000       0.026674
      813.920000       0.025629
      814.020000       0.024522
      814.120000       0.023323
      814.220000       0.022023
      814.320000       0.020630
      814.420000       0.019172
      814.520000       0.017697
      814.620000       0.016261
      814.720000       0.014928
      814.820000       0.013758
      814.920000       0.012797
      815.020000       0.012076
      815.120000       0.012574
      815.220000       0.012136
      815.320000       0.011800
      815.420000       0.011533
      815.520000       0.011297
      815.620000       0.011052
      815.720000       0.010764
      815.820000       0.010406
      815.920000       0.009961
      816.020000       0.009426
      816.120000       0.008814
      816.220000       0.008145
      816.320000       0.007451
      816.420000       0.006772
      816.520000       0.006145
      816.620000       0.005608
      816.720000       0.005188
      816.820000       0.004902
      816.920000       0.004755
      817.020000       0.004738
      817.120000       0.004828
      817.220000       0.000000
