18,    channel 18 SRF extracted from SRF_FY-3F_MERSI-III.zip(FY3F_MERSI_SRF_CH18_Pub.txt) (received Nov 2023)
Number of data points:
226
Wavenumber (cm-1)   Filter response
    10035.127000       0.001016
    10040.165700       0.000862
    10045.210500       0.000862
    10050.259300       0.000707
    10055.299100       0.000553
    10060.363200       0.000553
    10065.434400       0.000708
    10070.492400       0.000863
    10075.575900       0.001018
    10080.647200       0.001484
    10085.726700       0.001484
    10090.812300       0.001639
    10095.904000       0.001640
    10101.004000       0.001795
    10106.107000       0.001796
    10111.219400       0.002106
    10116.338900       0.002262
    10121.462600       0.002573
    10126.577200       0.002884
    10131.715300       0.003195
    10136.842300       0.003507
    10141.995000       0.003819
    10147.134500       0.004131
    10152.281200       0.004600
    10157.435200       0.005069
    10162.595400       0.005851
    10167.763000       0.006633
    10172.936900       0.007572
    10178.117000       0.008512
    10183.304600       0.009453
    10188.480800       0.010708
    10193.682000       0.012432
    10198.869800       0.014157
    10204.083700       0.016352
    10209.288400       0.019017
    10214.495200       0.021527
    10219.731400       0.024509
    10224.955100       0.028275
    10230.185300       0.032359
    10235.420800       0.036916
    10240.646000       0.042732
    10245.896400       0.049339
    10251.154300       0.056267
    10256.418700       0.064618
    10261.670500       0.074707
    10266.949900       0.086383
    10272.214700       0.098386
    10277.487000       0.112766
    10282.786900       0.129368
    10288.073300       0.147252
    10293.366100       0.165948
    10298.666500       0.186400
    10303.974500       0.209246
    10309.270900       0.232435
    10314.592000       0.257549
    10319.919600       0.284276
    10325.254800       0.313252
    10330.577400       0.342273
    10335.907700       0.370227
    10341.263800       0.398228
    10346.609300       0.423737
    10351.959400       0.454544
    10357.336400       0.484946
    10362.701800       0.514297
    10368.073900       0.546269
    10373.452600       0.582131
    10378.819700       0.609625
    10384.212800       0.633007
    10389.613600       0.661061
    10395.000700       0.681165
    10400.416000       0.697785
    10405.818600       0.718280
    10411.248500       0.736365
    10416.663400       0.753512
    10422.088300       0.771303
    10427.538500       0.788305
    10432.975800       0.797606
    10438.421000       0.811924
    10443.871900       0.817581
    10449.311000       0.826979
    10454.778700       0.830754
    10460.252100       0.839561
    10465.732400       0.845992
    10471.202000       0.854226
    10476.697000       0.861701
    10482.179200       0.869353
    10487.669300       0.873311
    10493.186000       0.875984
    10498.689900       0.879641
    10504.201700       0.879088
    10509.720400       0.881302
    10515.247100       0.880093
    10520.779600       0.882175
    10526.320200       0.884110
    10531.868900       0.889012
    10537.405600       0.892286
    10542.967000       0.901307
    10548.516500       0.904100
    10554.094200       0.908212
    10559.657600       0.912505
    10565.232500       0.916624
    10570.831200       0.917617
    10576.416800       0.917393
    10582.011700       0.919790
    10587.611400       0.915381
    10593.221500       0.916581
    10598.837500       0.918268
    10604.460600       0.924636
    10610.071700       0.923917
    10615.710100       0.926385
    10621.356800       0.928751
    10626.990300       0.931330
    10632.647900       0.929852
    10638.297900       0.935490
    10643.952800       0.944740
    10649.637500       0.947039
    10655.309000       0.953436
    10660.985400       0.959275
    10666.668900       0.961233
    10672.363100       0.960472
    10678.063400       0.963372
    10683.750400       0.961351
    10689.466300       0.963433
    10695.189500       0.966271
    10700.899300       0.968696
    10706.638100       0.970379
    10712.383100       0.970308
    10718.117100       0.973182
    10723.857100       0.971327
    10729.604500       0.974983
    10735.382300       0.978172
    10741.146600       0.985338
    10746.916000       0.987624
    10752.694000       0.994938
    10758.480400       0.995470
    10764.252200       0.997603
    10770.054600       0.995136
    10775.864400       0.997168
    10781.682800       0.997501
    10787.485400       0.999402
    10793.318600       0.996116
    10799.137200       0.995951
    10804.964400       0.993042
    10810.819000       0.993465
    10816.662300       0.992687
    10822.512000       0.995571
    10828.370300       0.997600
    10834.236200       1.000000
    10840.109600       0.997159
    10845.991700       0.996260
    10851.881400       0.993244
    10857.757400       0.987573
    10863.661100       0.979787
    10869.575900       0.971807
    10875.473400       0.956893
    10881.402300       0.941582
    10887.317500       0.925331
    10893.239100       0.909580
    10899.193300       0.891092
    10905.131400       0.873958
    10911.077100       0.854426
    10917.033000       0.830669
    10922.995300       0.804153
    10928.966500       0.773921
    10934.944300       0.741052
    10940.908300       0.708798
    10946.902700       0.677314
    10952.906100       0.641717
    10958.895700       0.607430
    10964.912300       0.572091
    10970.918600       0.534245
    10976.954400       0.497170
    10982.972800       0.459207
    10989.002500       0.422203
    10995.061900       0.386526
    11001.107400       0.350703
    11007.160700       0.315671
    11013.221900       0.283837
    11019.289800       0.252810
    11025.370500       0.224085
    11031.432300       0.197850
    11037.526400       0.173943
    11043.627200       0.152382
    11049.717700       0.133173
    11055.834400       0.115769
    11061.940800       0.100929
    11068.074700       0.087728
    11074.194700       0.075607
    11080.323800       0.065141
    11086.484300       0.056152
    11092.630800       0.048459
    11098.785300       0.041686
    11104.946600       0.036031
    11111.117300       0.031119
    11117.297300       0.026763
    11123.459400       0.023160
    11129.654400       0.020119
    11135.859900       0.017841
    11142.073700       0.015745
    11148.270800       0.013835
    11154.498400       0.012112
    11160.714300       0.010771
    11166.937100       0.009428
    11173.190600       0.008272
    11179.432300       0.007702
    11185.681100       0.006930
    11191.935500       0.006353
    11198.199500       0.005775
    11204.473000       0.005390
    11210.756000       0.004807
    11217.047400       0.004419
    11223.347100       0.004029
    11229.653800       0.003639
    11235.948700       0.003246
    11242.272200       0.002852
    11248.604000       0.002656
    11254.924000       0.002258
    11261.249800       0.001859
    11267.610700       0.001660
    11273.954600       0.001665
    11280.308200       0.001465
    11286.693200       0.001877
    11293.063700       0.001879
    11299.441400       0.001882
    11305.828900       0.001474
    11312.226200       0.001476
