 5    ,ATSR-2 Flight Model FPA 0.87um
Number of data points:
121
Wavenumber (cm-1)   Filter response
    11173.184400       0.000170
    11179.429800       0.000210
    11185.682300       0.000230
    11191.941800       0.000280
    11198.208300       0.000300
    11204.481800       0.000330
    11210.762300       0.000380
    11217.049900       0.000420
    11223.344600       0.000510
    11229.646300       0.000560
    11235.955100       0.000650
    11242.270900       0.000740
    11248.593900       0.000880
    11254.924000       0.000990
    11261.261300       0.001180
    11267.605600       0.001400
    11273.957200       0.001650
    11280.315800       0.001960
    11286.681700       0.002350
    11293.054800       0.002770
    11299.435000       0.003370
    11305.822500       0.004160
    11312.217200       0.004970
    11318.619100       0.006190
    11325.028300       0.007770
    11331.444800       0.009570
    11337.868500       0.012290
    11344.299500       0.016020
    11350.737800       0.020100
    11357.183400       0.026480
    11363.636400       0.035420
    11370.096600       0.045690
    11376.564300       0.062050
    11383.039300       0.085890
    11389.521600       0.113110
    11396.011400       0.156990
    11402.508600       0.218130
    11409.013100       0.284900
    11415.525100       0.379190
    11422.044500       0.487210
    11428.571400       0.573620
    11435.105800       0.662300
    11441.647600       0.725300
    11448.196900       0.756800
    11454.753700       0.772920
    11461.318100       0.778420
    11467.889900       0.775920
    11474.469300       0.776960
    11481.056300       0.776540
    11487.650800       0.782750
    11494.252900       0.789380
    11500.862600       0.802460
    11507.479900       0.812460
    11514.104800       0.829440
    11520.737300       0.843620
    11527.377500       0.857790
    11534.025400       0.870890
    11540.680900       0.883610
    11547.344100       0.891630
    11554.015000       0.900780
    11560.693600       0.905260
    11567.380000       0.911760
    11574.074100       0.913500
    11580.775900       0.918500
    11587.485500       0.919830
    11594.202900       0.924630
    11600.928100       0.926890
    11607.661100       0.931830
    11614.401900       0.935050
    11621.150500       0.941580
    11627.907000       0.945770
    11634.671300       0.954340
    11641.443500       0.961260
    11648.223600       0.971070
    11655.011700       0.979750
    11661.807600       0.991330
    11668.611400       0.996600
    11675.423200       1.000000
    11682.243000       0.988160
    11689.070700       0.964750
    11695.906400       0.906900
    11702.750100       0.817220
    11709.601900       0.718900
    11716.461600       0.589960
    11723.329400       0.456880
    11730.205300       0.358420
    11737.089200       0.260770
    11743.981200       0.187000
    11750.881300       0.141460
    11757.789500       0.102320
    11764.705900       0.073920
    11771.630400       0.056800
    11778.563000       0.041800
    11785.503800       0.030940
    11792.452800       0.024180
    11799.410000       0.018340
    11806.375400       0.013930
    11813.349100       0.011170
    11820.331000       0.008610
    11827.321100       0.006700
    11834.319500       0.005480
    11841.326200       0.004370
    11848.341200       0.003510
    11855.364600       0.002880
    11862.396200       0.002330
    11869.436200       0.001890
    11876.484600       0.001580
    11883.541300       0.001290
    11890.606400       0.001070
    11897.680000       0.000900
    11904.761900       0.000670
    11911.852300       0.000560
    11918.951100       0.000450
    11926.058400       0.000360
    11933.174200       0.000300
    11940.298500       0.000250
    11947.431300       0.000210
    11954.572600       0.000160
    11961.722500       0.000120
    11968.880900       0.000090
    11976.047900       0.000160
