 2    ,ATSR-2 Flight Model FPA 11um
Number of data points:
255
Wavenumber (cm-1)   Filter response
      822.405400       0.002970
      823.039900      -0.001010
      823.675500       0.001040
      824.311900       0.002990
      824.949400      -0.000020
      825.587900      -0.000970
      826.227400       0.003020
      826.867800       0.001980
      827.509300      -0.001010
      828.151700       0.000040
      828.795200       0.003000
      829.439600       0.000990
      830.085100       0.001010
      830.731600       0.002000
      831.379000       0.000980
      832.027500       0.000010
      832.677000       0.003010
      833.327400       0.001950
      833.979000      -0.000990
      834.631500       0.003020
      835.285000       0.002990
      835.939700       0.001000
      836.595200       0.003030
      837.251900       0.003981
      837.909500      -0.000010
      838.568200       0.001040
      839.228000       0.004021
      839.888700       0.005001
      840.550600       0.004001
      841.213500       0.003981
      841.877300       0.000990
      842.542300       0.003020
      843.208300       0.004991
      843.875400       0.001990
      844.543500       0.005041
      845.212700       0.007001
      845.882900       0.004991
      846.554200       0.005031
      847.226600       0.008011
      847.900000       0.006991
      848.574500       0.006001
      849.250100       0.009041
      849.926800       0.010992
      850.604500       0.009001
      851.283400       0.011012
      851.963200       0.014032
      852.644200       0.014992
      853.326300       0.014012
      854.009500       0.017013
      854.693800       0.018013
      855.379200       0.020033
      856.065600       0.025024
      856.753200       0.026004
      857.441800       0.026034
      858.131600       0.031055
      858.822500       0.036016
      859.514500       0.037016
      860.207700       0.042057
      860.901800       0.046047
      861.597200       0.052028
      862.293800       0.055019
      862.991300       0.062090
      863.690100       0.068041
      864.390000       0.071031
      865.091000       0.078032
      865.793100       0.088114
      866.496400       0.096055
      867.200900       0.102066
      867.906500       0.115048
      868.613100       0.125120
      869.321100       0.137142
      870.030100       0.153084
      870.740300       0.161046
      871.451600       0.173198
      872.164100       0.192161
      872.877800       0.208103
      873.592700       0.226076
      874.308700       0.243149
      875.025900       0.252130
      875.744200       0.269113
      876.463800       0.286086
      877.184600       0.315260
      877.906500       0.332233
      878.629600       0.368199
      879.354000       0.391103
      880.079400       0.417297
      880.806100       0.438220
      881.534000       0.468235
      882.263100       0.504111
      882.993500       0.520373
      883.725000       0.568411
      884.457700       0.604197
      885.191700       0.629141
      885.926800       0.659295
      886.663200       0.676278
      887.400800       0.713244
      888.139700       0.728117
      888.879800       0.728377
      889.621100       0.774304
      890.363600       0.784205
      891.107400       0.829173
      891.852500       0.845055
      892.598800       0.828082
      893.346200       0.843255
      894.095100       0.881161
      894.845100       0.895253
      895.596400       0.905115
      896.349000       0.899204
      897.102800       0.934159
      897.857900       0.936140
      898.614300       0.941171
      899.371900       0.948222
      900.130800       0.971155
      900.891100       0.947162
      901.652500       0.977286
      902.415300       0.975136
      903.179400       0.972156
      903.944800       0.971275
      904.711400       0.994229
      905.479400       0.992149
      906.248700       0.992159
      907.019200       0.997270
      907.791100       1.000000
      908.564400       0.955103
      909.338800       0.967155
      910.114700       0.957063
      910.891900       0.955143
      911.670400       0.954163
      912.450200       0.963154
      913.231300       0.953032
      914.013900       0.944161
      914.797800       0.952162
      915.582900       0.947152
      916.369500       0.943081
      917.157300       0.924008
      917.946600       0.899124
      918.737200       0.905145
      919.529200       0.897134
      920.322500       0.903145
      921.117300       0.897144
      921.913300       0.901154
      922.710800       0.883141
      923.509600       0.898154
      924.309800       0.884131
      925.111500       0.890142
      925.914400       0.885122
      926.718900       0.887142
      927.524700       0.882131
      928.331900       0.879141
      929.140500       0.878111
      929.950500       0.871119
      930.761900       0.869139
      931.574800       0.869129
      932.389000       0.877130
      933.204800       0.864078
      934.021800       0.852116
      934.840400       0.833143
      935.660400       0.840214
      936.481800       0.847146
      937.304700       0.843115
      938.129100       0.822152
      938.954800       0.815080
      939.782100       0.802078
      940.610700       0.788106
      941.440900       0.768143
      942.272500       0.757011
      943.105600       0.729007
      943.940100       0.703092
      944.776200       0.684159
      945.613700       0.654945
      946.452700       0.630001
      947.293200       0.594075
      948.135200       0.567141
      948.978700       0.538916
      949.823700       0.512002
      950.670200       0.484057
      951.518200       0.443151
      952.367700       0.412926
      953.218800       0.386962
      954.071300       0.352046
      954.925400       0.323122
      955.781100       0.294897
      956.638200       0.269973
      957.496900       0.244039
      958.357100       0.221095
      959.218900       0.198902
      960.082300       0.175968
      960.947100       0.157025
      961.813600       0.142063
      962.681600       0.125940
      963.551200       0.111988
      964.422400       0.100016
      965.295000       0.088044
      966.169400       0.077962
      967.045300       0.068991
      967.922700       0.061010
      968.801900       0.054029
      969.682500       0.046978
      970.564800       0.040997
      971.448700       0.035006
      972.334200       0.031015
      973.221300       0.026984
      974.110100       0.022994
      975.000400       0.020003
      975.892400       0.018013
      976.786000       0.014992
      977.681300       0.013002
      978.578200       0.012002
      979.476700       0.010012
      980.377000       0.008001
      981.278800       0.008001
      982.182300       0.007001
      983.087600       0.006001
      983.994300       0.005001
      984.902900       0.004001
      985.813200       0.003000
      986.725000       0.004001
      987.638600       0.002990
      988.553800       0.002000
      989.470800       0.002000
      990.389600       0.002000
      991.309900       0.001000
      992.232000       0.001000
      993.155900       0.002000
      994.081300       0.001000
      995.008600       0.001000
      995.937600       0.001000
      996.868300       0.001000
      997.800800       0.000000
      998.735000       0.000000
      999.671000       0.001000
     1000.608700       0.001000
     1001.548200       0.001000
     1002.489500       0.001000
     1003.432400       0.000000
     1004.377300       0.000000
     1005.323900       0.001000
     1006.272200       0.000000
     1007.222400       0.000000
     1008.174300       0.000000
     1009.128100       0.000000
     1010.083700       0.000000
     1011.041000       0.000000
     1012.000200       0.001000
     1012.961200       0.000000
     1013.924000       0.000000
     1014.888700       0.000000
     1015.855200       0.000000
     1016.823500       0.000000
     1017.793800       0.000000
     1018.765800       0.000000
     1019.739700       0.000000
     1020.715400       0.000000
     1021.693100       0.000000
     1022.672700       0.000000
