   2  ,noaa_16_hirs_02.flt
Number of data points:
136
Wavenumber (cm-1)   Filter response
      662.000000       0.000000
      662.060000       0.003324
      662.600000       0.005307
      663.490000       0.007384
      664.660000       0.009697
      665.340000       0.010879
      666.050000       0.012061
      666.430000       0.014228
      666.760000       0.014300
      666.930000       0.017482
      667.020000       0.021702
      667.140000       0.023843
      667.350000       0.021805
      667.440000       0.018666
      667.560000       0.015530
      667.650000       0.022953
      667.860000       0.026201
      667.940000       0.031539
      668.110000       0.034801
      668.240000       0.031663
      668.400000       0.036005
      668.610000       0.041455
      668.780000       0.047983
      668.910000       0.055583
      669.120000       0.060045
      669.290000       0.063415
      669.450000       0.071124
      669.620000       0.081031
      669.830000       0.084510
      670.000000       0.090135
      670.210000       0.093652
      670.460000       0.100520
      670.590000       0.116040
      670.920000       0.141910
      671.260000       0.167120
      671.680000       0.210720
      672.060000       0.256900
      672.440000       0.296850
      672.690000       0.334310
      672.940000       0.374050
      673.150000       0.403410
      673.320000       0.432710
      673.530000       0.461180
      673.780000       0.494590
      673.990000       0.533690
      674.160000       0.560020
      674.370000       0.585560
      674.500000       0.610650
      674.660000       0.638300
      674.920000       0.665430
      675.040000       0.694160
      675.170000       0.704330
      675.290000       0.718020
      675.460000       0.730870
      675.630000       0.747190
      675.840000       0.756830
      675.920000       0.771480
      676.050000       0.784100
      676.260000       0.797370
      676.470000       0.809500
      676.680000       0.821670
      676.890000       0.835060
      677.060000       0.847400
      677.310000       0.854920
      677.560000       0.860080
      677.770000       0.860920
      677.860000       0.859080
      678.070000       0.863560
      678.320000       0.873850
      678.490000       0.883620
      678.780000       0.886350
      678.990000       0.887200
      679.240000       0.898960
      679.500000       0.909400
      679.710000       0.913880
      679.870000       0.912390
      680.130000       0.912840
      680.420000       0.912240
      680.800000       0.921540
      681.010000       0.935460
      681.130000       0.943330
      681.430000       0.947960
      681.760000       0.956840
      681.980000       0.969580
      682.190000       0.982390
      682.310000       0.987760
      682.480000       0.996250
      682.690000       1.000000
      682.900000       0.995860
      683.150000       0.986910
      683.240000       0.981260
      683.400000       0.975240
      683.610000       0.969660
      683.700000       0.963960
      683.910000       0.945020
      684.030000       0.910380
      684.410000       0.857160
      684.660000       0.802020
      684.870000       0.737670
      685.210000       0.674010
      685.590000       0.586800
      686.050000       0.466200
      686.260000       0.406660
      686.510000       0.376070
      686.640000       0.339190
      686.720000       0.304820
      687.020000       0.261330
      687.230000       0.235470
      687.480000       0.208170
      687.650000       0.181920
      687.810000       0.162590
      687.980000       0.141780
      688.190000       0.116690
      688.400000       0.092892
      688.450000       0.085849
      688.610000       0.083186
      688.870000       0.079173
      689.030000       0.072198
      689.200000       0.065196
      689.450000       0.058228
      689.710000       0.054100
      690.080000       0.052917
      690.290000       0.045805
      690.550000       0.035773
      690.840000       0.030073
      691.090000       0.027246
      691.510000       0.025928
      691.930000       0.021645
      692.440000       0.017343
      693.150000       0.017522
      693.780000       0.014668
      694.410000       0.014806
      695.080000       0.013465
      695.710000       0.010539
      696.340000       0.007557
      697.000000       0.000000
