1,   1, MVIRI VIS channel from srf_MET5_1991123_1991124_1801-Release_S10EL_10.dat
Number of data points:
806
Wavenumber (cm-1)   Filter response
     8350.730700       0.000000
     8357.710000       0.000000
     8364.701000       0.000000
     8371.703600       0.000001
     8378.718100       0.000004
     8385.744200       0.000009
     8392.782200       0.000016
     8399.832000       0.000026
     8406.893700       0.000040
     8413.967200       0.000057
     8421.052600       0.000080
     8428.150000       0.000107
     8435.259400       0.000139
     8442.380800       0.000178
     8449.514200       0.000222
     8456.659600       0.000274
     8463.817200       0.000332
     8470.986900       0.000397
     8478.168700       0.000471
     8485.362700       0.000552
     8492.569000       0.000642
     8499.787500       0.000740
     8507.018300       0.000848
     8514.261400       0.000964
     8521.516800       0.001091
     8528.784600       0.001227
     8536.064900       0.001374
     8543.357500       0.001530
     8550.662700       0.001698
     8557.980300       0.001876
     8565.310500       0.002066
     8572.653200       0.002267
     8580.008600       0.002480
     8587.376600       0.002704
     8594.757200       0.002941
     8602.150500       0.003189
     8609.556600       0.003451
     8616.975400       0.003724
     8624.407100       0.004011
     8631.851500       0.004311
     8639.308900       0.004624
     8646.779100       0.004950
     8654.262200       0.005290
     8661.758300       0.005643
     8669.267400       0.006010
     8676.789600       0.006392
     8684.324800       0.006787
     8691.873100       0.007197
     8699.434500       0.007621
     8707.009100       0.008060
     8714.596900       0.008514
     8722.198000       0.008982
     8729.812300       0.009466
     8737.439900       0.009964
     8745.080900       0.010478
     8752.735200       0.011008
     8760.403000       0.011553
     8768.084200       0.012113
     8775.778900       0.012690
     8783.487000       0.013282
     8791.208800       0.013890
     8798.944100       0.014514
     8806.693100       0.015155
     8814.455700       0.015812
     8822.232000       0.016486
     8830.022100       0.017176
     8837.825900       0.017883
     8845.643500       0.018607
     8853.475000       0.019347
     8861.320300       0.020105
     8869.179600       0.020880
     8877.052800       0.021672
     8884.940000       0.022481
     8892.841300       0.023308
     8900.756600       0.024153
     8908.686000       0.025015
     8916.629500       0.025895
     8924.587200       0.026793
     8932.559200       0.027709
     8940.545400       0.028643
     8948.545900       0.029595
     8956.560700       0.030566
     8964.589900       0.031555
     8972.633500       0.032562
     8980.691500       0.033588
     8988.764000       0.034633
     8996.851100       0.035697
     9004.952700       0.036780
     9013.068900       0.037881
     9021.199800       0.039002
     9029.345400       0.040142
     9037.505600       0.041302
     9045.680700       0.042480
     9053.870500       0.043679
     9062.075200       0.044897
     9070.294800       0.046135
     9078.529300       0.047392
     9086.778700       0.048670
     9095.043200       0.049967
     9103.322700       0.051285
     9111.617300       0.052623
     9119.927000       0.053981
     9128.251900       0.055360
     9136.592100       0.056759
     9144.947400       0.058179
     9153.318100       0.059619
     9161.704100       0.061081
     9170.105500       0.062563
     9178.522300       0.064066
     9186.954500       0.065590
     9195.402300       0.067136
     9203.865600       0.068702
     9212.344500       0.070290
     9220.839100       0.071899
     9229.349300       0.073530
     9237.875300       0.075182
     9246.417000       0.076856
     9254.974500       0.078552
     9263.547900       0.080270
     9272.137200       0.082009
     9280.742500       0.083771
     9289.363700       0.085555
     9298.000900       0.087360
     9306.654300       0.089188
     9315.323700       0.091038
     9324.009300       0.092911
     9332.711200       0.094806
     9341.429200       0.096723
     9350.163600       0.098663
     9358.914400       0.100626
     9367.681500       0.102611
     9376.465100       0.104619
     9385.265100       0.106650
     9394.081700       0.108703
     9402.914900       0.110780
     9411.764700       0.112879
     9420.631200       0.115002
     9429.514400       0.117147
     9438.414300       0.119316
     9447.331100       0.121507
     9456.264800       0.123722
     9465.215300       0.125960
     9474.182900       0.128221
     9483.167400       0.130505
     9492.169000       0.132813
     9501.187600       0.135144
     9510.223500       0.137498
     9519.276500       0.139876
     9528.346800       0.142277
     9537.434400       0.144701
     9546.539400       0.147149
     9555.661700       0.149620
     9564.801500       0.152114
     9573.958800       0.154632
     9583.133700       0.157174
     9592.326100       0.159738
     9601.536200       0.162326
     9610.764100       0.164937
     9620.009600       0.167572
     9629.273000       0.170230
     9638.554200       0.172912
     9647.853400       0.175616
     9657.170400       0.178344
     9666.505600       0.181095
     9675.858700       0.183870
     9685.230000       0.186667
     9694.619500       0.189488
     9704.027200       0.192331
     9713.453100       0.195198
     9722.897400       0.198088
     9732.360100       0.201000
     9741.841200       0.203936
     9751.340800       0.206893
     9760.859000       0.209874
     9770.395700       0.212878
     9779.951100       0.215904
     9789.525200       0.218952
     9799.118100       0.222023
     9808.729800       0.225116
     9818.360300       0.228231
     9828.009800       0.231368
     9837.678300       0.234528
     9847.365800       0.237709
     9857.072400       0.240912
     9866.798200       0.244137
     9876.543200       0.247383
     9886.307500       0.250651
     9896.091000       0.253940
     9905.894000       0.257250
     9915.716400       0.260581
     9925.558300       0.263933
     9935.419800       0.267306
     9945.300800       0.270699
     9955.201600       0.274113
     9965.122100       0.277548
     9975.062300       0.281002
     9985.022500       0.284476
     9995.002500       0.287970
    10005.002500       0.291484
    10015.022500       0.295017
    10025.062700       0.298570
    10035.122900       0.302142
    10045.203400       0.305732
    10055.304200       0.309342
    10065.425300       0.312970
    10075.566800       0.316616
    10085.728700       0.320280
    10095.911200       0.323962
    10106.114200       0.327662
    10116.337900       0.331380
    10126.582300       0.335114
    10136.847400       0.338866
    10147.133400       0.342635
    10157.440300       0.346420
    10167.768200       0.350221
    10178.117000       0.354039
    10188.487000       0.357872
    10198.878100       0.361722
    10209.290500       0.365586
    10219.724100       0.369465
    10230.179000       0.373360
    10240.655400       0.377269
    10251.153300       0.381192
    10261.672700       0.385129
    10272.213700       0.389081
    10282.776300       0.393045
    10293.360800       0.397023
    10303.967000       0.401014
    10314.595200       0.405017
    10325.245200       0.409033
    10335.917300       0.413061
    10346.611500       0.417100
    10357.327800       0.421151
    10368.066400       0.425213
    10378.827200       0.429286
    10389.610400       0.433370
    10400.416000       0.437463
    10411.244100       0.441567
    10422.094800       0.445680
    10432.968200       0.449802
    10443.864200       0.453934
    10454.783100       0.458074
    10465.724800       0.462222
    10476.689400       0.466378
    10487.677000       0.470542
    10498.687700       0.474713
    10509.721500       0.478890
    10520.778500       0.483074
    10531.858900       0.487265
    10542.962600       0.491461
    10554.089700       0.495663
    10565.240400       0.499870
    10576.414600       0.504082
    10587.612500       0.508298
    10598.834100       0.512518
    10610.079600       0.516742
    10621.348900       0.520969
    10632.642200       0.525200
    10643.959600       0.529433
    10655.301000       0.533667
    10666.666700       0.537904
    10678.056600       0.542142
    10689.470900       0.546382
    10700.909600       0.550622
    10712.372800       0.554862
    10723.860600       0.559102
    10735.373100       0.563342
    10746.910300       0.567581
    10758.472300       0.571819
    10770.059200       0.576055
    10781.671200       0.580289
    10793.308100       0.584521
    10804.970300       0.588750
    10816.657700       0.592975
    10828.370300       0.597198
    10840.108400       0.601416
    10851.871900       0.605630
    10863.661100       0.609839
    10875.475800       0.614043
    10887.316300       0.618241
    10899.182600       0.622434
    10911.074700       0.626620
    10922.992900       0.630799
    10934.937100       0.634972
    10946.907500       0.639136
    10958.904100       0.643293
    10970.927000       0.647442
    10982.976400       0.651582
    10995.052200       0.655713
    11007.154700       0.659834
    11019.283700       0.663945
    11031.439600       0.668046
    11043.622300       0.672137
    11055.832000       0.676216
    11068.068600       0.680284
    11080.332400       0.684340
    11092.623400       0.688383
    11104.941700       0.692414
    11117.287400       0.696432
    11129.660500       0.700437
    11142.061300       0.704428
    11154.489700       0.708405
    11166.945800       0.712367
    11179.429800       0.716314
    11191.941800       0.720246
    11204.481800       0.724161
    11217.049900       0.728061
    11229.646300       0.731945
    11242.270900       0.735811
    11254.924000       0.739661
    11267.605600       0.743493
    11280.315800       0.747307
    11293.054800       0.751102
    11305.822500       0.754879
    11318.619100       0.758637
    11331.444800       0.762375
    11344.299500       0.766094
    11357.183400       0.769792
    11370.096600       0.773470
    11383.039300       0.777128
    11396.011400       0.780764
    11409.013100       0.784378
    11422.044500       0.787971
    11435.105800       0.791542
    11448.196900       0.795090
    11461.318100       0.798615
    11474.469300       0.802117
    11487.650800       0.805595
    11500.862600       0.809050
    11514.104800       0.812481
    11527.377500       0.815887
    11540.680900       0.819268
    11554.015000       0.822625
    11567.380000       0.825956
    11580.775900       0.829261
    11594.202900       0.832540
    11607.661100       0.835793
    11621.150500       0.839020
    11634.671300       0.842219
    11648.223600       0.845392
    11661.807600       0.848537
    11675.423200       0.851654
    11689.070700       0.854744
    11702.750100       0.857805
    11716.461600       0.860838
    11730.205300       0.863842
    11743.981200       0.866818
    11757.789500       0.869764
    11771.630400       0.872680
    11785.503800       0.875567
    11799.410000       0.878424
    11813.349100       0.881251
    11827.321100       0.884048
    11841.326200       0.886813
    11855.364600       0.889549
    11869.436200       0.892253
    11883.541300       0.894926
    11897.680000       0.897567
    11911.852300       0.900177
    11926.058400       0.902755
    11940.298500       0.905302
    11954.572600       0.907816
    11968.880900       0.910298
    11983.223500       0.912747
    11997.600500       0.915163
    12012.012000       0.917547
    12026.458200       0.919898
    12040.939200       0.922216
    12055.455100       0.924501
    12070.006000       0.926752
    12084.592100       0.928970
    12099.213600       0.931154
    12113.870400       0.933305
    12128.562800       0.935421
    12143.290800       0.937504
    12158.054700       0.939553
    12172.854500       0.941568
    12187.690400       0.943548
    12202.562500       0.945494
    12217.471000       0.947406
    12232.415900       0.949283
    12247.397400       0.951126
    12262.415700       0.952934
    12277.470800       0.954708
    12292.563000       0.956446
    12307.692300       0.958151
    12322.858900       0.959820
    12338.062900       0.961455
    12353.304500       0.963055
    12368.583800       0.964620
    12383.900900       0.966150
    12399.256000       0.967645
    12414.649300       0.969106
    12430.080800       0.970532
    12445.550700       0.971923
    12461.059200       0.973279
    12476.606400       0.974601
    12492.192400       0.975888
    12507.817400       0.977140
    12523.481500       0.978357
    12539.185000       0.979540
    12554.927800       0.980688
    12570.710200       0.981802
    12586.532400       0.982882
    12602.394500       0.983927
    12618.296500       0.984938
    12634.238800       0.985914
    12650.221400       0.986857
    12666.244500       0.987766
    12682.308200       0.988640
    12698.412700       0.989482
    12714.558200       0.990289
    12730.744700       0.991063
    12746.972600       0.991803
    12763.241900       0.992511
    12779.552700       0.993185
    12795.905300       0.993826
    12812.299800       0.994434
    12828.736400       0.995010
    12845.215200       0.995553
    12861.736300       0.996064
    12878.300100       0.996543
    12894.906500       0.996989
    12911.555800       0.997404
    12928.248200       0.997788
    12944.983800       0.998140
    12961.762800       0.998460
    12978.585300       0.998750
    12995.451600       0.999009
    13012.361700       0.999238
    13029.316000       0.999436
    13046.314400       0.999604
    13063.357300       0.999742
    13080.444700       0.999850
    13097.576900       0.999929
    13114.754100       0.999979
    13131.976400       1.000000
    13149.243900       0.999992
    13166.556900       0.999956
    13183.915600       0.999892
    13201.320100       0.999801
    13218.770700       0.999681
    13236.267400       0.999534
    13253.810500       0.999361
    13271.400100       0.999161
    13289.036500       0.998934
    13306.719900       0.998681
    13324.450400       0.998403
    13342.228200       0.998099
    13360.053400       0.997770
    13377.926400       0.997416
    13395.847300       0.997037
    13413.816200       0.996635
    13431.833400       0.996208
    13449.899100       0.995758
    13468.013500       0.995285
    13486.176700       0.994790
    13504.388900       0.994271
    13522.650400       0.993731
    13540.961400       0.993168
    13559.322000       0.992585
    13577.732500       0.991980
    13596.193100       0.991355
    13614.703900       0.990709
    13633.265200       0.990044
    13651.877100       0.989358
    13670.540000       0.988654
    13689.253900       0.987931
    13708.019200       0.987189
    13726.836000       0.986429
    13745.704500       0.985652
    13764.624900       0.984857
    13783.597500       0.984046
    13802.622500       0.983218
    13821.700100       0.982374
    13840.830400       0.981514
    13860.013900       0.980639
    13879.250500       0.979749
    13898.540700       0.978845
    13917.884500       0.977926
    13937.282200       0.976994
    13956.734100       0.976048
    13976.240400       0.975090
    13995.801300       0.974119
    14015.417000       0.973137
    14035.087700       0.972142
    14054.813800       0.971137
    14074.595400       0.970120
    14094.432700       0.969094
    14114.326000       0.968057
    14134.275600       0.967011
    14154.281700       0.965955
    14174.344400       0.964891
    14194.464200       0.963819
    14214.641100       0.962739
    14234.875400       0.961651
    14255.167500       0.960557
    14275.517500       0.959455
    14295.925700       0.958348
    14316.392300       0.957235
    14336.917600       0.956116
    14357.501800       0.954993
    14378.145200       0.953865
    14398.848100       0.952733
    14419.610700       0.951597
    14440.433200       0.950458
    14461.316000       0.949316
    14482.259200       0.948171
    14503.263200       0.947025
    14524.328200       0.945877
    14545.454500       0.944727
    14566.642400       0.943577
    14587.892000       0.942426
    14609.203800       0.941276
    14630.577900       0.940125
    14652.014700       0.938976
    14673.514300       0.937827
    14695.077100       0.936680
    14716.703500       0.935535
    14738.393500       0.934392
    14760.147600       0.933252
    14781.966000       0.932115
    14803.849000       0.930982
    14825.796900       0.929852
    14847.809900       0.928726
    14869.888500       0.927605
    14892.032800       0.926489
    14914.243100       0.925378
    14936.519800       0.924272
    14958.863100       0.923173
    14981.273400       0.922079
    15003.750900       0.920993
    15026.296000       0.919913
    15048.909000       0.918840
    15071.590100       0.917776
    15094.339600       0.916719
    15117.158000       0.915670
    15140.045400       0.914630
    15163.002300       0.913598
    15186.028900       0.912576
    15209.125500       0.911564
    15232.292500       0.910561
    15255.530100       0.909568
    15278.838800       0.908585
    15302.218800       0.907613
    15325.670500       0.906651
    15349.194200       0.905701
    15372.790200       0.904762
    15396.458800       0.903835
    15420.200500       0.902919
    15444.015400       0.902016
    15467.904100       0.901125
    15491.866800       0.900246
    15515.903800       0.899380
    15540.015500       0.898527
    15564.202300       0.897687
    15588.464500       0.896861
    15612.802500       0.896048
    15637.216600       0.895248
    15661.707100       0.894462
    15686.274500       0.893691
    15710.919100       0.892933
    15735.641200       0.892190
    15760.441300       0.891461
    15785.319700       0.890747
    15810.276700       0.890048
    15835.312700       0.889363
    15860.428200       0.888693
    15885.623500       0.888038
    15910.899000       0.887399
    15936.255000       0.886774
    15961.691900       0.886165
    15987.210200       0.885571
    16012.810200       0.884992
    16038.492400       0.884429
    16064.257000       0.883881
    16090.104600       0.883349
    16116.035500       0.882832
    16142.050000       0.882330
    16168.148700       0.881844
    16194.332000       0.881374
    16220.600200       0.880919
    16246.953700       0.880479
    16273.393000       0.880054
    16299.918500       0.879645
    16326.530600       0.879252
    16353.229800       0.878873
    16380.016400       0.878509
    16406.890900       0.878161
    16433.853700       0.877827
    16460.905300       0.877508
    16488.046200       0.877204
    16515.276600       0.876915
    16542.597200       0.876639
    16570.008300       0.876378
    16597.510400       0.876131
    16625.103900       0.875898
    16652.789300       0.875679
    16680.567100       0.875473
    16708.437800       0.875281
    16736.401700       0.875101
    16764.459300       0.874935
    16792.611300       0.874781
    16820.857900       0.874639
    16849.199700       0.874510
    16877.637100       0.874392
    16906.170800       0.874286
    16934.801000       0.874191
    16963.528400       0.874108
    16992.353400       0.874034
    17021.276600       0.873972
    17050.298400       0.873919
    17079.419300       0.873876
    17108.639900       0.873842
    17137.960600       0.873817
    17167.382000       0.873800
    17196.904600       0.873792
    17226.528900       0.873792
    17256.255400       0.873798
    17286.084700       0.873812
    17316.017300       0.873832
    17346.053800       0.873858
    17376.194600       0.873890
    17406.440400       0.873927
    17436.791600       0.873968
    17467.248900       0.874014
    17497.812800       0.874063
    17528.483800       0.874115
    17559.262500       0.874170
    17590.149500       0.874227
    17621.145400       0.874285
    17652.250700       0.874345
    17683.466000       0.874404
    17714.791900       0.874464
    17746.228900       0.874523
    17777.777800       0.874580
    17809.439000       0.874635
    17841.213200       0.874688
    17873.101000       0.874738
    17905.103000       0.874783
    17937.219700       0.874824
    17969.451900       0.874860
    18001.800200       0.874890
    18034.265100       0.874914
    18066.847300       0.874930
    18099.547500       0.874938
    18132.366300       0.874938
    18165.304300       0.874929
    18198.362100       0.874909
    18231.540600       0.874878
    18264.840200       0.874836
    18298.261700       0.874782
    18331.805700       0.874714
    18365.472900       0.874633
    18399.264000       0.874537
    18433.179700       0.874426
    18467.220700       0.874298
    18501.387600       0.874154
    18535.681200       0.873991
    18570.102100       0.873810
    18604.651200       0.873609
    18639.329000       0.873388
    18674.136300       0.873146
    18709.073900       0.872882
    18744.142500       0.872595
    18779.342700       0.872284
    18814.675400       0.871948
    18850.141400       0.871587
    18885.741300       0.871200
    18921.475900       0.870785
    18957.346000       0.870342
    18993.352300       0.869870
    19029.495700       0.869368
    19065.776900       0.868834
    19102.196800       0.868269
    19138.756000       0.867672
    19175.455400       0.867040
    19212.295900       0.866374
    19249.278200       0.865672
    19286.403100       0.864933
    19323.671500       0.864157
    19361.084200       0.863343
    19398.642100       0.862489
    19436.346000       0.861594
    19474.196700       0.860659
    19512.195100       0.859680
    19550.342100       0.858659
    19588.638600       0.857593
    19627.085400       0.856482
    19665.683400       0.855325
    19704.433500       0.854121
    19743.336600       0.852868
    19782.393700       0.851566
    19821.605600       0.850214
    19860.973200       0.848811
    19900.497500       0.847355
    19940.179500       0.845847
    19980.020000       0.844284
    20020.020000       0.842667
    20060.180500       0.840993
    20100.502500       0.839262
    20140.986900       0.837473
    20181.634700       0.835626
    20222.446900       0.833718
    20263.424500       0.831749
    20304.568500       0.829718
    20345.880000       0.827625
    20387.359800       0.825467
    20429.009200       0.823245
    20470.829100       0.820957
    20512.820500       0.818603
    20554.984600       0.816180
    20597.322300       0.813690
    20639.834900       0.811129
    20682.523300       0.808498
    20725.388600       0.805796
    20768.432000       0.803022
    20811.654500       0.800175
    20855.057400       0.797253
    20898.641600       0.794257
    20942.408400       0.791185
    20986.358900       0.788036
    21030.494200       0.784809
    21074.815600       0.781505
    21119.324200       0.778121
    21164.021200       0.774657
    21208.907700       0.771112
    21253.985100       0.767485
    21299.254500       0.763777
    21344.717200       0.759984
    21390.374300       0.756108
    21436.227200       0.752148
    21482.277100       0.748101
    21528.525300       0.743969
    21574.973000       0.739750
    21621.621600       0.735443
    21668.472400       0.731048
    21715.526600       0.726564
    21762.785600       0.721990
    21810.250800       0.717326
    21857.923500       0.712572
    21905.805000       0.707726
    21953.896800       0.702788
    22002.200200       0.697758
    22050.716600       0.692635
    22099.447500       0.687418
    22148.394200       0.682107
    22197.558300       0.676702
    22246.941000       0.671202
    22296.544000       0.665607
    22346.368700       0.659916
    22396.416600       0.654129
    22446.689100       0.648245
    22497.187900       0.642265
    22547.914300       0.636188
    22598.870100       0.630013
    22650.056600       0.623741
    22701.475600       0.617372
    22753.128600       0.610904
    22805.017100       0.604338
    22857.142900       0.597674
    22909.507400       0.590912
    22962.112500       0.584051
    23014.959700       0.577092
    23068.050700       0.570034
    23121.387300       0.562878
    23174.971000       0.555624
    23228.803700       0.548271
    23282.887100       0.540821
    23337.222900       0.533272
    23391.812900       0.525626
    23446.658900       0.517882
    23501.762600       0.510041
    23557.126000       0.502102
    23612.750900       0.494068
    23668.639100       0.485937
    23724.792400       0.477710
    23781.212800       0.469388
    23837.902300       0.460971
    23894.862600       0.452460
    23952.095800       0.443855
    24009.603800       0.435157
    24067.388700       0.426367
    24125.452400       0.417485
    24183.796900       0.408513
    24242.424200       0.399450
    24301.336600       0.390298
    24360.535900       0.381057
    24420.024400       0.371729
    24479.804200       0.362315
    24539.877300       0.352815
    24600.246000       0.343231
    24660.912500       0.333564
    24721.878900       0.323815
    24783.147500       0.313986
    24844.720500       0.304077
    24906.600200       0.294090
    24968.789000       0.284026
    25031.289100       0.273887
    25094.102900       0.263675
    25157.232700       0.253390
    25220.681000       0.243035
    25284.450100       0.232612
    25348.542500       0.222121
    25412.960600       0.211565
    25477.707000       0.200946
