79,   79, MVIRI VIS channel from srf_MET7_2007168_2007169_1801-Release_S10EE_10.dat
Number of data points:
793
Wavenumber (cm-1)   Filter response
     8442.380800       0.000000
     8449.514200       0.000000
     8456.659600       0.000004
     8463.817200       0.000055
     8470.986900       0.000164
     8478.168700       0.000328
     8485.362700       0.000546
     8492.569000       0.000817
     8499.787500       0.001138
     8507.018300       0.001508
     8514.261400       0.001927
     8521.516800       0.002392
     8528.784600       0.002902
     8536.064900       0.003456
     8543.357500       0.004053
     8550.662700       0.004692
     8557.980300       0.005371
     8565.310500       0.006089
     8572.653200       0.006846
     8580.008600       0.007640
     8587.376600       0.008470
     8594.757200       0.009336
     8602.150500       0.010236
     8609.556600       0.011170
     8616.975400       0.012136
     8624.407100       0.013135
     8631.851500       0.014165
     8639.308900       0.015225
     8646.779100       0.016316
     8654.262200       0.017435
     8661.758300       0.018584
     8669.267400       0.019760
     8676.789600       0.020964
     8684.324800       0.022194
     8691.873100       0.023451
     8699.434500       0.024734
     8707.009100       0.026043
     8714.596900       0.027377
     8722.198000       0.028735
     8729.812300       0.030117
     8737.439900       0.031524
     8745.080900       0.032954
     8752.735200       0.034407
     8760.403000       0.035884
     8768.084200       0.037383
     8775.778900       0.038904
     8783.487000       0.040448
     8791.208800       0.042014
     8798.944100       0.043601
     8806.693100       0.045211
     8814.455700       0.046841
     8822.232000       0.048493
     8830.022100       0.050166
     8837.825900       0.051861
     8845.643500       0.053576
     8853.475000       0.055312
     8861.320300       0.057069
     8869.179600       0.058847
     8877.052800       0.060645
     8884.940000       0.062464
     8892.841300       0.064303
     8900.756600       0.066164
     8908.686000       0.068044
     8916.629500       0.069945
     8924.587200       0.071867
     8932.559200       0.073809
     8940.545400       0.075772
     8948.545900       0.077756
     8956.560700       0.079759
     8964.589900       0.081784
     8972.633500       0.083830
     8980.691500       0.085896
     8988.764000       0.087983
     8996.851100       0.090091
     9004.952700       0.092220
     9013.068900       0.094370
     9021.199800       0.096541
     9029.345400       0.098733
     9037.505600       0.100946
     9045.680700       0.103181
     9053.870500       0.105437
     9062.075200       0.107715
     9070.294800       0.110014
     9078.529300       0.112335
     9086.778700       0.114677
     9095.043200       0.117042
     9103.322700       0.119428
     9111.617300       0.121837
     9119.927000       0.124267
     9128.251900       0.126720
     9136.592100       0.129195
     9144.947400       0.131693
     9153.318100       0.134213
     9161.704100       0.136755
     9170.105500       0.139321
     9178.522300       0.141909
     9186.954500       0.144519
     9195.402300       0.147153
     9203.865600       0.149809
     9212.344500       0.152489
     9220.839100       0.155192
     9229.349300       0.157918
     9237.875300       0.160667
     9246.417000       0.163439
     9254.974500       0.166235
     9263.547900       0.169055
     9272.137200       0.171897
     9280.742500       0.174763
     9289.363700       0.177653
     9298.000900       0.180566
     9306.654300       0.183503
     9315.323700       0.186463
     9324.009300       0.189448
     9332.711200       0.192456
     9341.429200       0.195487
     9350.163600       0.198542
     9358.914400       0.201621
     9367.681500       0.204724
     9376.465100       0.207850
     9385.265100       0.211000
     9394.081700       0.214173
     9402.914900       0.217370
     9411.764700       0.220591
     9420.631200       0.223836
     9429.514400       0.227103
     9438.414300       0.230394
     9447.331100       0.233709
     9456.264800       0.237047
     9465.215300       0.240408
     9474.182900       0.243792
     9483.167400       0.247200
     9492.169000       0.250630
     9501.187600       0.254084
     9510.223500       0.257560
     9519.276500       0.261059
     9528.346800       0.264580
     9537.434400       0.268125
     9546.539400       0.271691
     9555.661700       0.275280
     9564.801500       0.278890
     9573.958800       0.282523
     9583.133700       0.286178
     9592.326100       0.289853
     9601.536200       0.293551
     9610.764100       0.297270
     9620.009600       0.301010
     9629.273000       0.304771
     9638.554200       0.308553
     9647.853400       0.312355
     9657.170400       0.316177
     9666.505600       0.320020
     9675.858700       0.323883
     9685.230000       0.327765
     9694.619500       0.331668
     9704.027200       0.335589
     9713.453100       0.339529
     9722.897400       0.343488
     9732.360100       0.347465
     9741.841200       0.351461
     9751.340800       0.355475
     9760.859000       0.359506
     9770.395700       0.363556
     9779.951100       0.367621
     9789.525200       0.371705
     9799.118100       0.375804
     9808.729800       0.379920
     9818.360300       0.384052
     9828.009800       0.388199
     9837.678300       0.392362
     9847.365800       0.396541
     9857.072400       0.400733
     9866.798200       0.404940
     9876.543200       0.409161
     9886.307500       0.413396
     9896.091000       0.417645
     9905.894000       0.421906
     9915.716400       0.426180
     9925.558300       0.430466
     9935.419800       0.434764
     9945.300800       0.439074
     9955.201600       0.443395
     9965.122100       0.447727
     9975.062300       0.452068
     9985.022500       0.456421
     9995.002500       0.460783
    10005.002500       0.465154
    10015.022500       0.469534
    10025.062700       0.473923
    10035.122900       0.478319
    10045.203400       0.482723
    10055.304200       0.487135
    10065.425300       0.491553
    10075.566800       0.495978
    10085.728700       0.500409
    10095.911200       0.504845
    10106.114200       0.509286
    10116.337900       0.513732
    10126.582300       0.518183
    10136.847400       0.522637
    10147.133400       0.527094
    10157.440300       0.531555
    10167.768200       0.536018
    10178.117000       0.540482
    10188.487000       0.544949
    10198.878100       0.549417
    10209.290500       0.553885
    10219.724100       0.558354
    10230.179000       0.562822
    10240.655400       0.567290
    10251.153300       0.571757
    10261.672700       0.576221
    10272.213700       0.580684
    10282.776300       0.585145
    10293.360800       0.589602
    10303.967000       0.594056
    10314.595200       0.598506
    10325.245200       0.602951
    10335.917300       0.607392
    10346.611500       0.611828
    10357.327800       0.616257
    10368.066400       0.620680
    10378.827200       0.625097
    10389.610400       0.629506
    10400.416000       0.633908
    10411.244100       0.638301
    10422.094800       0.642686
    10432.968200       0.647062
    10443.864200       0.651428
    10454.783100       0.655784
    10465.724800       0.660129
    10476.689400       0.664464
    10487.677000       0.668787
    10498.687700       0.673099
    10509.721500       0.677397
    10520.778500       0.681683
    10531.858900       0.685956
    10542.962600       0.690215
    10554.089700       0.694460
    10565.240400       0.698690
    10576.414600       0.702905
    10587.612500       0.707104
    10598.834100       0.711288
    10610.079600       0.715454
    10621.348900       0.719604
    10632.642200       0.723737
    10643.959600       0.727852
    10655.301000       0.731948
    10666.666700       0.736026
    10678.056600       0.740084
    10689.470900       0.744123
    10700.909600       0.748142
    10712.372800       0.752141
    10723.860600       0.756118
    10735.373100       0.760075
    10746.910300       0.764010
    10758.472300       0.767922
    10770.059200       0.771812
    10781.671200       0.775679
    10793.308100       0.779523
    10804.970300       0.783343
    10816.657700       0.787139
    10828.370300       0.790910
    10840.108400       0.794657
    10851.871900       0.798378
    10863.661100       0.802073
    10875.475800       0.805743
    10887.316300       0.809385
    10899.182600       0.813001
    10911.074700       0.816590
    10922.992900       0.820152
    10934.937100       0.823685
    10946.907500       0.827190
    10958.904100       0.830667
    10970.927000       0.834115
    10982.976400       0.837533
    10995.052200       0.840922
    11007.154700       0.844281
    11019.283700       0.847609
    11031.439600       0.850907
    11043.622300       0.854175
    11055.832000       0.857410
    11068.068600       0.860615
    11080.332400       0.863788
    11092.623400       0.866928
    11104.941700       0.870036
    11117.287400       0.873112
    11129.660500       0.876154
    11142.061300       0.879164
    11154.489700       0.882140
    11166.945800       0.885082
    11179.429800       0.887990
    11191.941800       0.890864
    11204.481800       0.893704
    11217.049900       0.896509
    11229.646300       0.899278
    11242.270900       0.902013
    11254.924000       0.904713
    11267.605600       0.907377
    11280.315800       0.910005
    11293.054800       0.912597
    11305.822500       0.915153
    11318.619100       0.917673
    11331.444800       0.920156
    11344.299500       0.922602
    11357.183400       0.925011
    11370.096600       0.927384
    11383.039300       0.929719
    11396.011400       0.932017
    11409.013100       0.934278
    11422.044500       0.936501
    11435.105800       0.938686
    11448.196900       0.940833
    11461.318100       0.942943
    11474.469300       0.945014
    11487.650800       0.947047
    11500.862600       0.949042
    11514.104800       0.950999
    11527.377500       0.952917
    11540.680900       0.954796
    11554.015000       0.956638
    11567.380000       0.958440
    11580.775900       0.960204
    11594.202900       0.961928
    11607.661100       0.963615
    11621.150500       0.965262
    11634.671300       0.966871
    11648.223600       0.968440
    11661.807600       0.969971
    11675.423200       0.971463
    11689.070700       0.972916
    11702.750100       0.974330
    11716.461600       0.975705
    11730.205300       0.977042
    11743.981200       0.978339
    11757.789500       0.979598
    11771.630400       0.980818
    11785.503800       0.982000
    11799.410000       0.983143
    11813.349100       0.984247
    11827.321100       0.985313
    11841.326200       0.986340
    11855.364600       0.987329
    11869.436200       0.988279
    11883.541300       0.989192
    11897.680000       0.990066
    11911.852300       0.990902
    11926.058400       0.991701
    11940.298500       0.992462
    11954.572600       0.993185
    11968.880900       0.993871
    11983.223500       0.994519
    11997.600500       0.995130
    12012.012000       0.995704
    12026.458200       0.996242
    12040.939200       0.996742
    12055.455100       0.997206
    12070.006000       0.997634
    12084.592100       0.998025
    12099.213600       0.998380
    12113.870400       0.998700
    12128.562800       0.998984
    12143.290800       0.999233
    12158.054700       0.999446
    12172.854500       0.999624
    12187.690400       0.999768
    12202.562500       0.999877
    12217.471000       0.999952
    12232.415900       0.999993
    12247.397400       1.000000
    12262.415700       0.999974
    12277.470800       0.999914
    12292.563000       0.999821
    12307.692300       0.999696
    12322.858900       0.999538
    12338.062900       0.999347
    12353.304500       0.999125
    12368.583800       0.998872
    12383.900900       0.998587
    12399.256000       0.998271
    12414.649300       0.997924
    12430.080800       0.997547
    12445.550700       0.997140
    12461.059200       0.996703
    12476.606400       0.996237
    12492.192400       0.995741
    12507.817400       0.995217
    12523.481500       0.994664
    12539.185000       0.994084
    12554.927800       0.993475
    12570.710200       0.992839
    12586.532400       0.992176
    12602.394500       0.991487
    12618.296500       0.990771
    12634.238800       0.990029
    12650.221400       0.989262
    12666.244500       0.988469
    12682.308200       0.987652
    12698.412700       0.986810
    12714.558200       0.985944
    12730.744700       0.985054
    12746.972600       0.984142
    12763.241900       0.983206
    12779.552700       0.982248
    12795.905300       0.981268
    12812.299800       0.980266
    12828.736400       0.979243
    12845.215200       0.978199
    12861.736300       0.977134
    12878.300100       0.976050
    12894.906500       0.974946
    12911.555800       0.973823
    12928.248200       0.972681
    12944.983800       0.971521
    12961.762800       0.970343
    12978.585300       0.969148
    12995.451600       0.967935
    13012.361700       0.966706
    13029.316000       0.965461
    13046.314400       0.964200
    13063.357300       0.962924
    13080.444700       0.961633
    13097.576900       0.960328
    13114.754100       0.959008
    13131.976400       0.957676
    13149.243900       0.956330
    13166.556900       0.954972
    13183.915600       0.953601
    13201.320100       0.952219
    13218.770700       0.950825
    13236.267400       0.949421
    13253.810500       0.948006
    13271.400100       0.946582
    13289.036500       0.945148
    13306.719900       0.943705
    13324.450400       0.942254
    13342.228200       0.940794
    13360.053400       0.939327
    13377.926400       0.937853
    13395.847300       0.936371
    13413.816200       0.934884
    13431.833400       0.933391
    13449.899100       0.931892
    13468.013500       0.930389
    13486.176700       0.928881
    13504.388900       0.927369
    13522.650400       0.925853
    13540.961400       0.924335
    13559.322000       0.922813
    13577.732500       0.921289
    13596.193100       0.919764
    13614.703900       0.918237
    13633.265200       0.916709
    13651.877100       0.915181
    13670.540000       0.913652
    13689.253900       0.912124
    13708.019200       0.910597
    13726.836000       0.909071
    13745.704500       0.907547
    13764.624900       0.906024
    13783.597500       0.904504
    13802.622500       0.902987
    13821.700100       0.901473
    13840.830400       0.899963
    13860.013900       0.898457
    13879.250500       0.896956
    13898.540700       0.895460
    13917.884500       0.893969
    13937.282200       0.892483
    13956.734100       0.891004
    13976.240400       0.889531
    13995.801300       0.888065
    14015.417000       0.886606
    14035.087700       0.885155
    14054.813800       0.883712
    14074.595400       0.882277
    14094.432700       0.880851
    14114.326000       0.879434
    14134.275600       0.878027
    14154.281700       0.876629
    14174.344400       0.875242
    14194.464200       0.873864
    14214.641100       0.872498
    14234.875400       0.871143
    14255.167500       0.869799
    14275.517500       0.868467
    14295.925700       0.867147
    14316.392300       0.865840
    14336.917600       0.864545
    14357.501800       0.863263
    14378.145200       0.861994
    14398.848100       0.860739
    14419.610700       0.859498
    14440.433200       0.858271
    14461.316000       0.857058
    14482.259200       0.855860
    14503.263200       0.854677
    14524.328200       0.853509
    14545.454500       0.852357
    14566.642400       0.851220
    14587.892000       0.850098
    14609.203800       0.848993
    14630.577900       0.847904
    14652.014700       0.846832
    14673.514300       0.845776
    14695.077100       0.844738
    14716.703500       0.843716
    14738.393500       0.842712
    14760.147600       0.841725
    14781.966000       0.840755
    14803.849000       0.839803
    14825.796900       0.838870
    14847.809900       0.837954
    14869.888500       0.837056
    14892.032800       0.836177
    14914.243100       0.835316
    14936.519800       0.834474
    14958.863100       0.833650
    14981.273400       0.832845
    15003.750900       0.832059
    15026.296000       0.831292
    15048.909000       0.830543
    15071.590100       0.829814
    15094.339600       0.829104
    15117.158000       0.828413
    15140.045400       0.827741
    15163.002300       0.827088
    15186.028900       0.826454
    15209.125500       0.825840
    15232.292500       0.825245
    15255.530100       0.824669
    15278.838800       0.824112
    15302.218800       0.823575
    15325.670500       0.823056
    15349.194200       0.822557
    15372.790200       0.822077
    15396.458800       0.821616
    15420.200500       0.821173
    15444.015400       0.820750
    15467.904100       0.820345
    15491.866800       0.819959
    15515.903800       0.819592
    15540.015500       0.819243
    15564.202300       0.818912
    15588.464500       0.818600
    15612.802500       0.818306
    15637.216600       0.818029
    15661.707100       0.817770
    15686.274500       0.817529
    15710.919100       0.817305
    15735.641200       0.817099
    15760.441300       0.816909
    15785.319700       0.816737
    15810.276700       0.816580
    15835.312700       0.816441
    15860.428200       0.816317
    15885.623500       0.816209
    15910.899000       0.816117
    15936.255000       0.816040
    15961.691900       0.815979
    15987.210200       0.815932
    16012.810200       0.815899
    16038.492400       0.815881
    16064.257000       0.815877
    16090.104600       0.815886
    16116.035500       0.815909
    16142.050000       0.815945
    16168.148700       0.815993
    16194.332000       0.816053
    16220.600200       0.816126
    16246.953700       0.816209
    16273.393000       0.816304
    16299.918500       0.816410
    16326.530600       0.816526
    16353.229800       0.816651
    16380.016400       0.816787
    16406.890900       0.816931
    16433.853700       0.817084
    16460.905300       0.817245
    16488.046200       0.817414
    16515.276600       0.817590
    16542.597200       0.817772
    16570.008300       0.817962
    16597.510400       0.818156
    16625.103900       0.818357
    16652.789300       0.818562
    16680.567100       0.818771
    16708.437800       0.818984
    16736.401700       0.819200
    16764.459300       0.819419
    16792.611300       0.819640
    16820.857900       0.819863
    16849.199700       0.820086
    16877.637100       0.820310
    16906.170800       0.820534
    16934.801000       0.820757
    16963.528400       0.820979
    16992.353400       0.821199
    17021.276600       0.821417
    17050.298400       0.821631
    17079.419300       0.821842
    17108.639900       0.822048
    17137.960600       0.822249
    17167.382000       0.822444
    17196.904600       0.822633
    17226.528900       0.822815
    17256.255400       0.822989
    17286.084700       0.823156
    17316.017300       0.823313
    17346.053800       0.823460
    17376.194600       0.823597
    17406.440400       0.823723
    17436.791600       0.823837
    17467.248900       0.823938
    17497.812800       0.824027
    17528.483800       0.824101
    17559.262500       0.824161
    17590.149500       0.824206
    17621.145400       0.824234
    17652.250700       0.824246
    17683.466000       0.824240
    17714.791900       0.824216
    17746.228900       0.824172
    17777.777800       0.824109
    17809.439000       0.824026
    17841.213200       0.823921
    17873.101000       0.823794
    17905.103000       0.823644
    17937.219700       0.823470
    17969.451900       0.823272
    18001.800200       0.823049
    18034.265100       0.822800
    18066.847300       0.822525
    18099.547500       0.822222
    18132.366300       0.821890
    18165.304300       0.821530
    18198.362100       0.821139
    18231.540600       0.820719
    18264.840200       0.820266
    18298.261700       0.819782
    18331.805700       0.819264
    18365.472900       0.818713
    18399.264000       0.818127
    18433.179700       0.817506
    18467.220700       0.816849
    18501.387600       0.816155
    18535.681200       0.815423
    18570.102100       0.814653
    18604.651200       0.813844
    18639.329000       0.812994
    18674.136300       0.812104
    18709.073900       0.811172
    18744.142500       0.810198
    18779.342700       0.809181
    18814.675400       0.808120
    18850.141400       0.807014
    18885.741300       0.805863
    18921.475900       0.804666
    18957.346000       0.803421
    18993.352300       0.802130
    19029.495700       0.800790
    19065.776900       0.799401
    19102.196800       0.797962
    19138.756000       0.796472
    19175.455400       0.794932
    19212.295900       0.793339
    19249.278200       0.791694
    19286.403100       0.789995
    19323.671500       0.788243
    19361.084200       0.786436
    19398.642100       0.784573
    19436.346000       0.782654
    19474.196700       0.780679
    19512.195100       0.778647
    19550.342100       0.776556
    19588.638600       0.774407
    19627.085400       0.772199
    19665.683400       0.769931
    19704.433500       0.767602
    19743.336600       0.765213
    19782.393700       0.762763
    19821.605600       0.760250
    19860.973200       0.757674
    19900.497500       0.755036
    19940.179500       0.752334
    19980.020000       0.749568
    20020.020000       0.746737
    20060.180500       0.743841
    20100.502500       0.740880
    20140.986900       0.737853
    20181.634700       0.734759
    20222.446900       0.731599
    20263.424500       0.728372
    20304.568500       0.725077
    20345.880000       0.721714
    20387.359800       0.718283
    20429.009200       0.714783
    20470.829100       0.711215
    20512.820500       0.707577
    20554.984600       0.703870
    20597.322300       0.700094
    20639.834900       0.696247
    20682.523300       0.692331
    20725.388600       0.688344
    20768.432000       0.684288
    20811.654500       0.680160
    20855.057400       0.675962
    20898.641600       0.671694
    20942.408400       0.667355
    20986.358900       0.662945
    21030.494200       0.658464
    21074.815600       0.653913
    21119.324200       0.649291
    21164.021200       0.644598
    21208.907700       0.639835
    21253.985100       0.635001
    21299.254500       0.630097
    21344.717200       0.625123
    21390.374300       0.620080
    21436.227200       0.614966
    21482.277100       0.609784
    21528.525300       0.604532
    21574.973000       0.599212
    21621.621600       0.593823
    21668.472400       0.588366
    21715.526600       0.582842
    21762.785600       0.577251
    21810.250800       0.571594
    21857.923500       0.565870
    21905.805000       0.560081
    21953.896800       0.554227
    22002.200200       0.548309
    22050.716600       0.542327
    22099.447500       0.536283
    22148.394200       0.530177
    22197.558300       0.524009
    22246.941000       0.517781
    22296.544000       0.511493
    22346.368700       0.505147
    22396.416600       0.498743
    22446.689100       0.492282
    22497.187900       0.485766
    22547.914300       0.479195
    22598.870100       0.472570
    22650.056600       0.465893
    22701.475600       0.459165
    22753.128600       0.452388
    22805.017100       0.445561
    22857.142900       0.438688
    22909.507400       0.431768
    22962.112500       0.424804
    23014.959700       0.417798
    23068.050700       0.410750
    23121.387300       0.403662
    23174.971000       0.396536
    23228.803700       0.389373
    23282.887100       0.382176
    23337.222900       0.374946
    23391.812900       0.367685
    23446.658900       0.360394
    23501.762600       0.353077
    23557.126000       0.345734
    23612.750900       0.338368
    23668.639100       0.330981
    23724.792400       0.323574
    23781.212800       0.316152
    23837.902300       0.308714
    23894.862600       0.301265
    23952.095800       0.293806
    24009.603800       0.286340
    24067.388700       0.278870
    24125.452400       0.271397
    24183.796900       0.263925
    24242.424200       0.256456
    24301.336600       0.248993
    24360.535900       0.241539
    24420.024400       0.234097
    24479.804200       0.226669
    24539.877300       0.219260
    24600.246000       0.211871
    24660.912500       0.204507
    24721.878900       0.197170
    24783.147500       0.189863
    24844.720500       0.182590
    24906.600200       0.175355
    24968.789000       0.168161
    25031.289100       0.161011
    25094.102900       0.153909
    25157.232700       0.146860
    25220.681000       0.139866
    25284.450100       0.132932
    25348.542500       0.126061
    25412.960600       0.119258
    25477.707000       0.112527
