5,    channel 5 SRF extracted from FY-3G_MERSI-RM.zip(FY3G_MERSI-RM_SRF_CH05.txt) (received Nov 2023)
Number of data points:
781
Wavenumber (cm-1)   Filter response
     5875.438200       0.001240
     5876.137000       0.001310
     5876.822200       0.001430
     5877.507800       0.001570
     5878.207400       0.001680
     5878.893400       0.001800
     5879.579500       0.001870
     5880.279600       0.001940
     5880.965700       0.002010
     5881.666200       0.002100
     5882.352600       0.002170
     5883.040200       0.002240
     5883.740800       0.002360
     5884.428400       0.002450
     5885.129000       0.002520
     5885.816900       0.002620
     5886.505000       0.002730
     5887.206400       0.002730
     5887.895500       0.002800
     5888.584400       0.002920
     5889.286700       0.003040
     5889.975300       0.003150
     5890.664300       0.003340
     5891.367100       0.003440
     5892.056500       0.003480
     5892.746700       0.003530
     5893.450700       0.003600
     5894.140500       0.003690
     5894.830900       0.003900
     5895.534700       0.004160
     5896.225000       0.004420
     5896.916900       0.004630
     5897.620500       0.004860
     5898.312000       0.005000
     5899.003700       0.005120
     5899.709200       0.005280
     5900.401200       0.005540
     5901.093800       0.005730
     5901.799000       0.005940
     5902.491900       0.006120
     5903.184200       0.006260
     5903.891000       0.006310
     5904.583700       0.006430
     5905.277200       0.006540
     5905.984500       0.006750
     5906.678000       0.006990
     5907.371700       0.007290
     5908.066200       0.007590
     5908.773500       0.007950
     5909.468400       0.008250
     5910.163400       0.008580
     5910.857900       0.008880
     5911.566900       0.009140
     5912.261700       0.009440
     5912.956700       0.009790
     5913.666200       0.010100
     5914.362200       0.010400
     5915.058000       0.010800
     5915.754300       0.011100
     5916.463400       0.011500
     5917.161200       0.011900
     5917.857700       0.012400
     5918.568000       0.012900
     5919.265500       0.013400
     5919.962800       0.013800
     5920.660000       0.014300
     5921.357600       0.014800
     5922.069100       0.015400
     5922.767500       0.015900
     5923.466000       0.016600
     5924.164300       0.017200
     5924.877200       0.017900
     5925.576500       0.018600
     5926.275400       0.019300
     5926.974700       0.020000
     5927.687500       0.020800
     5928.386500       0.021500
     5929.087100       0.022300
     5929.787400       0.023100
     5930.500900       0.023900
     5931.202700       0.024800
     5931.902100       0.025800
     5932.604500       0.026900
     5933.304700       0.028000
     5934.020100       0.029100
     5934.721300       0.030200
     5935.423000       0.031200
     5936.124800       0.032300
     5936.826500       0.033500
     5937.542400       0.034700
     5938.245500       0.035900
     5938.948000       0.037400
     5939.650700       0.039000
     5940.354900       0.040500
     5941.071300       0.042000
     5941.774500       0.043600
     5942.478200       0.045200
     5943.182100       0.046700
     5943.886100       0.048300
     5944.590400       0.050000
     5945.308500       0.051600
     5946.013100       0.053100
     5946.718500       0.054800
     5947.423400       0.056600
     5948.127700       0.058600
     5948.834000       0.060800
     5949.553900       0.063200
     5950.259400       0.065800
     5950.965100       0.068300
     5951.671400       0.070600
     5952.377800       0.072900
     5953.085000       0.075200
     5953.804500       0.077600
     5954.512200       0.080000
     5955.219300       0.082900
     5955.926500       0.085900
     5956.634300       0.088800
     5957.341900       0.091800
     5958.051000       0.095000
     5958.772100       0.098100
     5959.481200       0.101000
     5960.189500       0.104000
     5960.898300       0.107000
     5961.607600       0.111000
     5962.316700       0.114000
     5963.025700       0.118000
     5963.735500       0.122000
     5964.445500       0.126000
     5965.169500       0.131000
     5965.879800       0.135000
     5966.590300       0.140000
     5967.300600       0.144000
     5968.011800       0.148000
     5968.722800       0.152000
     5969.433300       0.156000
     5970.145700       0.160000
     5970.857200       0.165000
     5971.568900       0.170000
     5972.295000       0.175000
     5973.006700       0.180000
     5973.719200       0.185000
     5974.431600       0.191000
     5975.144800       0.195000
     5975.857900       0.200000
     5976.570800       0.205000
     5977.284200       0.210000
     5977.998100       0.215000
     5978.711800       0.220000
     5979.426500       0.226000
     5980.140600       0.231000
     5980.854100       0.237000
     5981.583500       0.244000
     5982.298500       0.250000
     5983.013300       0.257000
     5983.728900       0.263000
     5984.444000       0.269000
     5985.159300       0.275000
     5985.876200       0.280000
     5986.590800       0.286000
     5987.307600       0.292000
     5988.024700       0.299000
     5988.741200       0.306000
     5989.457500       0.313000
     5990.175000       0.320000
     5990.891700       0.327000
     5991.609600       0.333000
     5992.327300       0.341000
     5993.045200       0.348000
     5993.763200       0.355000
     5994.482200       0.363000
     5995.200200       0.370000
     5995.918100       0.377000
     5996.637200       0.384000
     5997.356100       0.392000
     5998.075600       0.399000
     5998.795900       0.407000
     5999.515000       0.415000
     6000.235300       0.423000
     6000.955100       0.430000
     6001.675400       0.438000
     6002.396600       0.446000
     6003.116900       0.454000
     6003.837800       0.461000
     6004.558400       0.469000
     6005.280300       0.476000
     6006.001700       0.483000
     6006.723900       0.490000
     6007.445600       0.498000
     6008.167500       0.505000
     6008.890300       0.512000
     6009.612100       0.519000
     6010.335300       0.526000
     6011.058200       0.532000
     6011.780900       0.539000
     6012.505300       0.547000
     6013.228400       0.555000
     6013.951600       0.562000
     6014.675800       0.570000
     6015.400100       0.578000
     6016.123900       0.585000
     6016.849700       0.592000
     6017.574200       0.599000
     6018.299200       0.607000
     6019.024500       0.615000
     6019.749500       0.622000
     6020.475800       0.629000
     6021.201100       0.636000
     6021.913600       0.641000
     6022.639000       0.646000
     6023.366000       0.653000
     6024.093100       0.661000
     6024.819400       0.668000
     6025.546100       0.676000
     6026.273500       0.685000
     6027.001700       0.693000
     6027.729400       0.700000
     6028.456800       0.708000
     6029.184900       0.715000
     6029.914200       0.722000
     6030.641400       0.728000
     6031.356500       0.735000
     6032.085300       0.742000
     6032.814200       0.749000
     6033.543200       0.755000
     6034.273600       0.762000
     6035.002700       0.769000
     6035.733000       0.773000
     6036.463100       0.778000
     6037.193100       0.783000
     6037.924000       0.786000
     6038.655400       0.789000
     6039.371600       0.794000
     6040.102700       0.801000
     6040.834200       0.805000
     6041.565600       0.810000
     6042.297900       0.818000
     6043.029600       0.822000
     6043.761900       0.826000
     6044.494400       0.832000
     6045.212800       0.838000
     6045.945600       0.843000
     6046.678900       0.848000
     6047.412100       0.854000
     6048.145000       0.859000
     6048.879700       0.862000
     6049.613400       0.865000
     6050.333000       0.870000
     6051.067000       0.875000
     6051.801600       0.878000
     6052.536000       0.881000
     6053.271000       0.886000
     6054.006500       0.889000
     6054.741800       0.889000
     6055.463700       0.893000
     6056.199000       0.896000
     6056.934500       0.897000
     6057.671200       0.900000
     6058.407400       0.907000
     6059.130200       0.911000
     6059.867100       0.914000
     6060.603900       0.918000
     6061.340800       0.923000
     6062.078600       0.925000
     6062.815900       0.928000
     6063.539300       0.932000
     6064.277700       0.937000
     6065.015900       0.940000
     6065.754600       0.941000
     6066.493100       0.945000
     6067.217900       0.947000
     6067.956700       0.947000
     6068.696600       0.949000
     6069.435400       0.955000
     6070.175600       0.958000
     6070.915600       0.961000
     6071.641700       0.964000
     6072.381300       0.968000
     6073.122200       0.968000
     6073.863300       0.969000
     6074.589400       0.970000
     6075.330800       0.974000
     6076.072800       0.976000
     6076.814200       0.978000
     6077.556200       0.981000
     6078.283900       0.985000
     6079.026600       0.986000
     6079.768000       0.986000
     6080.511400       0.986000
     6081.240300       0.987000
     6081.982200       0.987000
     6082.726500       0.986000
     6083.470000       0.988000
     6084.198400       0.991000
     6084.944000       0.992000
     6085.687200       0.993000
     6086.431300       0.995000
     6087.161200       0.998000
     6087.905700       0.998000
     6088.651900       0.996000
     6089.397500       0.997000
     6090.128000       0.998000
     6090.873300       0.997000
     6091.620200       0.995000
     6092.365000       0.997000
     6093.096300       0.998000
     6093.843400       0.996000
     6094.590600       0.996000
     6095.336900       0.998000
     6096.070400       0.999000
     6096.818200       0.999000
     6097.565100       0.998000
     6098.298700       1.000000
     6099.046300       0.999000
     6099.794800       0.997000
     6100.542800       0.995000
     6101.277200       0.996000
     6102.026200       0.994000
     6102.775900       0.993000
     6103.510400       0.993000
     6104.259300       0.995000
     6105.009500       0.994000
     6105.744900       0.994000
     6106.495100       0.995000
     6107.245400       0.996000
     6107.996000       0.994000
     6108.731800       0.993000
     6109.483000       0.993000
     6110.234500       0.990000
     6110.970800       0.987000
     6111.722300       0.986000
     6112.475400       0.987000
     6113.211500       0.986000
     6113.964300       0.986000
     6114.716500       0.987000
     6115.455000       0.986000
     6116.208000       0.981000
     6116.960700       0.977000
     6117.700100       0.973000
     6118.453300       0.970000
     6119.207700       0.967000
     6119.946900       0.966000
     6120.701000       0.968000
     6121.455600       0.969000
     6122.195300       0.968000
     6122.950300       0.967000
     6123.706200       0.968000
     6124.445800       0.966000
     6125.201300       0.962000
     6125.942000       0.961000
     6126.697900       0.960000
     6127.454400       0.955000
     6128.196400       0.951000
     6128.952800       0.950000
     6129.709400       0.946000
     6130.451600       0.942000
     6131.209400       0.942000
     6131.966500       0.942000
     6132.710000       0.938000
     6133.468300       0.938000
     6134.211400       0.938000
     6134.969700       0.935000
     6135.728600       0.932000
     6136.472600       0.933000
     6137.231100       0.932000
     6137.975400       0.929000
     6138.735000       0.927000
     6139.494100       0.926000
     6140.239400       0.921000
     6140.999900       0.917000
     6141.745200       0.913000
     6142.505800       0.911000
     6143.266500       0.906000
     6144.012700       0.902000
     6144.773800       0.899000
     6145.521100       0.896000
     6146.281900       0.891000
     6147.044300       0.886000
     6147.791800       0.884000
     6148.553900       0.881000
     6149.301300       0.877000
     6150.063800       0.874000
     6150.812400       0.873000
     6151.574800       0.869000
     6152.338200       0.863000
     6153.087700       0.859000
     6153.850700       0.856000
     6154.600200       0.850000
     6155.365100       0.844000
     6156.113900       0.840000
     6156.878700       0.835000
     6157.629400       0.828000
     6158.394300       0.823000
     6159.159700       0.819000
     6159.910200       0.813000
     6160.675600       0.808000
     6161.426000       0.806000
     6162.192200       0.803000
     6162.944200       0.796000
     6163.710700       0.791000
     6164.463100       0.788000
     6165.230400       0.782000
     6165.982700       0.776000
     6166.750400       0.772000
     6167.503500       0.768000
     6168.271200       0.762000
     6169.024600       0.756000
     6169.793100       0.750000
     6170.561400       0.744000
     6171.315300       0.737000
     6172.084800       0.731000
     6172.839100       0.727000
     6173.607400       0.724000
     6174.362900       0.718000
     6175.133100       0.712000
     6175.888200       0.706000
     6176.658700       0.699000
     6177.414600       0.689000
     6178.185200       0.680000
     6178.941000       0.673000
     6179.712700       0.665000
     6180.469000       0.656000
     6181.240300       0.650000
     6181.998000       0.646000
     6182.769300       0.638000
     6183.527100       0.632000
     6184.299900       0.628000
     6185.057700       0.621000
     6185.816000       0.613000
     6186.588600       0.607000
     6187.347300       0.600000
     6188.122300       0.592000
     6188.879400       0.585000
     6189.654400       0.580000
     6190.413800       0.573000
     6191.187600       0.566000
     6191.948500       0.559000
     6192.723100       0.553000
     6193.483300       0.545000
     6194.259000       0.537000
     6195.020400       0.529000
     6195.780700       0.522000
     6196.557000       0.514000
     6197.318100       0.507000
     6198.094800       0.500000
     6198.856700       0.493000
     6199.633800       0.485000
     6200.396100       0.476000
     6201.173500       0.466000
     6201.935800       0.456000
     6202.698600       0.447000
     6203.476300       0.437000
     6204.239900       0.430000
     6205.019000       0.425000
     6205.782600       0.420000
     6206.561800       0.413000
     6207.326200       0.407000
     6208.091500       0.400000
     6208.870100       0.392000
     6209.635400       0.383000
     6210.416000       0.376000
     6211.180100       0.371000
     6211.946000       0.365000
     6212.727100       0.358000
     6213.493400       0.351000
     6214.273800       0.345000
     6215.040800       0.336000
     6215.807600       0.328000
     6216.588900       0.322000
     6217.355800       0.317000
     6218.139000       0.310000
     6218.905900       0.305000
     6219.674000       0.300000
     6220.457100       0.293000
     6221.225700       0.286000
     6222.009100       0.280000
     6222.777700       0.274000
     6223.546800       0.267000
     6224.330100       0.261000
     6225.100000       0.257000
     6225.869700       0.252000
     6226.654300       0.247000
     6227.424400       0.243000
     6228.194300       0.238000
     6228.980300       0.233000
     6229.750200       0.227000
     6230.536200       0.221000
     6231.307600       0.216000
     6232.078900       0.210000
     6232.865900       0.205000
     6233.637900       0.200000
     6234.410100       0.195000
     6235.197300       0.190000
     6235.969500       0.186000
     6236.742200       0.183000
     6237.530000       0.178000
     6238.303200       0.174000
     6239.077300       0.170000
     6239.865700       0.166000
     6240.639400       0.161000
     6241.414200       0.157000
     6242.203100       0.153000
     6242.976700       0.149000
     6243.751600       0.145000
     6244.541500       0.141000
     6245.317200       0.137000
     6246.091900       0.133000
     6246.883600       0.129000
     6247.659100       0.125000
     6248.434400       0.121000
     6249.226300       0.117000
     6250.003500       0.113000
     6250.779400       0.109000
     6251.556600       0.106000
     6252.349300       0.103000
     6253.125800       0.099400
     6253.904000       0.096900
     6254.697700       0.094600
     6255.474700       0.091700
     6256.253900       0.089200
     6257.046600       0.086900
     6257.825000       0.084100
     6258.604800       0.081200
     6259.382800       0.078800
     6260.178300       0.076600
     6260.957900       0.074100
     6261.738000       0.071800
     6262.518000       0.069900
     6263.313800       0.067800
     6264.094200       0.065300
     6264.875200       0.063300
     6265.672000       0.061600
     6266.452600       0.059500
     6267.233700       0.057600
     6268.015800       0.055700
     6268.813500       0.054000
     6269.594800       0.052100
     6270.377200       0.050300
     6271.160100       0.048700
     6271.957300       0.047500
     6272.740600       0.046200
     6273.524100       0.044800
     6274.307800       0.043600
     6275.106700       0.042300
     6275.890400       0.040800
     6276.674300       0.039200
     6277.459200       0.037800
     6278.259200       0.036700
     6279.044500       0.035600
     6279.829600       0.034500
     6280.614500       0.033500
     6281.399900       0.032500
     6282.201400       0.031400
     6282.987600       0.030200
     6283.773300       0.029200
     6284.560000       0.028200
     6285.363000       0.027200
     6286.148500       0.026200
     6286.935700       0.025400
     6287.723200       0.024600
     6288.510400       0.023800
     6289.314100       0.023000
     6290.101800       0.022400
     6290.890400       0.021800
     6291.678400       0.021100
     6292.467100       0.020400
     6293.271400       0.019800
     6294.061600       0.019300
     6294.850000       0.018600
     6295.639500       0.017900
     6296.430300       0.017200
     6297.235200       0.016600
     6298.025600       0.015800
     6298.817000       0.015200
     6299.607400       0.014700
     6300.398100       0.014100
     6301.204400       0.013500
     6301.996200       0.013000
     6302.787800       0.012600
     6303.580400       0.012300
     6304.372500       0.012000
     6305.164300       0.011800
     6305.972600       0.011700
     6306.765200       0.011600
     6307.558400       0.011300
     6308.352300       0.011000
     6309.144700       0.010600
     6309.938900       0.010200
     6310.733300       0.009840
     6311.543900       0.009510
     6312.337900       0.009140
     6313.132100       0.008810
     6313.927700       0.008510
     6314.722000       0.008200
     6315.518000       0.007950
     6316.329400       0.007710
     6317.124600       0.007430
     6317.921200       0.007200
     6318.718000       0.006960
     6319.514300       0.006730
     6320.310700       0.006570
     6321.108100       0.006540
     6321.905800       0.006450
     6322.718800       0.006380
     6323.516400       0.006310
     6324.313400       0.006260
     6325.112300       0.006100
     6325.910900       0.005980
     6326.708600       0.005910
     6327.507600       0.005870
     6328.306900       0.005730
     6329.105900       0.005680
     6329.922000       0.005680
     6330.722200       0.005610
     6331.521500       0.005490
     6332.321400       0.005400
     6333.121800       0.005230
     6333.923300       0.005020
     6334.724600       0.004860
     6335.525200       0.004740
     6336.326500       0.004700
     6337.128800       0.004720
     6337.946100       0.004790
     6338.748400       0.004880
     6339.551300       0.004930
     6340.352800       0.004980
     6341.156100       0.004980
     6341.958800       0.004910
     6342.762500       0.004740
     6343.566000       0.004700
     6344.369300       0.004600
     6345.173200       0.004530
     6345.977800       0.004490
     6346.782900       0.004530
     6347.586600       0.004510
     6348.408300       0.004510
     6349.213200       0.004490
     6350.018300       0.004510
     6350.824100       0.004510
     6351.630500       0.004490
     6352.437000       0.004510
     6353.242600       0.004600
     6354.049100       0.004650
     6354.856300       0.004670
     6355.663300       0.004650
     6356.470500       0.004510
     6357.278300       0.004250
     6358.085900       0.004040
     6358.893700       0.003880
     6359.701300       0.003880
     6360.510300       0.003970
     6361.319100       0.004180
     6362.128900       0.004370
     6362.937400       0.004510
     6363.747200       0.004530
     6364.556400       0.004560
     6365.366300       0.004530
     6366.176800       0.004510
     6366.987800       0.004510
     6367.797900       0.004510
     6368.608600       0.004490
     6369.419400       0.004440
     6370.230900       0.004320
     6371.043000       0.004230
     6371.854100       0.004140
     6372.682900       0.004000
     6373.479000       0.003860
     6374.291100       0.003810
     6375.104700       0.003760
     6375.917600       0.003760
     6376.746200       0.003830
     6377.544500       0.003930
     6378.358100       0.004000
     6379.171400       0.003970
     6379.985800       0.003930
     6380.800400       0.003830
     6381.614400       0.003740
     6382.429800       0.003670
     6383.244600       0.003720
     6384.060900       0.003740
     6384.875700       0.003790
     6385.692000       0.003880
     6386.507600       0.003950
     6387.324700       0.003930
     6388.141200       0.003930
     6388.957000       0.003950
     6389.774700       0.003900
     6390.591800       0.003830
     6391.409500       0.003810
     6392.227900       0.003810
     6393.045200       0.003810
     6393.864300       0.003790
     6394.682500       0.003760
     6395.501300       0.003760
     6396.320200       0.003690
     6397.139400       0.003530
     6397.959200       0.003410
     6398.778800       0.003340
     6399.599000       0.003250
     6400.402700       0.003250
     6401.222100       0.003370
     6402.043300       0.003550
     6402.864800       0.003670
     6403.685700       0.003740
     6404.507100       0.003720
     6405.328800       0.003620
     6406.150700       0.003390
     6406.973200       0.003220
     6407.795600       0.003080
     6408.617700       0.002990
     6409.440400       0.002940
     6410.263400       0.002970
     6411.070100       0.002990
     6411.894700       0.003110
     6412.718300       0.003270
     6413.542500       0.003340
     6414.366100       0.003440
     6415.191200       0.003480
     6416.015600       0.003410
     6416.841900       0.003220
     6417.667200       0.003180
     6418.491800       0.003040
     6419.301500       0.002940
     6420.127800       0.002940
     6420.953500       0.003080
     6421.780200       0.003130
     6422.607200       0.003270
     6423.433500       0.003340
     6424.261300       0.003320
     6425.088100       0.003180
     6425.916700       0.003060
     6426.727800       0.002940
     6427.555600       0.002900
     6428.384500       0.002940
     6429.213100       0.003010
     6430.042000       0.003010
     6430.871100       0.003010
     6431.700800       0.003010
     6432.530700       0.002900
     6433.344300       0.002830
     6434.173400       0.002900
     6435.004400       0.002900
     6435.835600       0.002830
     6436.666500       0.002800
     6437.497300       0.002780
     6438.328800       0.002640
     6439.144600       0.002520
     6439.976100       0.002480
     6440.808100       0.002500
     6441.640000       0.002480
     6442.473300       0.002520
     6443.305600       0.002620
     6444.123200       0.002690
     6444.956700       0.002710
     6445.790500       0.002760
     6446.623600       0.002780
     6447.457000       0.002780
     6448.291000       0.002780
     6449.109400       0.002760
     6449.944700       0.002760
     6450.779300       0.002760
     6451.615000       0.002800
     6452.450900       0.002850
     6453.286600       0.002900
     6454.105400       0.002900
     6454.942000       0.002900
     6455.778300       0.002760
     6456.615300       0.002590
     6457.453400       0.002480
     6458.273300       0.002430
     6459.110900       0.002410
     6459.948700       0.002480
     6460.786800       0.002590
     6461.625100       0.002690
     6462.446900       0.002690
     6463.286000       0.002590
     6464.124900       0.002570
     6464.964100       0.002520
     6465.803900       0.002480
     6466.627200       0.002500
     6467.467400       0.002620
     6468.307800       0.002660
