14,    channel 14 SRF extracted from SRF_FY-3F_MERSI-III.zip(FY3F_MERSI_SRF_CH14_Pub.txt) (received Nov 2023)
Number of data points:
719
Wavenumber (cm-1)   Filter response
    11074.194700       0.001701
    11080.323800       0.001701
    11086.484300       0.001780
    11092.630800       0.001780
    11098.785300       0.001859
    11104.946600       0.001938
    11111.117300       0.001938
    11117.297300       0.001859
    11123.459400       0.001859
    11129.654400       0.001780
    11135.859900       0.001701
    11142.073700       0.001701
    11148.270800       0.001781
    11154.498400       0.001781
    11160.714300       0.001781
    11166.937100       0.001781
    11173.190600       0.001781
    11179.432300       0.001782
    11185.681100       0.001782
    11191.935500       0.001864
    11198.199500       0.001864
    11204.473000       0.001864
    11210.756000       0.001783
    11217.047400       0.001865
    11223.347100       0.001866
    11229.653800       0.001948
    11235.948700       0.002031
    11242.272200       0.002031
    11248.604000       0.002032
    11254.924000       0.002033
    11261.249800       0.001950
    11267.610700       0.001951
    11273.954600       0.002035
    11280.308200       0.001952
    11286.693200       0.001953
    11293.063700       0.001953
    11299.441400       0.001869
    11305.828900       0.001785
    11312.226200       0.001870
    11318.630700       0.001871
    11325.020600       0.001957
    11331.443500       0.001957
    11337.874900       0.001957
    11344.290500       0.001872
    11350.739100       0.001873
    11357.171800       0.001787
    11363.640200       0.001874
    11370.090200       0.001961
    11376.574600       0.002048
    11383.043200       0.002049
    11389.520300       0.002049
    11396.007500       0.002050
    11402.503400       0.002050
    11409.006600       0.002051
    11415.521200       0.002052
    11422.041900       0.002141
    11428.574000       0.002053
    11435.112300       0.001965
    11441.637100       0.001877
    11448.195600       0.001878
    11454.760300       0.001879
    11461.312800       0.001969
    11467.896500       0.001969
    11474.466700       0.001969
    11481.044400       0.001970
    11487.658700       0.001971
    11494.254200       0.001972
    11500.859900       0.001972
    11507.473200       0.001972
    11514.098100       0.001972
    11520.730700       0.001973
    11527.373500       0.001883
    11534.024000       0.001974
    11540.683600       0.001974
    11547.353400       0.001883
    11554.005700       0.001792
    11560.695000       0.001792
    11567.392000       0.001885
    11574.072700       0.001977
    11580.788000       0.001977
    11587.486900       0.002070
    11594.197500       0.002070
    11600.940200       0.001979
    11607.666400       0.001979
    11614.403200       0.002072
    11621.149100       0.002073
    11627.904300       0.002073
    11634.670000       0.002167
    11641.442200       0.002168
    11648.225000       0.002262
    11655.018400       0.002169
    11661.795300       0.002169
    11668.606000       0.001982
    11675.427300       0.001888
    11682.230700       0.001701
    11689.072100       0.001701
    11695.894100       0.001701
    11702.752900       0.001796
    11709.596400       0.001796
    11716.475400       0.001890
    11723.334900       0.001890
    11730.206700       0.001985
    11737.087800       0.001891
    11743.975700       0.001986
    11750.875800       0.001891
    11757.786800       0.001986
    11764.704500       0.001986
    11771.633100       0.002082
    11778.572700       0.001987
    11785.494100       0.001987
    11792.450000       0.001987
    11799.418400       0.001892
    11806.368500       0.001796
    11813.356100       0.001796
    11820.326800       0.001892
    11827.332300       0.001797
    11834.322300       0.001892
    11841.320600       0.001988
    11848.328600       0.001988
    11855.374400       0.001988
    11862.406100       0.002084
    11869.441800       0.001988
    11876.490200       0.001893
    11883.548400       0.001988
    11890.616300       0.001893
    11897.667200       0.001797
    11904.756200       0.001893
    11911.853700       0.001893
    11918.962500       0.001797
    11926.051300       0.001893
    11933.179900       0.001893
    11940.291400       0.001892
    11947.438400       0.001988
    11954.568300       0.001988
    11961.708200       0.001892
    11968.888100       0.002083
    11976.049300       0.001988
    11983.219200       0.001892
    11990.400500       0.001892
    11997.591800       0.001892
    12004.793300       0.001701
    12012.003400       0.001796
    12019.225000       0.001796
    12026.456800       0.001891
    12033.700100       0.001939
    12040.952200       0.001939
    12048.187000       0.001844
    12055.458000       0.001938
    12062.713100       0.001938
    12070.004600       0.001985
    12077.310700       0.002079
    12084.595100       0.002174
    12091.891100       0.002456
    12099.226700       0.002737
    12106.541900       0.003034
    12113.868900       0.003347
    12121.207700       0.003674
    12128.555400       0.003734
    12135.913500       0.003810
    12143.283500       0.003885
    12150.662400       0.003944
    12158.053200       0.004081
    12165.453100       0.004016
    12172.861900       0.004028
    12180.256100       0.004025
    12187.687500       0.003929
    12195.129400       0.003925
    12202.555100       0.004014
    12210.018200       0.004010
    12217.463500       0.004007
    12224.950800       0.004004
    12232.415900       0.003724
    12239.894600       0.003812
    12247.412400       0.003717
    12254.908000       0.003622
    12262.418700       0.003528
    12269.940200       0.003525
    12277.469300       0.003248
    12285.010800       0.003155
    12292.564500       0.002971
    12300.127500       0.003058
    12307.701400       0.003146
    12315.258800       0.003143
    12322.852800       0.003230
    12330.460800       0.003407
    12338.049200       0.003493
    12345.677500       0.003667
    12353.318200       0.003665
    12360.937900       0.003838
    12368.599100       0.004012
    12376.243800       0.004007
    12383.897900       0.004002
    12391.561400       0.004263
    12399.266800       0.004345
    12406.952500       0.004339
    12414.652400       0.004422
    12422.360200       0.004417
    12430.082300       0.004585
    12437.812500       0.004318
    12445.555400       0.004399
    12453.307900       0.004393
    12461.073200       0.004301
    12468.820200       0.004121
    12476.606400       0.004203
    12484.405400       0.004111
    12492.184600       0.003934
    12500.006300       0.003844
    12507.808000       0.003583
    12515.650800       0.003493
    12523.475300       0.003233
    12531.344000       0.003060
    12539.189700       0.002887
    12547.048300       0.002884
    12554.918400       0.002797
    12562.799900       0.002542
    12570.726000       0.002540
    12578.627400       0.002538
    12586.543500       0.002535
    12594.469500       0.002532
    12602.408700       0.002780
    12610.329300       0.002861
    12618.290200       0.002941
    12626.264200       0.003102
    12634.250000       0.003181
    12642.217000       0.003260
    12650.224600       0.003338
    12658.211800       0.003498
    12666.242900       0.003493
    12674.256800       0.003489
    12682.311400       0.003485
    12690.347300       0.003482
    12698.427200       0.003477
    12706.485100       0.003472
    12714.556600       0.003708
    12722.638200       0.003784
    12730.733400       0.003939
    12738.838900       0.004013
    12746.958000       0.004246
    12755.089000       0.004239
    12763.228800       0.004392
    12771.383900       0.004465
    12779.549400       0.004616
    12787.728700       0.004686
    12795.918400       0.004836
    12804.085800       0.005140
    12812.301400       0.005444
    12820.527600       0.005591
    12828.733100       0.005737
    12836.983700       0.005883
    12845.213500       0.005872
    12853.455600       0.005862
    12861.743000       0.006082
    12870.009600       0.006224
    12878.288500       0.006594
    12886.611200       0.006887
    12894.913200       0.007331
    12903.229100       0.007545
    12911.557500       0.008135
    12919.898300       0.008270
    12928.249900       0.008855
    12936.615600       0.009288
    12944.992200       0.009944
    12953.383000       0.010446
    12961.749400       0.011543
    12970.165200       0.012412
    12978.592100       0.013648
    12986.996100       0.015177
    12995.448200       0.016774
    13003.913000       0.018657
    13012.356700       0.021196
    13020.846900       0.024237
    13029.314300       0.027850
    13037.797700       0.032545
    13046.324600       0.038603
    13054.832000       0.045944
    13063.350500       0.055283
    13071.881800       0.066898
    13080.460100       0.081422
    13089.017200       0.098620
    13097.589000       0.119554
    13106.171900       0.144055
    13114.767900       0.172675
    13123.375100       0.203247
    13131.964300       0.239167
    13140.597600       0.277635
    13149.243900       0.319051
    13157.903400       0.362262
    13166.541300       0.408610
    13175.230600       0.453827
    13183.929500       0.499690
    13192.606900       0.545284
    13201.332300       0.591243
    13210.036100       0.634504
    13218.788100       0.677100
    13227.516700       0.718134
    13236.260400       0.757000
    13245.017300       0.792875
    13253.822800       0.827732
    13262.603000       0.861076
    13271.400100       0.892510
    13280.209000       0.918750
    13289.033000       0.939408
    13297.868800       0.960726
    13306.718100       0.975336
    13315.579200       0.985043
    13324.453900       0.993642
    13333.342200       0.998977
    13342.212100       0.998101
    13351.127700       1.000000
    13360.055200       0.998127
    13369.000000       0.992281
    13377.921100       0.989887
    13386.891600       0.985083
    13395.840100       0.975715
    13404.836500       0.968325
    13413.812600       0.963098
    13422.836800       0.952808
    13431.840700       0.942088
    13440.856600       0.931927
    13449.886500       0.917168
    13458.966500       0.901731
    13468.024400       0.885709
    13477.094400       0.865874
    13486.180300       0.843735
    13495.278500       0.820781
    13504.390800       0.793324
    13513.517200       0.763750
    13522.659600       0.734494
    13531.812500       0.700454
    13540.944900       0.667577
    13550.126300       0.633841
    13559.323900       0.600676
    13568.533900       0.566073
    13577.723300       0.530765
    13586.962100       0.494729
    13596.176400       0.459394
    13605.444000       0.421799
    13614.689100       0.385871
    13623.983800       0.351488
    13633.257700       0.317535
    13642.583400       0.284207
    13651.882700       0.253233
    13661.198500       0.223697
    13670.530600       0.197062
    13679.871800       0.171469
    13689.270800       0.147927
    13698.643300       0.127374
    13708.030500       0.108152
    13717.430500       0.091199
    13726.847300       0.077010
    13736.280700       0.064629
    13745.687500       0.054106
    13755.148700       0.045562
    13764.623000       0.038297
    13774.112300       0.032242
    13783.616500       0.027393
    13793.095800       0.023118
    13802.630100       0.019789
    13812.141300       0.017092
    13821.702000       0.014651
    13831.243300       0.012899
    13840.834300       0.011338
    13850.405900       0.010150
    13860.027300       0.009090
    13869.627400       0.008341
    13879.240900       0.007717
    13888.908200       0.007401
    13898.552200       0.006902
    13908.211600       0.006467
    13917.886400       0.006094
    13927.574700       0.005722
    13937.278300       0.005350
    13946.997500       0.005041
    13956.732200       0.004915
    13966.482400       0.004849
    13976.248200       0.004784
    13986.027700       0.004539
    13995.783600       0.004414
    14005.594400       0.004230
    14015.420900       0.003986
    14025.263100       0.003802
    14035.079800       0.003680
    14044.953700       0.003557
    14054.799900       0.003376
    14064.705500       0.003254
    14074.583500       0.003073
    14084.517000       0.003012
    14094.428700       0.003009
    14104.354500       0.003008
    14114.334000       0.003007
    14124.291800       0.003005
    14134.267600       0.002945
    14144.253600       0.002766
    14154.299700       0.002705
    14164.320000       0.002645
    14174.354500       0.002644
    14184.407200       0.002643
    14194.474200       0.002642
    14204.559600       0.002582
    14214.659300       0.002581
    14224.732900       0.002463
    14234.865300       0.002403
    14245.012200       0.002344
    14255.175600       0.002402
    14265.314900       0.002342
    14275.513400       0.002342
    14285.724500       0.002341
    14295.911400       0.002283
    14306.155700       0.002282
    14316.373800       0.002223
    14326.651700       0.002165
    14336.903200       0.002106
    14347.214600       0.002106
    14357.499700       0.002047
    14367.801600       0.001990
    14378.159700       0.001989
    14388.495400       0.001989
    14398.846000       0.001931
    14409.215700       0.001873
    14419.598200       0.001873
    14429.997800       0.001816
    14440.414400       0.001816
    14450.848300       0.001816
    14461.301300       0.001758
    14471.769600       0.001758
    14482.250800       0.001815
    14492.753600       0.001758
    14503.271600       0.001815
    14513.805000       0.001815
    14524.315600       0.001872
    14534.885800       0.001872
    14545.469400       0.001872
    14556.030200       0.001815
    14566.648800       0.001871
    14577.242500       0.001814
    14587.896300       0.001758
    14598.525200       0.001758
    14609.214500       0.001758
    14619.878800       0.001757
    14630.556500       0.001757
    14641.299200       0.001814
    14652.012500       0.001814
    14662.743700       0.001814
    14673.492800       0.001814
    14684.305100       0.001814
    14695.087900       0.001757
    14705.891000       0.001757
    14716.710000       0.001757
    14727.547000       0.001701
    14738.402200       0.001701
    14749.273400       0.001813
    14760.162900       0.001813
    14771.070600       0.001925
    14781.952900       0.001925
    14792.895000       0.001925
    14803.855600       0.001869
    14814.834600       0.001869
    14825.785900       0.001813
    14836.799700       0.001869
    14847.790100       0.001925
    14858.841000       0.001869
    14869.910600       0.001869
    14880.952400       0.001869
    14892.012800       0.001813
    14903.136300       0.001813
    14914.232000       0.001813
    14925.391000       0.001813
    14936.526500       0.001813
    14947.678600       0.001813
    14958.847500       0.001869
    14970.082300       0.001869
    14981.286900       0.001981
    14992.512700       0.001981
    15003.757700       0.002037
    15015.019500       0.001981
    15026.298300       0.002037
    15037.598500       0.001925
    15048.918000       0.001869
    15060.254600       0.001813
    15071.610500       0.001813
    15082.935800       0.001757
    15094.330500       0.001757
    15105.742500       0.001813
    15117.174000       0.001813
    15128.579300       0.001757
    15140.045400       0.001757
    15151.533500       0.001814
    15162.997700       0.001814
    15174.520600       0.001814
    15186.019600       0.001814
    15197.584600       0.001870
    15209.120800       0.001814
    15220.677000       0.001814
    15232.301700       0.001871
    15243.893100       0.001814
    15255.509200       0.001814
    15267.191900       0.001814
    15278.841100       0.001815
    15290.515200       0.001758
    15302.207100       0.001815
    15313.919300       0.001815
    15325.654100       0.001815
    15337.399800       0.001758
    15349.170600       0.001758
    15360.961900       0.001758
    15372.773600       0.001758
    15384.603600       0.001815
    15396.454100       0.001815
    15408.322900       0.001815
    15420.212400       0.001871
    15432.075000       0.001871
    15444.003500       0.001814
    15455.955300       0.001814
    15467.925600       0.001814
    15479.866600       0.001758
    15491.878800       0.001701
    15503.864000       0.001757
    15515.911000       0.001813
    15527.935800       0.001813
    15540.027600       0.001870
    15552.092300       0.001870
    15564.226600       0.001813
    15576.331300       0.001757
    15588.454800       0.001813
    15600.602100       0.001869
    15612.817100       0.001869
    15625.002400       0.001981
    15637.214100       0.002036
    15649.442500       0.002036
    15661.690000       0.001924
    15673.964000       0.001980
    15686.257300       0.001924
    15698.567400       0.001868
    15710.901800       0.001813
    15723.258100       0.001813
    15735.633800       0.001812
    15748.029000       0.001757
    15760.446300       0.001757
    15772.885600       0.001757
    15785.297200       0.001757
    15797.778300       0.001701
    15810.281700       0.001701
    15822.809800       0.001701
    15835.307700       0.001701
    15847.873100       0.001757
    15860.413100       0.001812
    15873.026000       0.001812
    15885.605800       0.001812
    15898.261300       0.001812
    15910.886300       0.001757
    15923.587200       0.001701
    15936.257500       0.001701
    15948.948100       0.001701
    15961.712300       0.001701
    15974.446000       0.001701
    15987.207700       0.001701
    15999.987200       0.001756
    16012.787200       0.001812
    16025.664100       0.001812
    16038.510400       0.001867
    16051.377200       0.001923
    16064.269900       0.001867
    16077.183300       0.001867
    16090.117500       0.001867
    16103.077700       0.001923
    16116.058800       0.001923
    16129.008800       0.001923
    16142.037000       0.001923
    16155.086200       0.001978
    16168.159200       0.001867
    16181.253300       0.001812
    16194.318900       0.001923
    16207.458100       0.001867
    16220.621200       0.001812
    16233.755700       0.001867
    16246.966900       0.001923
    16260.146700       0.001812
    16273.403600       0.001812
    16286.629000       0.001812
    16299.931800       0.001757
    16313.203100       0.001757
    16326.557300       0.001868
    16339.877300       0.001923
    16353.219100       0.001868
    16366.585300       0.001923
    16380.032500       0.001868
    16393.445300       0.001812
    16406.882800       0.001757
    16420.345100       0.001868
    16433.829400       0.001812
    16447.395500       0.001812
    16460.929700       0.001757
    16474.486300       0.001757
    16488.067900       0.001701
    16501.674700       0.001757
    16515.303900       0.001757
    16528.901000       0.001813
    16542.583500       0.001813
    16556.283200       0.001813
    16570.011000       0.001757
    16583.764400       0.001813
    16597.482800       0.001813
    16611.284600       0.001869
    16625.109400       0.001869
    16638.962800       0.001869
    16652.781000       0.001869
    16666.680600       0.001813
    16680.547700       0.001757
    16694.499200       0.001757
    16708.418200       0.001701
    16722.419200       0.001701
    16736.384900       0.001701
    16750.438400       0.001757
    16764.456500       0.001757
    16778.501000       0.001813
    16792.631000       0.001757
    16806.722700       0.001757
    16820.843700       0.001757
    16834.988500       0.001814
    16849.219500       0.001870
    16863.417800       0.001870
    16877.640000       0.001870
    16891.889000       0.001870
    16906.165000       0.001814
    16920.465200       0.001757
    16934.795300       0.001757
    16949.146800       0.001757
    16963.522700       0.001701
    16977.925800       0.001701
    16992.359200       0.001758
    17006.817200       0.001758
    17021.302700       0.001701
    17035.749000       0.001701
    17050.292600       0.001758
    17064.852200       0.001758
    17079.445600       0.001758
    17094.002500       0.001872
    17108.645700       0.001872
    17123.317000       0.001872
    17137.954700       0.001758
    17152.679300       0.001758
    17167.370200       0.001701
    17182.151300       0.001758
    17196.892700       0.001759
    17211.727700       0.001873
    17226.531800       0.001873
    17241.352600       0.001873
    17256.273300       0.001816
    17271.151200       0.001816
    17286.063800       0.001759
    17301.065000       0.001759
    17316.026300       0.001759
    17331.019500       0.001816
    17346.038700       0.001759
    17361.090000       0.001759
    17376.164400       0.001759
    17391.334600       0.001759
    17406.464600       0.001759
    17421.624000       0.001759
    17436.816000       0.001876
    17452.031300       0.001876
    17467.279400       0.001876
    17482.490000       0.001876
    17497.791300       0.001876
    17513.122600       0.001818
    17528.483800       0.001877
    17543.872000       0.001877
    17559.290300       0.001877
    17574.673900       0.001877
    17590.146400       0.001818
    17605.655500       0.001760
    17621.120500       0.001760
    17636.687400       0.001760
    17652.278700       0.001760
    17667.838300       0.001819
    17683.487800       0.001819
    17699.102500       0.001819
    17714.817000       0.001760
    17730.490200       0.001760
    17746.260400       0.001701
    17761.995700       0.001701
    17777.762000       0.001701
    17793.619600       0.001701
    17809.445300       0.001761
    17825.299200       0.001821
    17841.181400       0.001821
    17857.165200       0.001881
    17873.110600       0.001881
    17889.084500       0.001821
    17905.090100       0.001761
    17921.127700       0.001822
    17937.197200       0.001762
    17953.292400       0.001762
    17969.422900       0.001701
    17985.579200       0.001701
    18001.771000       0.001640
    18017.992000       0.001640
    18034.242300       0.001640
    18050.528500       0.001762
    18066.844100       0.001701
    18083.189200       0.001701
    18099.570400       0.001701
    18115.909200       0.001701
    18132.353100       0.001701
    18148.826900       0.001825
    18165.330700       0.001825
    18181.798300       0.001887
    18198.365500       0.001949
    18214.969400       0.001887
    18231.530600       0.001825
    18248.198500       0.001825
    18264.823500       0.001763
    18281.552400       0.001764
    18298.248300       0.001764
    18315.041800       0.001764
    18331.799000       0.001764
    18348.590200       0.001764
    18365.483000       0.001764
    18382.339400       0.001764
