11,   11, MVIRI VIS channel from srf_MET6_1998123_1998124_1801-Release_S10EL_10.dat
Number of data points:
750
Wavenumber (cm-1)   Filter response
     8760.403000       0.000000
     8768.084200       0.000000
     8775.778900       0.000000
     8783.487000       0.000001
     8791.208800       0.000004
     8798.944100       0.000008
     8806.693100       0.000015
     8814.455700       0.000025
     8822.232000       0.000038
     8830.022100       0.000056
     8837.825900       0.000079
     8845.643500       0.000107
     8853.475000       0.000142
     8861.320300       0.000184
     8869.179600       0.000233
     8877.052800       0.000291
     8884.940000       0.000357
     8892.841300       0.000434
     8900.756600       0.000521
     8908.686000       0.000619
     8916.629500       0.000728
     8924.587200       0.000851
     8932.559200       0.000986
     8940.545400       0.001136
     8948.545900       0.001301
     8956.560700       0.001481
     8964.589900       0.001678
     8972.633500       0.001891
     8980.691500       0.002123
     8988.764000       0.002373
     8996.851100       0.002642
     9004.952700       0.002931
     9013.068900       0.003242
     9021.199800       0.003573
     9029.345400       0.003928
     9037.505600       0.004305
     9045.680700       0.004706
     9053.870500       0.005132
     9062.075200       0.005584
     9070.294800       0.006061
     9078.529300       0.006565
     9086.778700       0.007097
     9095.043200       0.007657
     9103.322700       0.008247
     9111.617300       0.008866
     9119.927000       0.009515
     9128.251900       0.010196
     9136.592100       0.010908
     9144.947400       0.011653
     9153.318100       0.012431
     9161.704100       0.013244
     9170.105500       0.014090
     9178.522300       0.014972
     9186.954500       0.015890
     9195.402300       0.016844
     9203.865600       0.017836
     9212.344500       0.018865
     9220.839100       0.019932
     9229.349300       0.021038
     9237.875300       0.022184
     9246.417000       0.023369
     9254.974500       0.024595
     9263.547900       0.025863
     9272.137200       0.027172
     9280.742500       0.028522
     9289.363700       0.029916
     9298.000900       0.031352
     9306.654300       0.032833
     9315.323700       0.034356
     9324.009300       0.035925
     9332.711200       0.037538
     9341.429200       0.039197
     9350.163600       0.040901
     9358.914400       0.042650
     9367.681500       0.044447
     9376.465100       0.046290
     9385.265100       0.048179
     9394.081700       0.050117
     9402.914900       0.052101
     9411.764700       0.054133
     9420.631200       0.056214
     9429.514400       0.058343
     9438.414300       0.060520
     9447.331100       0.062746
     9456.264800       0.065021
     9465.215300       0.067345
     9474.182900       0.069718
     9483.167400       0.072140
     9492.169000       0.074612
     9501.187600       0.077133
     9510.223500       0.079704
     9519.276500       0.082324
     9528.346800       0.084995
     9537.434400       0.087715
     9546.539400       0.090484
     9555.661700       0.093304
     9564.801500       0.096173
     9573.958800       0.099092
     9583.133700       0.102060
     9592.326100       0.105078
     9601.536200       0.108146
     9610.764100       0.111262
     9620.009600       0.114428
     9629.273000       0.117643
     9638.554200       0.120906
     9647.853400       0.124218
     9657.170400       0.127579
     9666.505600       0.130988
     9675.858700       0.134445
     9685.230000       0.137950
     9694.619500       0.141502
     9704.027200       0.145101
     9713.453100       0.148748
     9722.897400       0.152441
     9732.360100       0.156180
     9741.841200       0.159966
     9751.340800       0.163796
     9760.859000       0.167673
     9770.395700       0.171594
     9779.951100       0.175559
     9789.525200       0.179569
     9799.118100       0.183622
     9808.729800       0.187718
     9818.360300       0.191857
     9828.009800       0.196038
     9837.678300       0.200261
     9847.365800       0.204526
     9857.072400       0.208831
     9866.798200       0.213176
     9876.543200       0.217561
     9886.307500       0.221986
     9896.091000       0.226449
     9905.894000       0.230950
     9915.716400       0.235489
     9925.558300       0.240064
     9935.419800       0.244676
     9945.300800       0.249324
     9955.201600       0.254006
     9965.122100       0.258723
     9975.062300       0.263474
     9985.022500       0.268258
     9995.002500       0.273075
    10005.002500       0.277923
    10015.022500       0.282803
    10025.062700       0.287713
    10035.122900       0.292653
    10045.203400       0.297622
    10055.304200       0.302620
    10065.425300       0.307646
    10075.566800       0.312698
    10085.728700       0.317776
    10095.911200       0.322881
    10106.114200       0.328010
    10116.337900       0.333163
    10126.582300       0.338339
    10136.847400       0.343538
    10147.133400       0.348759
    10157.440300       0.354000
    10167.768200       0.359262
    10178.117000       0.364544
    10188.487000       0.369844
    10198.878100       0.375163
    10209.290500       0.380498
    10219.724100       0.385849
    10230.179000       0.391217
    10240.655400       0.396599
    10251.153300       0.401995
    10261.672700       0.407404
    10272.213700       0.412826
    10282.776300       0.418259
    10293.360800       0.423704
    10303.967000       0.429158
    10314.595200       0.434621
    10325.245200       0.440092
    10335.917300       0.445572
    10346.611500       0.451058
    10357.327800       0.456550
    10368.066400       0.462047
    10378.827200       0.467548
    10389.610400       0.473054
    10400.416000       0.478561
    10411.244100       0.484071
    10422.094800       0.489582
    10432.968200       0.495093
    10443.864200       0.500604
    10454.783100       0.506113
    10465.724800       0.511621
    10476.689400       0.517125
    10487.677000       0.522626
    10498.687700       0.528123
    10509.721500       0.533614
    10520.778500       0.539099
    10531.858900       0.544578
    10542.962600       0.550049
    10554.089700       0.555512
    10565.240400       0.560966
    10576.414600       0.566409
    10587.612500       0.571843
    10598.834100       0.577265
    10610.079600       0.582675
    10621.348900       0.588072
    10632.642200       0.593455
    10643.959600       0.598824
    10655.301000       0.604179
    10666.666700       0.609517
    10678.056600       0.614839
    10689.470900       0.620144
    10700.909600       0.625431
    10712.372800       0.630699
    10723.860600       0.635948
    10735.373100       0.641177
    10746.910300       0.646386
    10758.472300       0.651573
    10770.059200       0.656738
    10781.671200       0.661880
    10793.308100       0.667000
    10804.970300       0.672095
    10816.657700       0.677166
    10828.370300       0.682212
    10840.108400       0.687231
    10851.871900       0.692225
    10863.661100       0.697191
    10875.475800       0.702130
    10887.316300       0.707040
    10899.182600       0.711922
    10911.074700       0.716774
    10922.992900       0.721597
    10934.937100       0.726388
    10946.907500       0.731149
    10958.904100       0.735878
    10970.927000       0.740575
    10982.976400       0.745240
    10995.052200       0.749871
    11007.154700       0.754468
    11019.283700       0.759032
    11031.439600       0.763560
    11043.622300       0.768054
    11055.832000       0.772512
    11068.068600       0.776934
    11080.332400       0.781319
    11092.623400       0.785668
    11104.941700       0.789979
    11117.287400       0.794252
    11129.660500       0.798486
    11142.061300       0.802683
    11154.489700       0.806840
    11166.945800       0.810958
    11179.429800       0.815036
    11191.941800       0.819074
    11204.481800       0.823071
    11217.049900       0.827028
    11229.646300       0.830943
    11242.270900       0.834816
    11254.924000       0.838648
    11267.605600       0.842438
    11280.315800       0.846185
    11293.054800       0.849890
    11305.822500       0.853551
    11318.619100       0.857169
    11331.444800       0.860744
    11344.299500       0.864274
    11357.183400       0.867761
    11370.096600       0.871204
    11383.039300       0.874601
    11396.011400       0.877955
    11409.013100       0.881263
    11422.044500       0.884526
    11435.105800       0.887744
    11448.196900       0.890916
    11461.318100       0.894043
    11474.469300       0.897124
    11487.650800       0.900159
    11500.862600       0.903148
    11514.104800       0.906091
    11527.377500       0.908988
    11540.680900       0.911838
    11554.015000       0.914642
    11567.380000       0.917399
    11580.775900       0.920110
    11594.202900       0.922774
    11607.661100       0.925391
    11621.150500       0.927961
    11634.671300       0.930484
    11648.223600       0.932961
    11661.807600       0.935391
    11675.423200       0.937774
    11689.070700       0.940110
    11702.750100       0.942399
    11716.461600       0.944641
    11730.205300       0.946836
    11743.981200       0.948985
    11757.789500       0.951087
    11771.630400       0.953142
    11785.503800       0.955150
    11799.410000       0.957112
    11813.349100       0.959027
    11827.321100       0.960896
    11841.326200       0.962719
    11855.364600       0.964496
    11869.436200       0.966226
    11883.541300       0.967911
    11897.680000       0.969549
    11911.852300       0.971142
    11926.058400       0.972690
    11940.298500       0.974192
    11954.572600       0.975649
    11968.880900       0.977061
    11983.223500       0.978428
    11997.600500       0.979750
    12012.012000       0.981028
    12026.458200       0.982262
    12040.939200       0.983452
    12055.455100       0.984598
    12070.006000       0.985700
    12084.592100       0.986759
    12099.213600       0.987774
    12113.870400       0.988747
    12128.562800       0.989678
    12143.290800       0.990565
    12158.054700       0.991411
    12172.854500       0.992215
    12187.690400       0.992978
    12202.562500       0.993699
    12217.471000       0.994379
    12232.415900       0.995019
    12247.397400       0.995618
    12262.415700       0.996178
    12277.470800       0.996697
    12292.563000       0.997178
    12307.692300       0.997619
    12322.858900       0.998021
    12338.062900       0.998386
    12353.304500       0.998712
    12368.583800       0.999001
    12383.900900       0.999252
    12399.256000       0.999467
    12414.649300       0.999645
    12430.080800       0.999786
    12445.550700       0.999892
    12461.059200       0.999963
    12476.606400       0.999999
    12492.192400       1.000000
    12507.817400       0.999967
    12523.481500       0.999900
    12539.185000       0.999800
    12554.927800       0.999667
    12570.710200       0.999501
    12586.532400       0.999304
    12602.394500       0.999074
    12618.296500       0.998814
    12634.238800       0.998522
    12650.221400       0.998201
    12666.244500       0.997849
    12682.308200       0.997468
    12698.412700       0.997058
    12714.558200       0.996619
    12730.744700       0.996153
    12746.972600       0.995658
    12763.241900       0.995137
    12779.552700       0.994589
    12795.905300       0.994014
    12812.299800       0.993414
    12828.736400       0.992788
    12845.215200       0.992138
    12861.736300       0.991464
    12878.300100       0.990765
    12894.906500       0.990043
    12911.555800       0.989299
    12928.248200       0.988531
    12944.983800       0.987742
    12961.762800       0.986932
    12978.585300       0.986101
    12995.451600       0.985249
    13012.361700       0.984377
    13029.316000       0.983486
    13046.314400       0.982576
    13063.357300       0.981647
    13080.444700       0.980701
    13097.576900       0.979737
    13114.754100       0.978756
    13131.976400       0.977759
    13149.243900       0.976745
    13166.556900       0.975717
    13183.915600       0.974673
    13201.320100       0.973615
    13218.770700       0.972543
    13236.267400       0.971457
    13253.810500       0.970359
    13271.400100       0.969248
    13289.036500       0.968125
    13306.719900       0.966991
    13324.450400       0.965845
    13342.228200       0.964689
    13360.053400       0.963524
    13377.926400       0.962349
    13395.847300       0.961164
    13413.816200       0.959972
    13431.833400       0.958771
    13449.899100       0.957563
    13468.013500       0.956348
    13486.176700       0.955126
    13504.388900       0.953898
    13522.650400       0.952665
    13540.961400       0.951426
    13559.322000       0.950183
    13577.732500       0.948936
    13596.193100       0.947685
    13614.703900       0.946430
    13633.265200       0.945173
    13651.877100       0.943914
    13670.540000       0.942653
    13689.253900       0.941390
    13708.019200       0.940127
    13726.836000       0.938863
    13745.704500       0.937599
    13764.624900       0.936336
    13783.597500       0.935073
    13802.622500       0.933812
    13821.700100       0.932552
    13840.830400       0.931295
    13860.013900       0.930040
    13879.250500       0.928788
    13898.540700       0.927539
    13917.884500       0.926294
    13937.282200       0.925054
    13956.734100       0.923818
    13976.240400       0.922587
    13995.801300       0.921361
    14015.417000       0.920142
    14035.087700       0.918928
    14054.813800       0.917721
    14074.595400       0.916521
    14094.432700       0.915328
    14114.326000       0.914143
    14134.275600       0.912966
    14154.281700       0.911797
    14174.344400       0.910637
    14194.464200       0.909486
    14214.641100       0.908344
    14234.875400       0.907212
    14255.167500       0.906090
    14275.517500       0.904978
    14295.925700       0.903877
    14316.392300       0.902787
    14336.917600       0.901708
    14357.501800       0.900640
    14378.145200       0.899585
    14398.848100       0.898541
    14419.610700       0.897510
    14440.433200       0.896492
    14461.316000       0.895486
    14482.259200       0.894493
    14503.263200       0.893514
    14524.328200       0.892548
    14545.454500       0.891596
    14566.642400       0.890659
    14587.892000       0.889735
    14609.203800       0.888826
    14630.577900       0.887931
    14652.014700       0.887052
    14673.514300       0.886187
    14695.077100       0.885337
    14716.703500       0.884503
    14738.393500       0.883684
    14760.147600       0.882881
    14781.966000       0.882094
    14803.849000       0.881323
    14825.796900       0.880568
    14847.809900       0.879828
    14869.888500       0.879106
    14892.032800       0.878399
    14914.243100       0.877709
    14936.519800       0.877036
    14958.863100       0.876379
    14981.273400       0.875739
    15003.750900       0.875116
    15026.296000       0.874509
    15048.909000       0.873919
    15071.590100       0.873346
    15094.339600       0.872790
    15117.158000       0.872251
    15140.045400       0.871729
    15163.002300       0.871224
    15186.028900       0.870736
    15209.125500       0.870264
    15232.292500       0.869809
    15255.530100       0.869372
    15278.838800       0.868950
    15302.218800       0.868546
    15325.670500       0.868158
    15349.194200       0.867787
    15372.790200       0.867432
    15396.458800       0.867093
    15420.200500       0.866771
    15444.015400       0.866465
    15467.904100       0.866175
    15491.866800       0.865900
    15515.903800       0.865642
    15540.015500       0.865399
    15564.202300       0.865171
    15588.464500       0.864959
    15612.802500       0.864761
    15637.216600       0.864579
    15661.707100       0.864411
    15686.274500       0.864257
    15710.919100       0.864118
    15735.641200       0.863993
    15760.441300       0.863881
    15785.319700       0.863783
    15810.276700       0.863699
    15835.312700       0.863627
    15860.428200       0.863568
    15885.623500       0.863521
    15910.899000       0.863486
    15936.255000       0.863463
    15961.691900       0.863452
    15987.210200       0.863452
    16012.810200       0.863463
    16038.492400       0.863484
    16064.257000       0.863515
    16090.104600       0.863556
    16116.035500       0.863606
    16142.050000       0.863665
    16168.148700       0.863733
    16194.332000       0.863809
    16220.600200       0.863893
    16246.953700       0.863984
    16273.393000       0.864083
    16299.918500       0.864187
    16326.530600       0.864298
    16353.229800       0.864414
    16380.016400       0.864536
    16406.890900       0.864662
    16433.853700       0.864792
    16460.905300       0.864926
    16488.046200       0.865063
    16515.276600       0.865203
    16542.597200       0.865345
    16570.008300       0.865488
    16597.510400       0.865633
    16625.103900       0.865778
    16652.789300       0.865923
    16680.567100       0.866067
    16708.437800       0.866211
    16736.401700       0.866352
    16764.459300       0.866492
    16792.611300       0.866628
    16820.857900       0.866761
    16849.199700       0.866890
    16877.637100       0.867014
    16906.170800       0.867133
    16934.801000       0.867245
    16963.528400       0.867351
    16992.353400       0.867450
    17021.276600       0.867541
    17050.298400       0.867624
    17079.419300       0.867697
    17108.639900       0.867760
    17137.960600       0.867812
    17167.382000       0.867854
    17196.904600       0.867883
    17226.528900       0.867899
    17256.255400       0.867903
    17286.084700       0.867892
    17316.017300       0.867866
    17346.053800       0.867825
    17376.194600       0.867767
    17406.440400       0.867693
    17436.791600       0.867600
    17467.248900       0.867490
    17497.812800       0.867360
    17528.483800       0.867210
    17559.262500       0.867039
    17590.149500       0.866847
    17621.145400       0.866632
    17652.250700       0.866395
    17683.466000       0.866134
    17714.791900       0.865848
    17746.228900       0.865537
    17777.777800       0.865199
    17809.439000       0.864835
    17841.213200       0.864443
    17873.101000       0.864022
    17905.103000       0.863573
    17937.219700       0.863093
    17969.451900       0.862582
    18001.800200       0.862039
    18034.265100       0.861464
    18066.847300       0.860856
    18099.547500       0.860214
    18132.366300       0.859537
    18165.304300       0.858824
    18198.362100       0.858074
    18231.540600       0.857287
    18264.840200       0.856462
    18298.261700       0.855599
    18331.805700       0.854695
    18365.472900       0.853751
    18399.264000       0.852766
    18433.179700       0.851738
    18467.220700       0.850668
    18501.387600       0.849554
    18535.681200       0.848395
    18570.102100       0.847192
    18604.651200       0.845942
    18639.329000       0.844645
    18674.136300       0.843301
    18709.073900       0.841908
    18744.142500       0.840466
    18779.342700       0.838974
    18814.675400       0.837432
    18850.141400       0.835838
    18885.741300       0.834192
    18921.475900       0.832493
    18957.346000       0.830740
    18993.352300       0.828933
    19029.495700       0.827071
    19065.776900       0.825153
    19102.196800       0.823179
    19138.756000       0.821147
    19175.455400       0.819057
    19212.295900       0.816909
    19249.278200       0.814702
    19286.403100       0.812434
    19323.671500       0.810106
    19361.084200       0.807717
    19398.642100       0.805266
    19436.346000       0.802753
    19474.196700       0.800176
    19512.195100       0.797536
    19550.342100       0.794832
    19588.638600       0.792063
    19627.085400       0.789229
    19665.683400       0.786328
    19704.433500       0.783362
    19743.336600       0.780328
    19782.393700       0.777227
    19821.605600       0.774058
    19860.973200       0.770821
    19900.497500       0.767515
    19940.179500       0.764140
    19980.020000       0.760695
    20020.020000       0.757180
    20060.180500       0.753595
    20100.502500       0.749939
    20140.986900       0.746212
    20181.634700       0.742414
    20222.446900       0.738544
    20263.424500       0.734601
    20304.568500       0.730587
    20345.880000       0.726501
    20387.359800       0.722341
    20429.009200       0.718109
    20470.829100       0.713804
    20512.820500       0.709426
    20554.984600       0.704975
    20597.322300       0.700451
    20639.834900       0.695853
    20682.523300       0.691182
    20725.388600       0.686437
    20768.432000       0.681619
    20811.654500       0.676728
    20855.057400       0.671764
    20898.641600       0.666727
    20942.408400       0.661617
    20986.358900       0.656434
    21030.494200       0.651179
    21074.815600       0.645851
    21119.324200       0.640452
    21164.021200       0.634980
    21208.907700       0.629438
    21253.985100       0.623825
    21299.254500       0.618141
    21344.717200       0.612387
    21390.374300       0.606564
    21436.227200       0.600671
    21482.277100       0.594710
    21528.525300       0.588682
    21574.973000       0.582586
    21621.621600       0.576424
    21668.472400       0.570195
    21715.526600       0.563903
    21762.785600       0.557545
    21810.250800       0.551125
    21857.923500       0.544642
    21905.805000       0.538098
    21953.896800       0.531493
    22002.200200       0.524829
    22050.716600       0.518107
    22099.447500       0.511328
    22148.394200       0.504492
    22197.558300       0.497603
    22246.941000       0.490659
    22296.544000       0.483664
    22346.368700       0.476618
    22396.416600       0.469523
    22446.689100       0.462380
    22497.187900       0.455191
    22547.914300       0.447957
    22598.870100       0.440681
    22650.056600       0.433364
    22701.475600       0.426007
    22753.128600       0.418614
    22805.017100       0.411184
    22857.142900       0.403721
    22909.507400       0.396227
    22962.112500       0.388703
    23014.959700       0.381152
    23068.050700       0.373576
    23121.387300       0.365978
    23174.971000       0.358359
    23228.803700       0.350723
    23282.887100       0.343071
    23337.222900       0.335406
    23391.812900       0.327732
    23446.658900       0.320049
    23501.762600       0.312363
    23557.126000       0.304674
    23612.750900       0.296987
    23668.639100       0.289305
    23724.792400       0.281629
    23781.212800       0.273964
    23837.902300       0.266313
    23894.862600       0.258679
    23952.095800       0.251066
    24009.603800       0.243476
    24067.388700       0.235915
    24125.452400       0.228384
    24183.796900       0.220889
    24242.424200       0.213433
    24301.336600       0.206020
    24360.535900       0.198653
    24420.024400       0.191338
    24479.804200       0.184078
    24539.877300       0.176878
    24600.246000       0.169741
    24660.912500       0.162673
    24721.878900       0.155678
    24783.147500       0.148761
    24844.720500       0.141926
    24906.600200       0.135179
    24968.789000       0.128524
    25031.289100       0.121967
    25094.102900       0.115512
    25157.232700       0.109165
    25220.681000       0.102932
    25284.450100       0.096818
    25348.542500       0.090828
    25412.960600       0.084969
    25477.707000       0.079246
