27,   27, MVIRI VIS channel from srf_MET2_1985168_1985169_1801-Release_S10EL_10.dat
Number of data points:
730
Wavenumber (cm-1)   Filter response
     8916.629500       0.000000
     8924.587200       0.000000
     8932.559200       0.000002
     8940.545400       0.000011
     8948.545900       0.000032
     8956.560700       0.000069
     8964.589900       0.000126
     8972.633500       0.000207
     8980.691500       0.000317
     8988.764000       0.000459
     8996.851100       0.000637
     9004.952700       0.000854
     9013.068900       0.001114
     9021.199800       0.001420
     9029.345400       0.001774
     9037.505600       0.002181
     9045.680700       0.002642
     9053.870500       0.003160
     9062.075200       0.003738
     9070.294800       0.004378
     9078.529300       0.005082
     9086.778700       0.005852
     9095.043200       0.006691
     9103.322700       0.007599
     9111.617300       0.008580
     9119.927000       0.009634
     9128.251900       0.010763
     9136.592100       0.011968
     9144.947400       0.013251
     9153.318100       0.014613
     9161.704100       0.016055
     9170.105500       0.017578
     9178.522300       0.019183
     9186.954500       0.020870
     9195.402300       0.022641
     9203.865600       0.024496
     9212.344500       0.026436
     9220.839100       0.028461
     9229.349300       0.030571
     9237.875300       0.032767
     9246.417000       0.035049
     9254.974500       0.037417
     9263.547900       0.039872
     9272.137200       0.042413
     9280.742500       0.045040
     9289.363700       0.047754
     9298.000900       0.050553
     9306.654300       0.053439
     9315.323700       0.056409
     9324.009300       0.059465
     9332.711200       0.062606
     9341.429200       0.065831
     9350.163600       0.069139
     9358.914400       0.072531
     9367.681500       0.076006
     9376.465100       0.079562
     9385.265100       0.083200
     9394.081700       0.086918
     9402.914900       0.090716
     9411.764700       0.094593
     9420.631200       0.098549
     9429.514400       0.102581
     9438.414300       0.106690
     9447.331100       0.110873
     9456.264800       0.115132
     9465.215300       0.119463
     9474.182900       0.123867
     9483.167400       0.128342
     9492.169000       0.132886
     9501.187600       0.137500
     9510.223500       0.142182
     9519.276500       0.146930
     9528.346800       0.151743
     9537.434400       0.156621
     9546.539400       0.161561
     9555.661700       0.166564
     9564.801500       0.171626
     9573.958800       0.176747
     9583.133700       0.181927
     9592.326100       0.187162
     9601.536200       0.192453
     9610.764100       0.197797
     9620.009600       0.203194
     9629.273000       0.208642
     9638.554200       0.214140
     9647.853400       0.219686
     9657.170400       0.225278
     9666.505600       0.230916
     9675.858700       0.236598
     9685.230000       0.242323
     9694.619500       0.248089
     9704.027200       0.253894
     9713.453100       0.259738
     9722.897400       0.265620
     9732.360100       0.271536
     9741.841200       0.277487
     9751.340800       0.283470
     9760.859000       0.289485
     9770.395700       0.295530
     9779.951100       0.301602
     9789.525200       0.307702
     9799.118100       0.313828
     9808.729800       0.319978
     9818.360300       0.326150
     9828.009800       0.332344
     9837.678300       0.338558
     9847.365800       0.344791
     9857.072400       0.351041
     9866.798200       0.357307
     9876.543200       0.363587
     9886.307500       0.369881
     9896.091000       0.376187
     9905.894000       0.382502
     9915.716400       0.388828
     9925.558300       0.395160
     9935.419800       0.401500
     9945.300800       0.407845
     9955.201600       0.414194
     9965.122100       0.420546
     9975.062300       0.426898
     9985.022500       0.433252
     9995.002500       0.439604
    10005.002500       0.445954
    10015.022500       0.452301
    10025.062700       0.458643
    10035.122900       0.464979
    10045.203400       0.471308
    10055.304200       0.477629
    10065.425300       0.483941
    10075.566800       0.490242
    10085.728700       0.496532
    10095.911200       0.502809
    10106.114200       0.509072
    10116.337900       0.515321
    10126.582300       0.521554
    10136.847400       0.527770
    10147.133400       0.533968
    10157.440300       0.540147
    10167.768200       0.546307
    10178.117000       0.552445
    10188.487000       0.558562
    10198.878100       0.564656
    10209.290500       0.570726
    10219.724100       0.576772
    10230.179000       0.582792
    10240.655400       0.588786
    10251.153300       0.594753
    10261.672700       0.600691
    10272.213700       0.606601
    10282.776300       0.612481
    10293.360800       0.618331
    10303.967000       0.624149
    10314.595200       0.629935
    10325.245200       0.635689
    10335.917300       0.641409
    10346.611500       0.647095
    10357.327800       0.652746
    10368.066400       0.658361
    10378.827200       0.663940
    10389.610400       0.669483
    10400.416000       0.674987
    10411.244100       0.680454
    10422.094800       0.685881
    10432.968200       0.691270
    10443.864200       0.696619
    10454.783100       0.701927
    10465.724800       0.707194
    10476.689400       0.712420
    10487.677000       0.717604
    10498.687700       0.722745
    10509.721500       0.727844
    10520.778500       0.732899
    10531.858900       0.737910
    10542.962600       0.742877
    10554.089700       0.747799
    10565.240400       0.752677
    10576.414600       0.757509
    10587.612500       0.762295
    10598.834100       0.767035
    10610.079600       0.771728
    10621.348900       0.776375
    10632.642200       0.780974
    10643.959600       0.785527
    10655.301000       0.790031
    10666.666700       0.794488
    10678.056600       0.798897
    10689.470900       0.803257
    10700.909600       0.807568
    10712.372800       0.811831
    10723.860600       0.816045
    10735.373100       0.820209
    10746.910300       0.824324
    10758.472300       0.828390
    10770.059200       0.832405
    10781.671200       0.836371
    10793.308100       0.840288
    10804.970300       0.844154
    10816.657700       0.847970
    10828.370300       0.851735
    10840.108400       0.855451
    10851.871900       0.859116
    10863.661100       0.862731
    10875.475800       0.866295
    10887.316300       0.869809
    10899.182600       0.873273
    10911.074700       0.876686
    10922.992900       0.880048
    10934.937100       0.883360
    10946.907500       0.886622
    10958.904100       0.889833
    10970.927000       0.892994
    10982.976400       0.896105
    10995.052200       0.899166
    11007.154700       0.902176
    11019.283700       0.905136
    11031.439600       0.908047
    11043.622300       0.910907
    11055.832000       0.913718
    11068.068600       0.916479
    11080.332400       0.919190
    11092.623400       0.921853
    11104.941700       0.924466
    11117.287400       0.927029
    11129.660500       0.929544
    11142.061300       0.932011
    11154.489700       0.934428
    11166.945800       0.936797
    11179.429800       0.939118
    11191.941800       0.941391
    11204.481800       0.943616
    11217.049900       0.945794
    11229.646300       0.947924
    11242.270900       0.950006
    11254.924000       0.952042
    11267.605600       0.954031
    11280.315800       0.955974
    11293.054800       0.957870
    11305.822500       0.959720
    11318.619100       0.961524
    11331.444800       0.963283
    11344.299500       0.964997
    11357.183400       0.966665
    11370.096600       0.968289
    11383.039300       0.969868
    11396.011400       0.971403
    11409.013100       0.972894
    11422.044500       0.974341
    11435.105800       0.975745
    11448.196900       0.977106
    11461.318100       0.978424
    11474.469300       0.979700
    11487.650800       0.980933
    11500.862600       0.982124
    11514.104800       0.983274
    11527.377500       0.984383
    11540.680900       0.985450
    11554.015000       0.986477
    11567.380000       0.987463
    11580.775900       0.988410
    11594.202900       0.989316
    11607.661100       0.990183
    11621.150500       0.991011
    11634.671300       0.991801
    11648.223600       0.992551
    11661.807600       0.993264
    11675.423200       0.993939
    11689.070700       0.994576
    11702.750100       0.995176
    11716.461600       0.995739
    11730.205300       0.996265
    11743.981200       0.996756
    11757.789500       0.997210
    11771.630400       0.997629
    11785.503800       0.998013
    11799.410000       0.998362
    11813.349100       0.998676
    11827.321100       0.998956
    11841.326200       0.999202
    11855.364600       0.999414
    11869.436200       0.999593
    11883.541300       0.999739
    11897.680000       0.999852
    11911.852300       0.999934
    11926.058400       0.999983
    11940.298500       1.000000
    11954.572600       0.999986
    11968.880900       0.999941
    11983.223500       0.999865
    11997.600500       0.999759
    12012.012000       0.999623
    12026.458200       0.999457
    12040.939200       0.999261
    12055.455100       0.999037
    12070.006000       0.998783
    12084.592100       0.998501
    12099.213600       0.998190
    12113.870400       0.997852
    12128.562800       0.997486
    12143.290800       0.997093
    12158.054700       0.996672
    12172.854500       0.996225
    12187.690400       0.995751
    12202.562500       0.995252
    12217.471000       0.994726
    12232.415900       0.994174
    12247.397400       0.993598
    12262.415700       0.992996
    12277.470800       0.992369
    12292.563000       0.991718
    12307.692300       0.991043
    12322.858900       0.990344
    12338.062900       0.989621
    12353.304500       0.988874
    12368.583800       0.988105
    12383.900900       0.987312
    12399.256000       0.986497
    12414.649300       0.985660
    12430.080800       0.984800
    12445.550700       0.983918
    12461.059200       0.983015
    12476.606400       0.982091
    12492.192400       0.981145
    12507.817400       0.980178
    12523.481500       0.979190
    12539.185000       0.978182
    12554.927800       0.977154
    12570.710200       0.976106
    12586.532400       0.975038
    12602.394500       0.973950
    12618.296500       0.972843
    12634.238800       0.971717
    12650.221400       0.970572
    12666.244500       0.969408
    12682.308200       0.968225
    12698.412700       0.967024
    12714.558200       0.965805
    12730.744700       0.964568
    12746.972600       0.963314
    12763.241900       0.962042
    12779.552700       0.960752
    12795.905300       0.959445
    12812.299800       0.958121
    12828.736400       0.956780
    12845.215200       0.955423
    12861.736300       0.954049
    12878.300100       0.952659
    12894.906500       0.951252
    12911.555800       0.949830
    12928.248200       0.948392
    12944.983800       0.946938
    12961.762800       0.945468
    12978.585300       0.943983
    12995.451600       0.942483
    13012.361700       0.940968
    13029.316000       0.939438
    13046.314400       0.937893
    13063.357300       0.936333
    13080.444700       0.934759
    13097.576900       0.933170
    13114.754100       0.931568
    13131.976400       0.929951
    13149.243900       0.928320
    13166.556900       0.926675
    13183.915600       0.925016
    13201.320100       0.923344
    13218.770700       0.921658
    13236.267400       0.919958
    13253.810500       0.918246
    13271.400100       0.916520
    13289.036500       0.914781
    13306.719900       0.913029
    13324.450400       0.911264
    13342.228200       0.909487
    13360.053400       0.907697
    13377.926400       0.905894
    13395.847300       0.904078
    13413.816200       0.902251
    13431.833400       0.900411
    13449.899100       0.898558
    13468.013500       0.896694
    13486.176700       0.894817
    13504.388900       0.892929
    13522.650400       0.891029
    13540.961400       0.889117
    13559.322000       0.887193
    13577.732500       0.885258
    13596.193100       0.883311
    13614.703900       0.881352
    13633.265200       0.879382
    13651.877100       0.877401
    13670.540000       0.875409
    13689.253900       0.873405
    13708.019200       0.871390
    13726.836000       0.869365
    13745.704500       0.867328
    13764.624900       0.865280
    13783.597500       0.863222
    13802.622500       0.861153
    13821.700100       0.859073
    13840.830400       0.856982
    13860.013900       0.854881
    13879.250500       0.852769
    13898.540700       0.850647
    13917.884500       0.848514
    13937.282200       0.846371
    13956.734100       0.844218
    13976.240400       0.842055
    13995.801300       0.839881
    14015.417000       0.837698
    14035.087700       0.835504
    14054.813800       0.833300
    14074.595400       0.831087
    14094.432700       0.828864
    14114.326000       0.826630
    14134.275600       0.824387
    14154.281700       0.822135
    14174.344400       0.819873
    14194.464200       0.817601
    14214.641100       0.815319
    14234.875400       0.813029
    14255.167500       0.810729
    14275.517500       0.808419
    14295.925700       0.806101
    14316.392300       0.803773
    14336.917600       0.801435
    14357.501800       0.799089
    14378.145200       0.796734
    14398.848100       0.794370
    14419.610700       0.791997
    14440.433200       0.789615
    14461.316000       0.787225
    14482.259200       0.784826
    14503.263200       0.782418
    14524.328200       0.780001
    14545.454500       0.777576
    14566.642400       0.775143
    14587.892000       0.772701
    14609.203800       0.770251
    14630.577900       0.767793
    14652.014700       0.765326
    14673.514300       0.762852
    14695.077100       0.760369
    14716.703500       0.757879
    14738.393500       0.755380
    14760.147600       0.752874
    14781.966000       0.750361
    14803.849000       0.747839
    14825.796900       0.745310
    14847.809900       0.742774
    14869.888500       0.740230
    14892.032800       0.737679
    14914.243100       0.735120
    14936.519800       0.732555
    14958.863100       0.729983
    14981.273400       0.727403
    15003.750900       0.724817
    15026.296000       0.722224
    15048.909000       0.719624
    15071.590100       0.717017
    15094.339600       0.714405
    15117.158000       0.711785
    15140.045400       0.709160
    15163.002300       0.706528
    15186.028900       0.703890
    15209.125500       0.701246
    15232.292500       0.698596
    15255.530100       0.695941
    15278.838800       0.693279
    15302.218800       0.690613
    15325.670500       0.687940
    15349.194200       0.685262
    15372.790200       0.682579
    15396.458800       0.679891
    15420.200500       0.677198
    15444.015400       0.674500
    15467.904100       0.671797
    15491.866800       0.669089
    15515.903800       0.666377
    15540.015500       0.663661
    15564.202300       0.660940
    15588.464500       0.658215
    15612.802500       0.655485
    15637.216600       0.652752
    15661.707100       0.650015
    15686.274500       0.647274
    15710.919100       0.644530
    15735.641200       0.641782
    15760.441300       0.639031
    15785.319700       0.636277
    15810.276700       0.633520
    15835.312700       0.630759
    15860.428200       0.627996
    15885.623500       0.625231
    15910.899000       0.622463
    15936.255000       0.619692
    15961.691900       0.616919
    15987.210200       0.614144
    16012.810200       0.611367
    16038.492400       0.608589
    16064.257000       0.605809
    16090.104600       0.603027
    16116.035500       0.600243
    16142.050000       0.597459
    16168.148700       0.594673
    16194.332000       0.591887
    16220.600200       0.589099
    16246.953700       0.586311
    16273.393000       0.583523
    16299.918500       0.580734
    16326.530600       0.577945
    16353.229800       0.575156
    16380.016400       0.572367
    16406.890900       0.569578
    16433.853700       0.566789
    16460.905300       0.564001
    16488.046200       0.561214
    16515.276600       0.558427
    16542.597200       0.555642
    16570.008300       0.552858
    16597.510400       0.550075
    16625.103900       0.547293
    16652.789300       0.544513
    16680.567100       0.541734
    16708.437800       0.538958
    16736.401700       0.536183
    16764.459300       0.533411
    16792.611300       0.530640
    16820.857900       0.527873
    16849.199700       0.525108
    16877.637100       0.522345
    16906.170800       0.519586
    16934.801000       0.516829
    16963.528400       0.514076
    16992.353400       0.511326
    17021.276600       0.508580
    17050.298400       0.505837
    17079.419300       0.503097
    17108.639900       0.500362
    17137.960600       0.497631
    17167.382000       0.494903
    17196.904600       0.492180
    17226.528900       0.489462
    17256.255400       0.486748
    17286.084700       0.484038
    17316.017300       0.481333
    17346.053800       0.478633
    17376.194600       0.475939
    17406.440400       0.473249
    17436.791600       0.470565
    17467.248900       0.467886
    17497.812800       0.465212
    17528.483800       0.462544
    17559.262500       0.459882
    17590.149500       0.457225
    17621.145400       0.454575
    17652.250700       0.451930
    17683.466000       0.449292
    17714.791900       0.446660
    17746.228900       0.444034
    17777.777800       0.441415
    17809.439000       0.438802
    17841.213200       0.436195
    17873.101000       0.433596
    17905.103000       0.431003
    17937.219700       0.428417
    17969.451900       0.425838
    18001.800200       0.423265
    18034.265100       0.420700
    18066.847300       0.418142
    18099.547500       0.415592
    18132.366300       0.413048
    18165.304300       0.410512
    18198.362100       0.407983
    18231.540600       0.405461
    18264.840200       0.402947
    18298.261700       0.400441
    18331.805700       0.397941
    18365.472900       0.395450
    18399.264000       0.392966
    18433.179700       0.390490
    18467.220700       0.388021
    18501.387600       0.385560
    18535.681200       0.383106
    18570.102100       0.380661
    18604.651200       0.378223
    18639.329000       0.375792
    18674.136300       0.373370
    18709.073900       0.370955
    18744.142500       0.368547
    18779.342700       0.366148
    18814.675400       0.363756
    18850.141400       0.361371
    18885.741300       0.358994
    18921.475900       0.356625
    18957.346000       0.354263
    18993.352300       0.351909
    19029.495700       0.349562
    19065.776900       0.347223
    19102.196800       0.344891
    19138.756000       0.342566
    19175.455400       0.340248
    19212.295900       0.337938
    19249.278200       0.335634
    19286.403100       0.333338
    19323.671500       0.331048
    19361.084200       0.328766
    19398.642100       0.326490
    19436.346000       0.324221
    19474.196700       0.321958
    19512.195100       0.319702
    19550.342100       0.317452
    19588.638600       0.315208
    19627.085400       0.312970
    19665.683400       0.310738
    19704.433500       0.308513
    19743.336600       0.306293
    19782.393700       0.304078
    19821.605600       0.301869
    19860.973200       0.299665
    19900.497500       0.297467
    19940.179500       0.295273
    19980.020000       0.293084
    20020.020000       0.290900
    20060.180500       0.288721
    20100.502500       0.286545
    20140.986900       0.284374
    20181.634700       0.282207
    20222.446900       0.280044
    20263.424500       0.277885
    20304.568500       0.275729
    20345.880000       0.273576
    20387.359800       0.271426
    20429.009200       0.269279
    20470.829100       0.267135
    20512.820500       0.264993
    20554.984600       0.262853
    20597.322300       0.260716
    20639.834900       0.258580
    20682.523300       0.256446
    20725.388600       0.254314
    20768.432000       0.252182
    20811.654500       0.250052
    20855.057400       0.247922
    20898.641600       0.245792
    20942.408400       0.243663
    20986.358900       0.241534
    21030.494200       0.239405
    21074.815600       0.237275
    21119.324200       0.235145
    21164.021200       0.233013
    21208.907700       0.230881
    21253.985100       0.228747
    21299.254500       0.226611
    21344.717200       0.224474
    21390.374300       0.222334
    21436.227200       0.220192
    21482.277100       0.218048
    21528.525300       0.215900
    21574.973000       0.213750
    21621.621600       0.211596
    21668.472400       0.209438
    21715.526600       0.207277
    21762.785600       0.205111
    21810.250800       0.202942
    21857.923500       0.200767
    21905.805000       0.198588
    21953.896800       0.196404
    22002.200200       0.194215
    22050.716600       0.192020
    22099.447500       0.189820
    22148.394200       0.187614
    22197.558300       0.185401
    22246.941000       0.183182
    22296.544000       0.180957
    22346.368700       0.178725
    22396.416600       0.176486
    22446.689100       0.174240
    22497.187900       0.171987
    22547.914300       0.169726
    22598.870100       0.167458
    22650.056600       0.165182
    22701.475600       0.162897
    22753.128600       0.160605
    22805.017100       0.158304
    22857.142900       0.155995
    22909.507400       0.153678
    22962.112500       0.151351
    23014.959700       0.149016
    23068.050700       0.146672
    23121.387300       0.144320
    23174.971000       0.141958
    23228.803700       0.139587
    23282.887100       0.137206
    23337.222900       0.134817
    23391.812900       0.132418
    23446.658900       0.130010
    23501.762600       0.127593
    23557.126000       0.125167
    23612.750900       0.122731
    23668.639100       0.120286
    23724.792400       0.117832
    23781.212800       0.115369
    23837.902300       0.112897
    23894.862600       0.110416
    23952.095800       0.107926
    24009.603800       0.105427
    24067.388700       0.102920
    24125.452400       0.100405
    24183.796900       0.097881
    24242.424200       0.095350
    24301.336600       0.092811
    24360.535900       0.090264
    24420.024400       0.087710
    24479.804200       0.085149
    24539.877300       0.082582
    24600.246000       0.080008
    24660.912500       0.077428
    24721.878900       0.074843
    24783.147500       0.072253
    24844.720500       0.069658
    24906.600200       0.067059
    24968.789000       0.064456
    25031.289100       0.061850
    25094.102900       0.059242
    25157.232700       0.056631
    25220.681000       0.054019
    25284.450100       0.051406
    25348.542500       0.048793
    25412.960600       0.046180
    25477.707000       0.043569
