 1    ,01, goes_14_imager_01.flt
Number of data points:
338
Wavenumber (cm-1)   Filter response
    12048.192800       0.000000
    12062.726200       0.000002
    12077.294700       0.000001
    12091.898400       0.000000
    12106.537500       0.000001
    12121.212100       0.000036
    12135.922300       0.000077
    12150.668300       0.000089
    12165.450100       0.000082
    12180.268000       0.000080
    12195.122000       0.000082
    12210.012200       0.000078
    12224.938900       0.000082
    12239.902100       0.000120
    12254.902000       0.000162
    12269.938700       0.000174
    12285.012300       0.000167
    12300.123000       0.000165
    12315.270900       0.000167
    12330.456200       0.000166
    12345.679000       0.000168
    12360.939400       0.000178
    12376.237600       0.000170
    12391.573700       0.000119
    12406.947900       0.000085
    12422.360200       0.000119
    12437.810900       0.000173
    12453.300100       0.000186
    12468.827900       0.000175
    12484.394500       0.000170
    12500.000000       0.000174
    12515.644600       0.000178
    12531.328300       0.000175
    12547.051400       0.000167
    12562.814100       0.000174
    12578.616400       0.000216
    12594.458400       0.000265
    12610.340500       0.000287
    12626.262600       0.000268
    12642.225000       0.000213
    12658.227800       0.000180
    12674.271200       0.000218
    12690.355300       0.000272
    12706.480300       0.000286
    12722.646300       0.000276
    12738.853500       0.000273
    12755.102000       0.000274
    12771.392100       0.000265
    12787.723800       0.000270
    12804.097300       0.000312
    12820.512800       0.000364
    12836.970500       0.000376
    12853.470400       0.000373
    12870.012900       0.000411
    12886.597900       0.000462
    12903.225800       0.000481
    12919.896600       0.000472
    12936.610600       0.000464
    12953.367900       0.000474
    12970.168600       0.000512
    12987.013000       0.000568
    13003.901200       0.000628
    13020.833300       0.000667
    13037.809600       0.000660
    13054.830300       0.000648
    13071.895400       0.000716
    13089.005200       0.000841
    13106.159900       0.000912
    13123.359600       0.000949
    13140.604500       0.001022
    13157.894700       0.001130
    13175.230600       0.001238
    13192.612100       0.001327
    13210.039600       0.001389
    13227.513200       0.001458
    13245.033100       0.001579
    13262.599500       0.001733
    13280.212500       0.001887
    13297.872300       0.002030
    13315.579200       0.002161
    13333.333300       0.002318
    13351.134800       0.002548
    13368.984000       0.002807
    13386.880900       0.003029
    13404.825700       0.003268
    13422.818800       0.003618
    13440.860200       0.004042
    13458.950200       0.004456
    13477.088900       0.004909
    13495.276700       0.005455
    13513.513500       0.006054
    13531.799700       0.006681
    13550.135500       0.007452
    13568.521000       0.008503
    13586.956500       0.009721
    13605.442200       0.010863
    13623.978200       0.012020
    13642.564800       0.013407
    13661.202200       0.015222
    13679.890600       0.017620
    13698.630100       0.020470
    13717.421100       0.023505
    13736.263700       0.026929
    13755.158200       0.031062
    13774.104700       0.036023
    13793.103400       0.041902
    13812.154700       0.048749
    13831.258600       0.056624
    13850.415500       0.065993
    13869.625500       0.077489
    13888.888900       0.091632
    13908.205800       0.108820
    13927.576600       0.129427
    13947.001400       0.153859
    13966.480400       0.181237
    13986.014000       0.210871
    14005.602200       0.247238
    14025.245400       0.294026
    14044.943800       0.344626
    14064.697600       0.392464
    14084.507000       0.443956
    14104.372400       0.506148
    14124.293800       0.570648
    14144.271600       0.627382
    14164.305900       0.679178
    14184.397200       0.731006
    14204.545500       0.778896
    14224.751100       0.818178
    14245.014200       0.849229
    14265.335200       0.873352
    14285.714300       0.891618
    14306.151600       0.905239
    14326.647600       0.916615
    14347.202300       0.928660
    14367.816100       0.938919
    14388.489200       0.943076
    14409.221900       0.943137
    14430.014400       0.943654
    14450.867100       0.945986
    14471.780000       0.949701
    14492.753600       0.952746
    14513.788100       0.953871
    14534.883700       0.955183
    14556.040800       0.958176
    14577.259500       0.960450
    14598.540100       0.958915
    14619.883000       0.956865
    14641.288400       0.958965
    14662.756600       0.962754
    14684.287800       0.963567
    14705.882400       0.962712
    14727.540500       0.963196
    14749.262500       0.964689
    14771.048700       0.965936
    14792.899400       0.967201
    14814.814800       0.968911
    14836.795300       0.970136
    14858.841000       0.970161
    14880.952400       0.970330
    14903.129700       0.972234
    14925.373100       0.975187
    14947.683100       0.977611
    14970.059900       0.980096
    14992.503700       0.984116
    15015.015000       0.988434
    15037.594000       0.990635
    15060.241000       0.990330
    15082.956300       0.988660
    15105.740200       0.987659
    15128.593000       0.988730
    15151.515200       0.991016
    15174.506800       0.993387
    15197.568400       0.996043
    15220.700200       0.998831
    15243.902400       1.000000
    15267.175600       0.997863
    15290.519900       0.994263
    15313.935700       0.991703
    15337.423300       0.989407
    15360.983100       0.985797
    15384.615400       0.980582
    15408.320500       0.974824
    15432.098800       0.969841
    15455.950500       0.967053
    15479.876200       0.964513
    15503.876000       0.958806
    15527.950300       0.952116
    15552.099500       0.947806
    15576.324000       0.945872
    15600.624000       0.944728
    15625.000000       0.942800
    15649.452300       0.938648
    15673.981200       0.934403
    15698.587100       0.932902
    15723.270400       0.932735
    15748.031500       0.930889
    15772.870700       0.928381
    15797.788300       0.927529
    15822.784800       0.927824
    15847.860500       0.927891
    15873.015900       0.927679
    15898.251200       0.927772
    15923.566900       0.927764
    15948.963300       0.927061
    15974.440900       0.926624
    16000.000000       0.927353
    16025.641000       0.927566
    16051.364400       0.925316
    16077.170400       0.922443
    16103.059600       0.921926
    16129.032300       0.922072
    16155.088900       0.920141
    16181.229800       0.917871
    16207.455400       0.917695
    16233.766200       0.917726
    16260.162600       0.914864
    16286.645000       0.910766
    16313.213700       0.908575
    16339.869300       0.907640
    16366.612100       0.906289
    16393.442600       0.904177
    16420.361200       0.901484
    16447.368400       0.898803
    16474.464600       0.896588
    16501.650200       0.894201
    16528.925600       0.890843
    16556.291400       0.886498
    16583.747900       0.881553
    16611.295700       0.876545
    16638.935100       0.872250
    16666.666700       0.868506
    16694.490800       0.864972
    16722.408000       0.861394
    16750.418800       0.858142
    16778.523500       0.854906
    16806.722700       0.851068
    16835.016800       0.847037
    16863.406400       0.844242
    16891.891900       0.842070
    16920.473800       0.839225
    16949.152500       0.835308
    16977.928700       0.830381
    17006.802700       0.826041
    17035.775100       0.823806
    17064.846400       0.822225
    17094.017100       0.819105
    17123.287700       0.815132
    17152.658700       0.811970
    17182.130600       0.809372
    17211.704000       0.806257
    17241.379300       0.801834
    17271.157200       0.796095
    17301.038100       0.791095
    17331.022500       0.788426
    17361.111100       0.785506
    17391.304300       0.779282
    17421.602800       0.771458
    17452.007000       0.765189
    17482.517500       0.759684
    17513.134900       0.753369
    17543.859600       0.746810
    17574.692400       0.741281
    17605.633800       0.736053
    17636.684300       0.729927
    17667.844500       0.723305
    17699.115000       0.717274
    17730.496500       0.711213
    17761.989300       0.703887
    17793.594300       0.696875
    17825.311900       0.692332
    17857.142900       0.688703
    17889.087700       0.683918
    17921.147000       0.678471
    17953.321400       0.673673
    17985.611500       0.669324
    18018.018000       0.664588
    18050.541500       0.659516
    18083.182600       0.654515
    18115.942000       0.650324
    18148.820300       0.647653
    18181.818200       0.645546
    18214.936200       0.642562
    18248.175200       0.637849
    18281.535600       0.631838
    18315.018300       0.625677
    18348.623900       0.619222
    18382.352900       0.612475
    18416.206300       0.605612
    18450.184500       0.597177
    18484.288400       0.585356
    18518.518500       0.571293
    18552.875700       0.557281
    18587.360600       0.543638
    18621.973900       0.530033
    18656.716400       0.516397
    18691.588800       0.502772
    18726.591800       0.488643
    18761.726100       0.473533
    18796.992500       0.457535
    18832.391700       0.440922
    18867.924500       0.423423
    18903.591700       0.404549
    18939.393900       0.384351
    18975.332100       0.362741
    19011.406800       0.339411
    19047.619000       0.313885
    19083.969500       0.287009
    19120.458900       0.260019
    19157.088100       0.233614
    19193.858000       0.208037
    19230.769200       0.181500
    19267.822700       0.152151
    19305.019300       0.123133
    19342.359800       0.099913
    19379.845000       0.081092
    19417.475700       0.063766
    19455.252900       0.048006
    19493.177400       0.035610
    19531.250000       0.026196
    19569.471600       0.018639
    19607.843100       0.012740
    19646.365400       0.008514
    19685.039400       0.005588
    19723.865900       0.003497
    19762.845800       0.002028
    19801.980200       0.001155
    19841.269800       0.000696
    19880.715700       0.000411
    19920.318700       0.000218
    19960.079800       0.000103
    20000.000000       0.000043
    20040.080200       0.000013
    20080.321300       0.000001
    20120.724300       0.000000
    20161.290300       0.000000
    20202.020200       0.000000
    20242.915000       0.000000
    20283.975700       0.000000
