11, goes_14_sounder_11.flt  GOESO_sdr_operational_srf_rev_F
Number of data points:
1514
Wavenumber (cm-1)   Filter response
     1342.200000       0.000000
     1342.300000       0.000000
     1342.400000       0.000512
     1342.500000       0.000776
     1342.600000       0.000785
     1342.700000       0.001048
     1342.800000       0.001058
     1342.900000       0.001068
     1343.000000       0.001076
     1343.100000       0.001084
     1343.200000       0.001092
     1343.300000       0.001098
     1343.400000       0.001103
     1343.500000       0.001107
     1343.600000       0.001109
     1343.700000       0.001111
     1343.800000       0.001111
     1343.900000       0.001110
     1344.000000       0.001108
     1344.100000       0.001106
     1344.200000       0.001102
     1344.300000       0.001098
     1344.400000       0.001093
     1344.500000       0.001087
     1344.600000       0.001080
     1344.700000       0.001073
     1344.800000       0.001066
     1344.900000       0.001058
     1345.000000       0.001050
     1345.100000       0.001042
     1345.200000       0.001033
     1345.300000       0.001025
     1345.400000       0.001016
     1345.500000       0.001008
     1345.600000       0.000999
     1345.700000       0.000991
     1345.800000       0.000983
     1345.900000       0.000976
     1346.000000       0.000968
     1346.100000       0.000962
     1346.200000       0.000956
     1346.300000       0.000950
     1346.400000       0.000945
     1346.500000       0.000941
     1346.600000       0.000937
     1346.700000       0.000935
     1346.800000       0.000933
     1346.900000       0.000932
     1347.000000       0.000933
     1347.100000       0.000936
     1347.200000       0.000939
     1347.300000       0.000943
     1347.400000       0.000948
     1347.500000       0.000953
     1347.600000       0.000957
     1347.700000       0.000963
     1347.800000       0.000971
     1347.900000       0.000984
     1348.000000       0.001004
     1348.100000       0.001030
     1348.200000       0.001060
     1348.300000       0.001090
     1348.400000       0.001115
     1348.500000       0.001131
     1348.600000       0.001136
     1348.700000       0.001129
     1348.800000       0.001114
     1348.900000       0.001091
     1349.000000       0.001064
     1349.100000       0.001034
     1349.200000       0.001002
     1349.300000       0.000972
     1349.400000       0.000945
     1349.500000       0.000923
     1349.600000       0.000908
     1349.700000       0.000899
     1349.800000       0.000896
     1349.900000       0.000899
     1350.000000       0.000906
     1350.100000       0.000917
     1350.200000       0.000931
     1350.300000       0.000948
     1350.400000       0.000967
     1350.500000       0.000987
     1350.600000       0.001008
     1350.700000       0.001029
     1350.800000       0.001050
     1350.900000       0.001070
     1351.000000       0.001089
     1351.100000       0.001106
     1351.200000       0.001121
     1351.300000       0.001133
     1351.400000       0.001143
     1351.500000       0.001149
     1351.600000       0.001151
     1351.700000       0.001150
     1351.800000       0.001147
     1351.900000       0.001144
     1352.000000       0.001141
     1352.100000       0.001140
     1352.200000       0.001140
     1352.300000       0.001145
     1352.400000       0.001154
     1352.500000       0.001169
     1352.600000       0.001190
     1352.700000       0.001218
     1352.800000       0.001251
     1352.900000       0.001289
     1353.000000       0.001331
     1353.100000       0.001376
     1353.200000       0.001424
     1353.300000       0.001473
     1353.400000       0.001524
     1353.500000       0.001575
     1353.600000       0.001627
     1353.700000       0.001677
     1353.800000       0.001727
     1353.900000       0.001775
     1354.000000       0.001822
     1354.100000       0.001867
     1354.200000       0.001910
     1354.300000       0.001951
     1354.400000       0.001988
     1354.500000       0.002023
     1354.600000       0.002054
     1354.700000       0.002083
     1354.800000       0.002108
     1354.900000       0.002132
     1355.000000       0.002155
     1355.100000       0.002176
     1355.200000       0.002197
     1355.300000       0.002218
     1355.400000       0.002239
     1355.500000       0.002261
     1355.600000       0.002285
     1355.700000       0.002310
     1355.800000       0.002337
     1355.900000       0.002365
     1356.000000       0.002395
     1356.100000       0.002427
     1356.200000       0.002459
     1356.300000       0.002493
     1356.400000       0.002529
     1356.500000       0.002566
     1356.600000       0.002604
     1356.700000       0.002643
     1356.800000       0.002683
     1356.900000       0.002721
     1357.000000       0.002759
     1357.100000       0.002794
     1357.200000       0.002827
     1357.300000       0.002857
     1357.400000       0.002883
     1357.500000       0.002904
     1357.600000       0.002920
     1357.700000       0.002932
     1357.800000       0.002941
     1357.900000       0.002947
     1358.000000       0.002952
     1358.100000       0.002958
     1358.200000       0.002964
     1358.300000       0.002973
     1358.400000       0.002984
     1358.500000       0.003000
     1358.600000       0.003020
     1358.700000       0.003046
     1358.800000       0.003076
     1358.900000       0.003111
     1359.000000       0.003151
     1359.100000       0.003195
     1359.200000       0.003243
     1359.300000       0.003295
     1359.400000       0.003351
     1359.500000       0.003410
     1359.600000       0.003473
     1359.700000       0.003539
     1359.800000       0.003607
     1359.900000       0.003677
     1360.000000       0.003748
     1360.100000       0.003819
     1360.200000       0.003891
     1360.300000       0.003962
     1360.400000       0.004032
     1360.500000       0.004101
     1360.600000       0.004168
     1360.700000       0.004233
     1360.800000       0.004297
     1360.900000       0.004360
     1361.000000       0.004422
     1361.100000       0.004485
     1361.200000       0.004547
     1361.300000       0.004611
     1361.400000       0.004675
     1361.500000       0.004741
     1361.600000       0.004809
     1361.700000       0.004879
     1361.800000       0.004952
     1361.900000       0.005030
     1362.000000       0.005112
     1362.100000       0.005199
     1362.200000       0.005292
     1362.300000       0.005392
     1362.400000       0.005499
     1362.500000       0.005615
     1362.600000       0.005738
     1362.700000       0.005867
     1362.800000       0.006001
     1362.900000       0.006138
     1363.000000       0.006274
     1363.100000       0.006409
     1363.200000       0.006540
     1363.300000       0.006665
     1363.400000       0.006781
     1363.500000       0.006887
     1363.600000       0.006982
     1363.700000       0.007070
     1363.800000       0.007157
     1363.900000       0.007249
     1364.000000       0.007352
     1364.100000       0.007470
     1364.200000       0.007611
     1364.300000       0.007780
     1364.400000       0.007983
     1364.500000       0.008225
     1364.600000       0.008509
     1364.700000       0.008820
     1364.800000       0.009137
     1364.900000       0.009440
     1365.000000       0.009712
     1365.100000       0.009931
     1365.200000       0.010079
     1365.300000       0.010135
     1365.400000       0.010080
     1365.500000       0.009895
     1365.600000       0.009564
     1365.700000       0.009434
     1365.800000       0.009726
     1365.900000       0.009992
     1366.000000       0.010304
     1366.100000       0.010635
     1366.200000       0.010983
     1366.300000       0.011341
     1366.400000       0.011700
     1366.500000       0.012057
     1366.600000       0.012405
     1366.700000       0.012742
     1366.800000       0.013063
     1366.900000       0.013368
     1367.000000       0.013658
     1367.100000       0.013934
     1367.200000       0.014200
     1367.300000       0.014458
     1367.400000       0.014714
     1367.500000       0.014974
     1367.600000       0.015242
     1367.700000       0.015527
     1367.800000       0.015832
     1367.900000       0.016162
     1368.000000       0.016522
     1368.100000       0.016914
     1368.200000       0.017341
     1368.300000       0.017802
     1368.400000       0.018296
     1368.500000       0.018821
     1368.600000       0.019373
     1368.700000       0.019945
     1368.800000       0.020533
     1368.900000       0.021131
     1369.000000       0.021728
     1369.100000       0.022319
     1369.200000       0.022897
     1369.300000       0.023455
     1369.400000       0.023989
     1369.500000       0.024494
     1369.600000       0.024966
     1369.700000       0.025405
     1369.800000       0.025812
     1369.900000       0.026190
     1370.000000       0.026542
     1370.100000       0.026876
     1370.200000       0.027200
     1370.300000       0.027520
     1370.400000       0.027848
     1370.500000       0.028194
     1370.600000       0.028567
     1370.700000       0.028980
     1370.800000       0.029440
     1370.900000       0.029957
     1371.000000       0.030539
     1371.100000       0.031191
     1371.200000       0.031916
     1371.300000       0.032718
     1371.400000       0.033595
     1371.500000       0.034544
     1371.600000       0.035562
     1371.700000       0.036640
     1371.800000       0.037772
     1371.900000       0.038949
     1372.000000       0.040160
     1372.100000       0.041396
     1372.200000       0.042642
     1372.300000       0.043891
     1372.400000       0.045134
     1372.500000       0.046362
     1372.600000       0.047569
     1372.700000       0.048748
     1372.800000       0.049899
     1372.900000       0.051020
     1373.000000       0.052113
     1373.100000       0.053185
     1373.200000       0.054240
     1373.300000       0.055286
     1373.400000       0.056331
     1373.500000       0.057388
     1373.600000       0.058469
     1373.700000       0.059586
     1373.800000       0.060749
     1373.900000       0.061974
     1374.000000       0.063269
     1374.100000       0.064644
     1374.200000       0.066109
     1374.300000       0.067669
     1374.400000       0.069325
     1374.500000       0.071080
     1374.600000       0.072937
     1374.700000       0.074889
     1374.800000       0.076934
     1374.900000       0.079067
     1375.000000       0.081276
     1375.100000       0.083554
     1375.200000       0.085891
     1375.300000       0.088280
     1375.400000       0.090712
     1375.500000       0.093172
     1375.600000       0.095656
     1375.700000       0.098160
     1375.800000       0.100679
     1375.900000       0.103209
     1376.000000       0.105754
     1376.100000       0.108310
     1376.200000       0.110882
     1376.300000       0.113477
     1376.400000       0.116107
     1376.500000       0.118780
     1376.600000       0.121502
     1376.700000       0.124291
     1376.800000       0.127159
     1376.900000       0.130111
     1377.000000       0.133164
     1377.100000       0.136331
     1377.200000       0.139613
     1377.300000       0.143017
     1377.400000       0.146548
     1377.500000       0.150217
     1377.600000       0.154017
     1377.700000       0.157939
     1377.800000       0.161990
     1377.900000       0.166159
     1378.000000       0.170434
     1378.100000       0.174806
     1378.200000       0.179272
     1378.300000       0.183807
     1378.400000       0.188406
     1378.500000       0.193063
     1378.600000       0.197765
     1378.700000       0.202501
     1378.800000       0.207256
     1378.900000       0.212036
     1379.000000       0.216834
     1379.100000       0.221647
     1379.200000       0.226482
     1379.300000       0.231351
     1379.400000       0.236251
     1379.500000       0.241195
     1379.600000       0.246202
     1379.700000       0.251284
     1379.800000       0.256454
     1379.900000       0.261718
     1380.000000       0.267106
     1380.100000       0.272626
     1380.200000       0.278289
     1380.300000       0.284118
     1380.400000       0.290117
     1380.500000       0.296283
     1380.600000       0.302628
     1380.700000       0.309160
     1380.800000       0.315873
     1380.900000       0.322764
     1381.000000       0.329813
     1381.100000       0.337030
     1381.200000       0.344389
     1381.300000       0.351876
     1381.400000       0.359491
     1381.500000       0.367209
     1381.600000       0.375000
     1381.700000       0.382855
     1381.800000       0.390768
     1381.900000       0.398715
     1382.000000       0.406684
     1382.100000       0.414662
     1382.200000       0.422644
     1382.300000       0.430620
     1382.400000       0.438591
     1382.500000       0.446568
     1382.600000       0.454530
     1382.700000       0.462487
     1382.800000       0.470438
     1382.900000       0.478407
     1383.000000       0.486389
     1383.100000       0.494384
     1383.200000       0.502420
     1383.300000       0.510497
     1383.400000       0.518618
     1383.500000       0.526794
     1383.600000       0.535040
     1383.700000       0.543335
     1383.800000       0.551690
     1383.900000       0.560113
     1384.000000       0.568599
     1384.100000       0.577139
     1384.200000       0.585709
     1384.300000       0.594316
     1384.400000       0.602937
     1384.500000       0.611549
     1384.600000       0.620140
     1384.700000       0.628706
     1384.800000       0.637206
     1384.900000       0.645632
     1385.000000       0.653978
     1385.100000       0.662227
     1385.200000       0.670364
     1385.300000       0.678365
     1385.400000       0.686241
     1385.500000       0.693970
     1385.600000       0.701546
     1385.700000       0.708980
     1385.800000       0.716258
     1385.900000       0.723366
     1386.000000       0.730306
     1386.100000       0.737089
     1386.200000       0.743718
     1386.300000       0.750204
     1386.400000       0.756547
     1386.500000       0.762773
     1386.600000       0.768880
     1386.700000       0.774872
     1386.800000       0.780767
     1386.900000       0.786562
     1387.000000       0.792246
     1387.100000       0.797824
     1387.200000       0.803303
     1387.300000       0.808674
     1387.400000       0.813934
     1387.500000       0.819071
     1387.600000       0.824095
     1387.700000       0.828994
     1387.800000       0.833764
     1387.900000       0.838418
     1388.000000       0.842952
     1388.100000       0.847356
     1388.200000       0.851633
     1388.300000       0.855782
     1388.400000       0.859798
     1388.500000       0.863680
     1388.600000       0.867440
     1388.700000       0.871069
     1388.800000       0.874580
     1388.900000       0.877980
     1389.000000       0.881283
     1389.100000       0.884499
     1389.200000       0.887628
     1389.300000       0.890684
     1389.400000       0.893681
     1389.500000       0.896622
     1389.600000       0.899512
     1389.700000       0.902361
     1389.800000       0.905160
     1389.900000       0.907914
     1390.000000       0.910614
     1390.100000       0.913264
     1390.200000       0.915856
     1390.300000       0.918382
     1390.400000       0.920848
     1390.500000       0.923241
     1390.600000       0.925554
     1390.700000       0.927780
     1390.800000       0.929916
     1390.900000       0.931950
     1391.000000       0.933879
     1391.100000       0.935697
     1391.200000       0.937404
     1391.300000       0.939000
     1391.400000       0.940482
     1391.500000       0.941862
     1391.600000       0.943141
     1391.700000       0.944329
     1391.800000       0.945438
     1391.900000       0.946485
     1392.000000       0.947477
     1392.100000       0.948432
     1392.200000       0.949362
     1392.300000       0.950277
     1392.400000       0.951188
     1392.500000       0.952102
     1392.600000       0.953029
     1392.700000       0.953975
     1392.800000       0.954945
     1392.900000       0.955942
     1393.000000       0.956966
     1393.100000       0.958017
     1393.200000       0.959086
     1393.300000       0.960171
     1393.400000       0.961262
     1393.500000       0.962347
     1393.600000       0.963413
     1393.700000       0.964449
     1393.800000       0.965441
     1393.900000       0.966374
     1394.000000       0.967236
     1394.100000       0.968013
     1394.200000       0.968697
     1394.300000       0.969283
     1394.400000       0.969770
     1394.500000       0.970155
     1394.600000       0.970436
     1394.700000       0.970613
     1394.800000       0.970690
     1394.900000       0.970668
     1395.000000       0.970558
     1395.100000       0.970372
     1395.200000       0.970123
     1395.300000       0.969826
     1395.400000       0.969494
     1395.500000       0.969134
     1395.600000       0.968757
     1395.700000       0.968373
     1395.800000       0.967992
     1395.900000       0.967626
     1396.000000       0.967284
     1396.100000       0.966975
     1396.200000       0.966701
     1396.300000       0.966463
     1396.400000       0.966263
     1396.500000       0.966097
     1396.600000       0.965963
     1396.700000       0.965860
     1396.800000       0.965784
     1396.900000       0.965729
     1397.000000       0.965691
     1397.100000       0.965665
     1397.200000       0.965648
     1397.300000       0.965637
     1397.400000       0.965626
     1397.500000       0.965614
     1397.600000       0.965596
     1397.700000       0.965574
     1397.800000       0.965545
     1397.900000       0.965510
     1398.000000       0.965470
     1398.100000       0.965422
     1398.200000       0.965371
     1398.300000       0.965316
     1398.400000       0.965259
     1398.500000       0.965202
     1398.600000       0.965155
     1398.700000       0.965120
     1398.800000       0.965104
     1398.900000       0.965109
     1399.000000       0.965128
     1399.100000       0.965159
     1399.200000       0.965200
     1399.300000       0.965245
     1399.400000       0.965291
     1399.500000       0.965336
     1399.600000       0.965373
     1399.700000       0.965399
     1399.800000       0.965409
     1399.900000       0.965400
     1400.000000       0.965367
     1400.100000       0.965305
     1400.200000       0.965211
     1400.300000       0.965082
     1400.400000       0.964913
     1400.500000       0.964705
     1400.600000       0.964455
     1400.700000       0.964169
     1400.800000       0.963845
     1400.900000       0.963486
     1401.000000       0.963095
     1401.100000       0.962675
     1401.200000       0.962234
     1401.300000       0.961777
     1401.400000       0.961318
     1401.500000       0.960869
     1401.600000       0.960434
     1401.700000       0.960021
     1401.800000       0.959630
     1401.900000       0.959268
     1402.000000       0.958932
     1402.100000       0.958630
     1402.200000       0.958364
     1402.300000       0.958137
     1402.400000       0.957952
     1402.500000       0.957807
     1402.600000       0.957698
     1402.700000       0.957625
     1402.800000       0.957585
     1402.900000       0.957573
     1403.000000       0.957585
     1403.100000       0.957616
     1403.200000       0.957659
     1403.300000       0.957706
     1403.400000       0.957747
     1403.500000       0.957777
     1403.600000       0.957793
     1403.700000       0.957794
     1403.800000       0.957782
     1403.900000       0.957757
     1404.000000       0.957719
     1404.100000       0.957664
     1404.200000       0.957590
     1404.300000       0.957495
     1404.400000       0.957384
     1404.500000       0.957257
     1404.600000       0.957118
     1404.700000       0.956973
     1404.800000       0.956823
     1404.900000       0.956674
     1405.000000       0.956531
     1405.100000       0.956398
     1405.200000       0.956275
     1405.300000       0.956163
     1405.400000       0.956065
     1405.500000       0.955981
     1405.600000       0.955916
     1405.700000       0.955874
     1405.800000       0.955859
     1405.900000       0.955871
     1406.000000       0.955905
     1406.100000       0.955958
     1406.200000       0.956026
     1406.300000       0.956108
     1406.400000       0.956203
     1406.500000       0.956309
     1406.600000       0.956424
     1406.700000       0.956551
     1406.800000       0.956685
     1406.900000       0.956830
     1407.000000       0.956986
     1407.100000       0.957152
     1407.200000       0.957327
     1407.300000       0.957510
     1407.400000       0.957702
     1407.500000       0.957907
     1407.600000       0.958132
     1407.700000       0.958386
     1407.800000       0.958673
     1407.900000       0.958996
     1408.000000       0.959354
     1408.100000       0.959748
     1408.200000       0.960177
     1408.300000       0.960639
     1408.400000       0.961135
     1408.500000       0.961661
     1408.600000       0.962218
     1408.700000       0.962797
     1408.800000       0.963393
     1408.900000       0.963997
     1409.000000       0.964607
     1409.100000       0.965217
     1409.200000       0.965830
     1409.300000       0.966442
     1409.400000       0.967048
     1409.500000       0.967644
     1409.600000       0.968223
     1409.700000       0.968778
     1409.800000       0.969305
     1409.900000       0.969804
     1410.000000       0.970271
     1410.100000       0.970707
     1410.200000       0.971116
     1410.300000       0.971500
     1410.400000       0.971865
     1410.500000       0.972216
     1410.600000       0.972556
     1410.700000       0.972889
     1410.800000       0.973217
     1410.900000       0.973541
     1411.000000       0.973871
     1411.100000       0.974212
     1411.200000       0.974571
     1411.300000       0.974957
     1411.400000       0.975369
     1411.500000       0.975809
     1411.600000       0.976276
     1411.700000       0.976769
     1411.800000       0.977289
     1411.900000       0.977830
     1412.000000       0.978393
     1412.100000       0.978975
     1412.200000       0.979571
     1412.300000       0.980182
     1412.400000       0.980801
     1412.500000       0.981429
     1412.600000       0.982055
     1412.700000       0.982673
     1412.800000       0.983280
     1412.900000       0.983868
     1413.000000       0.984438
     1413.100000       0.984991
     1413.200000       0.985529
     1413.300000       0.986051
     1413.400000       0.986556
     1413.500000       0.987044
     1413.600000       0.987515
     1413.700000       0.987970
     1413.800000       0.988414
     1413.900000       0.988852
     1414.000000       0.989287
     1414.100000       0.989719
     1414.200000       0.990148
     1414.300000       0.990572
     1414.400000       0.990992
     1414.500000       0.991404
     1414.600000       0.991810
     1414.700000       0.992209
     1414.800000       0.992596
     1414.900000       0.992967
     1415.000000       0.993314
     1415.100000       0.993631
     1415.200000       0.993908
     1415.300000       0.994145
     1415.400000       0.994340
     1415.500000       0.994493
     1415.600000       0.994604
     1415.700000       0.994668
     1415.800000       0.994684
     1415.900000       0.994650
     1416.000000       0.994566
     1416.100000       0.994435
     1416.200000       0.994259
     1416.300000       0.994043
     1416.400000       0.993794
     1416.500000       0.993523
     1416.600000       0.993243
     1416.700000       0.992967
     1416.800000       0.992704
     1416.900000       0.992461
     1417.000000       0.992247
     1417.100000       0.992067
     1417.200000       0.991925
     1417.300000       0.991825
     1417.400000       0.991770
     1417.500000       0.991761
     1417.600000       0.991798
     1417.700000       0.991887
     1417.800000       0.992029
     1417.900000       0.992226
     1418.000000       0.992473
     1418.100000       0.992763
     1418.200000       0.993085
     1418.300000       0.993426
     1418.400000       0.993776
     1418.500000       0.994126
     1418.600000       0.994467
     1418.700000       0.994791
     1418.800000       0.995087
     1418.900000       0.995349
     1419.000000       0.995565
     1419.100000       0.995730
     1419.200000       0.995844
     1419.300000       0.995910
     1419.400000       0.995931
     1419.500000       0.995913
     1419.600000       0.995858
     1419.700000       0.995767
     1419.800000       0.995646
     1419.900000       0.995499
     1420.000000       0.995331
     1420.100000       0.995149
     1420.200000       0.994958
     1420.300000       0.994765
     1420.400000       0.994580
     1420.500000       0.994411
     1420.600000       0.994270
     1420.700000       0.994160
     1420.800000       0.994084
     1420.900000       0.994042
     1421.000000       0.994036
     1421.100000       0.994060
     1421.200000       0.994113
     1421.300000       0.994192
     1421.400000       0.994291
     1421.500000       0.994407
     1421.600000       0.994538
     1421.700000       0.994681
     1421.800000       0.994834
     1421.900000       0.994992
     1422.000000       0.995143
     1422.100000       0.995279
     1422.200000       0.995397
     1422.300000       0.995490
     1422.400000       0.995550
     1422.500000       0.995573
     1422.600000       0.995557
     1422.700000       0.995501
     1422.800000       0.995408
     1422.900000       0.995281
     1423.000000       0.995127
     1423.100000       0.994944
     1423.200000       0.994734
     1423.300000       0.994499
     1423.400000       0.994242
     1423.500000       0.993969
     1423.600000       0.993686
     1423.700000       0.993403
     1423.800000       0.993122
     1423.900000       0.992853
     1424.000000       0.992594
     1424.100000       0.992350
     1424.200000       0.992124
     1424.300000       0.991919
     1424.400000       0.991736
     1424.500000       0.991583
     1424.600000       0.991460
     1424.700000       0.991364
     1424.800000       0.991293
     1424.900000       0.991243
     1425.000000       0.991209
     1425.100000       0.991190
     1425.200000       0.991181
     1425.300000       0.991177
     1425.400000       0.991176
     1425.500000       0.991177
     1425.600000       0.991183
     1425.700000       0.991192
     1425.800000       0.991201
     1425.900000       0.991206
     1426.000000       0.991198
     1426.100000       0.991175
     1426.200000       0.991131
     1426.300000       0.991064
     1426.400000       0.990970
     1426.500000       0.990846
     1426.600000       0.990693
     1426.700000       0.990513
     1426.800000       0.990307
     1426.900000       0.990079
     1427.000000       0.989826
     1427.100000       0.989543
     1427.200000       0.989230
     1427.300000       0.988888
     1427.400000       0.988517
     1427.500000       0.988122
     1427.600000       0.987704
     1427.700000       0.987268
     1427.800000       0.986814
     1427.900000       0.986344
     1428.000000       0.985856
     1428.100000       0.985356
     1428.200000       0.984849
     1428.300000       0.984345
     1428.400000       0.983854
     1428.500000       0.983381
     1428.600000       0.982928
     1428.700000       0.982495
     1428.800000       0.982083
     1428.900000       0.981695
     1429.000000       0.981334
     1429.100000       0.980999
     1429.200000       0.980694
     1429.300000       0.980416
     1429.400000       0.980163
     1429.500000       0.979929
     1429.600000       0.979711
     1429.700000       0.979506
     1429.800000       0.979317
     1429.900000       0.979144
     1430.000000       0.978989
     1430.100000       0.978851
     1430.200000       0.978721
     1430.300000       0.978591
     1430.400000       0.978456
     1430.500000       0.978316
     1430.600000       0.978168
     1430.700000       0.978016
     1430.800000       0.977859
     1430.900000       0.977700
     1431.000000       0.977539
     1431.100000       0.977379
     1431.200000       0.977223
     1431.300000       0.977078
     1431.400000       0.976955
     1431.500000       0.976863
     1431.600000       0.976809
     1431.700000       0.976797
     1431.800000       0.976826
     1431.900000       0.976896
     1432.000000       0.977006
     1432.100000       0.977157
     1432.200000       0.977349
     1432.300000       0.977580
     1432.400000       0.977849
     1432.500000       0.978143
     1432.600000       0.978459
     1432.700000       0.978782
     1432.800000       0.979107
     1432.900000       0.979427
     1433.000000       0.979739
     1433.100000       0.980039
     1433.200000       0.980319
     1433.300000       0.980570
     1433.400000       0.980788
     1433.500000       0.980967
     1433.600000       0.981105
     1433.700000       0.981204
     1433.800000       0.981271
     1433.900000       0.981311
     1434.000000       0.981331
     1434.100000       0.981342
     1434.200000       0.981351
     1434.300000       0.981367
     1434.400000       0.981398
     1434.500000       0.981453
     1434.600000       0.981535
     1434.700000       0.981654
     1434.800000       0.981820
     1434.900000       0.982043
     1435.000000       0.982332
     1435.100000       0.982692
     1435.200000       0.983123
     1435.300000       0.983623
     1435.400000       0.984183
     1435.500000       0.984799
     1435.600000       0.985463
     1435.700000       0.986163
     1435.800000       0.986893
     1435.900000       0.987643
     1436.000000       0.988398
     1436.100000       0.989151
     1436.200000       0.989888
     1436.300000       0.990598
     1436.400000       0.991271
     1436.500000       0.991896
     1436.600000       0.992465
     1436.700000       0.992975
     1436.800000       0.993427
     1436.900000       0.993826
     1437.000000       0.994178
     1437.100000       0.994488
     1437.200000       0.994761
     1437.300000       0.995000
     1437.400000       0.995214
     1437.500000       0.995411
     1437.600000       0.995600
     1437.700000       0.995791
     1437.800000       0.995992
     1437.900000       0.996209
     1438.000000       0.996447
     1438.100000       0.996708
     1438.200000       0.996994
     1438.300000       0.997302
     1438.400000       0.997628
     1438.500000       0.997966
     1438.600000       0.998308
     1438.700000       0.998645
     1438.800000       0.998969
     1438.900000       0.999270
     1439.000000       0.999535
     1439.100000       0.999752
     1439.200000       0.999909
     1439.300000       0.999996
     1439.400000       1.000000
     1439.500000       0.999920
     1439.600000       0.999755
     1439.700000       0.999508
     1439.800000       0.999177
     1439.900000       0.998764
     1440.000000       0.998270
     1440.100000       0.997698
     1440.200000       0.997055
     1440.300000       0.996353
     1440.400000       0.995603
     1440.500000       0.994814
     1440.600000       0.994001
     1440.700000       0.993173
     1440.800000       0.992338
     1440.900000       0.991502
     1441.000000       0.990672
     1441.100000       0.989853
     1441.200000       0.989047
     1441.300000       0.988254
     1441.400000       0.987475
     1441.500000       0.986704
     1441.600000       0.985936
     1441.700000       0.985164
     1441.800000       0.984381
     1441.900000       0.983577
     1442.000000       0.982739
     1442.100000       0.981860
     1442.200000       0.980929
     1442.300000       0.979933
     1442.400000       0.978868
     1442.500000       0.977726
     1442.600000       0.976498
     1442.700000       0.975175
     1442.800000       0.973759
     1442.900000       0.972246
     1443.000000       0.970640
     1443.100000       0.968947
     1443.200000       0.967180
     1443.300000       0.965351
     1443.400000       0.963464
     1443.500000       0.961528
     1443.600000       0.959554
     1443.700000       0.957552
     1443.800000       0.955529
     1443.900000       0.953506
     1444.000000       0.951488
     1444.100000       0.949484
     1444.200000       0.947503
     1444.300000       0.945550
     1444.400000       0.943634
     1444.500000       0.941754
     1444.600000       0.939911
     1444.700000       0.938105
     1444.800000       0.936332
     1444.900000       0.934584
     1445.000000       0.932859
     1445.100000       0.931148
     1445.200000       0.929441
     1445.300000       0.927730
     1445.400000       0.926007
     1445.500000       0.924268
     1445.600000       0.922498
     1445.700000       0.920692
     1445.800000       0.918843
     1445.900000       0.916946
     1446.000000       0.914993
     1446.100000       0.912987
     1446.200000       0.910923
     1446.300000       0.908797
     1446.400000       0.906613
     1446.500000       0.904373
     1446.600000       0.902083
     1446.700000       0.899745
     1446.800000       0.897368
     1446.900000       0.894962
     1447.000000       0.892529
     1447.100000       0.890080
     1447.200000       0.887628
     1447.300000       0.885179
     1447.400000       0.882738
     1447.500000       0.880314
     1447.600000       0.877910
     1447.700000       0.875537
     1447.800000       0.873187
     1447.900000       0.870865
     1448.000000       0.868570
     1448.100000       0.866294
     1448.200000       0.864039
     1448.300000       0.861801
     1448.400000       0.859577
     1448.500000       0.857356
     1448.600000       0.855136
     1448.700000       0.852915
     1448.800000       0.850681
     1448.900000       0.848433
     1449.000000       0.846167
     1449.100000       0.843881
     1449.200000       0.841571
     1449.300000       0.839244
     1449.400000       0.836902
     1449.500000       0.834552
     1449.600000       0.832196
     1449.700000       0.829849
     1449.800000       0.827522
     1449.900000       0.825224
     1450.000000       0.822971
     1450.100000       0.820779
     1450.200000       0.818656
     1450.300000       0.816608
     1450.400000       0.814649
     1450.500000       0.812787
     1450.600000       0.811023
     1450.700000       0.809363
     1450.800000       0.807809
     1450.900000       0.806363
     1451.000000       0.805018
     1451.100000       0.803769
     1451.200000       0.802610
     1451.300000       0.801528
     1451.400000       0.800510
     1451.500000       0.799546
     1451.600000       0.798619
     1451.700000       0.797714
     1451.800000       0.796815
     1451.900000       0.795909
     1452.000000       0.794983
     1452.100000       0.794025
     1452.200000       0.793028
     1452.300000       0.791993
     1452.400000       0.790916
     1452.500000       0.789801
     1452.600000       0.788656
     1452.700000       0.787487
     1452.800000       0.786304
     1452.900000       0.785120
     1453.000000       0.783950
     1453.100000       0.782810
     1453.200000       0.781719
     1453.300000       0.780697
     1453.400000       0.779764
     1453.500000       0.778932
     1453.600000       0.778216
     1453.700000       0.777625
     1453.800000       0.777167
     1453.900000       0.776854
     1454.000000       0.776692
     1454.100000       0.776687
     1454.200000       0.776838
     1454.300000       0.777137
     1454.400000       0.777576
     1454.500000       0.778145
     1454.600000       0.778832
     1454.700000       0.779625
     1454.800000       0.780509
     1454.900000       0.781470
     1455.000000       0.782499
     1455.100000       0.783582
     1455.200000       0.784709
     1455.300000       0.785875
     1455.400000       0.787072
     1455.500000       0.788294
     1455.600000       0.789543
     1455.700000       0.790822
     1455.800000       0.792130
     1455.900000       0.793474
     1456.000000       0.794861
     1456.100000       0.796302
     1456.200000       0.797803
     1456.300000       0.799373
     1456.400000       0.801029
     1456.500000       0.802773
     1456.600000       0.804617
     1456.700000       0.806566
     1456.800000       0.808628
     1456.900000       0.810805
     1457.000000       0.813093
     1457.100000       0.815500
     1457.200000       0.818020
     1457.300000       0.820650
     1457.400000       0.823378
     1457.500000       0.826197
     1457.600000       0.829084
     1457.700000       0.832026
     1457.800000       0.835012
     1457.900000       0.838029
     1458.000000       0.841064
     1458.100000       0.844096
     1458.200000       0.847123
     1458.300000       0.850125
     1458.400000       0.853092
     1458.500000       0.856010
     1458.600000       0.858877
     1458.700000       0.861677
     1458.800000       0.864409
     1458.900000       0.867069
     1459.000000       0.869651
     1459.100000       0.872158
     1459.200000       0.874577
     1459.300000       0.876917
     1459.400000       0.879172
     1459.500000       0.881342
     1459.600000       0.883430
     1459.700000       0.885426
     1459.800000       0.887330
     1459.900000       0.889136
     1460.000000       0.890844
     1460.100000       0.892443
     1460.200000       0.893921
     1460.300000       0.895268
     1460.400000       0.896472
     1460.500000       0.897518
     1460.600000       0.898394
     1460.700000       0.899088
     1460.800000       0.899583
     1460.900000       0.899863
     1461.000000       0.899909
     1461.100000       0.899697
     1461.200000       0.899208
     1461.300000       0.898427
     1461.400000       0.897338
     1461.500000       0.895926
     1461.600000       0.894177
     1461.700000       0.892077
     1461.800000       0.889606
     1461.900000       0.886756
     1462.000000       0.883511
     1462.100000       0.879863
     1462.200000       0.875791
     1462.300000       0.871292
     1462.400000       0.866367
     1462.500000       0.860994
     1462.600000       0.855174
     1462.700000       0.848899
     1462.800000       0.842168
     1462.900000       0.834960
     1463.000000       0.827292
     1463.100000       0.819159
     1463.200000       0.810565
     1463.300000       0.801495
     1463.400000       0.791963
     1463.500000       0.781996
     1463.600000       0.771576
     1463.700000       0.760730
     1463.800000       0.749480
     1463.900000       0.737845
     1464.000000       0.725821
     1464.100000       0.713471
     1464.200000       0.700805
     1464.300000       0.687836
     1464.400000       0.674600
     1464.500000       0.661133
     1464.600000       0.647500
     1464.700000       0.633700
     1464.800000       0.619789
     1464.900000       0.605806
     1465.000000       0.591790
     1465.100000       0.577747
     1465.200000       0.563758
     1465.300000       0.549841
     1465.400000       0.536013
     1465.500000       0.522312
     1465.600000       0.508760
     1465.700000       0.495410
     1465.800000       0.482241
     1465.900000       0.469294
     1466.000000       0.456585
     1466.100000       0.444099
     1466.200000       0.431854
     1466.300000       0.419879
     1466.400000       0.408166
     1466.500000       0.396700
     1466.600000       0.385488
     1466.700000       0.374525
     1466.800000       0.363828
     1466.900000       0.353364
     1467.000000       0.343144
     1467.100000       0.333163
     1467.200000       0.323396
     1467.300000       0.313845
     1467.400000       0.304517
     1467.500000       0.295404
     1467.600000       0.286486
     1467.700000       0.277774
     1467.800000       0.269267
     1467.900000       0.260945
     1468.000000       0.252830
     1468.100000       0.244914
     1468.200000       0.237200
     1468.300000       0.229672
     1468.400000       0.222339
     1468.500000       0.215214
     1468.600000       0.208292
     1468.700000       0.201561
     1468.800000       0.195033
     1468.900000       0.188706
     1469.000000       0.182568
     1469.100000       0.176635
     1469.200000       0.170898
     1469.300000       0.165360
     1469.400000       0.160006
     1469.500000       0.154840
     1469.600000       0.149867
     1469.700000       0.145070
     1469.800000       0.140451
     1469.900000       0.136004
     1470.000000       0.131723
     1470.100000       0.127603
     1470.200000       0.123636
     1470.300000       0.119814
     1470.400000       0.116133
     1470.500000       0.112574
     1470.600000       0.109141
     1470.700000       0.105822
     1470.800000       0.102602
     1470.900000       0.099476
     1471.000000       0.096435
     1471.100000       0.093476
     1471.200000       0.090581
     1471.300000       0.087751
     1471.400000       0.084977
     1471.500000       0.082248
     1471.600000       0.079560
     1471.700000       0.076916
     1471.800000       0.074310
     1471.900000       0.071737
     1472.000000       0.069199
     1472.100000       0.066700
     1472.200000       0.064249
     1472.300000       0.061841
     1472.400000       0.059488
     1472.500000       0.057198
     1472.600000       0.054974
     1472.700000       0.052825
     1472.800000       0.050766
     1472.900000       0.048800
     1473.000000       0.046934
     1473.100000       0.045178
     1473.200000       0.043536
     1473.300000       0.042010
     1473.400000       0.040605
     1473.500000       0.039322
     1473.600000       0.038160
     1473.700000       0.037113
     1473.800000       0.036177
     1473.900000       0.035345
     1474.000000       0.034609
     1474.100000       0.033955
     1474.200000       0.033373
     1474.300000       0.032849
     1474.400000       0.032367
     1474.500000       0.031915
     1474.600000       0.031478
     1474.700000       0.031044
     1474.800000       0.030598
     1474.900000       0.030129
     1475.000000       0.029631
     1475.100000       0.029092
     1475.200000       0.028509
     1475.300000       0.027879
     1475.400000       0.027203
     1475.500000       0.026477
     1475.600000       0.025710
     1475.700000       0.024906
     1475.800000       0.024074
     1475.900000       0.023220
     1476.000000       0.022356
     1476.100000       0.021493
     1476.200000       0.020643
     1476.300000       0.019815
     1476.400000       0.019021
     1476.500000       0.018270
     1476.600000       0.017569
     1476.700000       0.016928
     1476.800000       0.016350
     1476.900000       0.015839
     1477.000000       0.015395
     1477.100000       0.015019
     1477.200000       0.014708
     1477.300000       0.014456
     1477.400000       0.014257
     1477.500000       0.014106
     1477.600000       0.013992
     1477.700000       0.013907
     1477.800000       0.013841
     1477.900000       0.013784
     1478.000000       0.013726
     1478.100000       0.013660
     1478.200000       0.013575
     1478.300000       0.013465
     1478.400000       0.013325
     1478.500000       0.013149
     1478.600000       0.012935
     1478.700000       0.012682
     1478.800000       0.012389
     1478.900000       0.012060
     1479.000000       0.011699
     1479.100000       0.011309
     1479.200000       0.010895
     1479.300000       0.010467
     1479.400000       0.010031
     1479.500000       0.009595
     1479.600000       0.009170
     1479.700000       0.008755
     1479.800000       0.008388
     1479.900000       0.007969
     1480.000000       0.007895
     1480.100000       0.008435
     1480.200000       0.008729
     1480.300000       0.008812
     1480.400000       0.008720
     1480.500000       0.008489
     1480.600000       0.008154
     1480.700000       0.007750
     1480.800000       0.007315
     1480.900000       0.006884
     1481.000000       0.006492
     1481.100000       0.006170
     1481.200000       0.005916
     1481.300000       0.005720
     1481.400000       0.005574
     1481.500000       0.005468
     1481.600000       0.005394
     1481.700000       0.005342
     1481.800000       0.005303
     1481.900000       0.005268
     1482.000000       0.005227
     1482.100000       0.005174
     1482.200000       0.005108
     1482.300000       0.005033
     1482.400000       0.004949
     1482.500000       0.004860
     1482.600000       0.004768
     1482.700000       0.004676
     1482.800000       0.004585
     1482.900000       0.004497
     1483.000000       0.004416
     1483.100000       0.004344
     1483.200000       0.004279
     1483.300000       0.004220
     1483.400000       0.004168
     1483.500000       0.004120
     1483.600000       0.004076
     1483.700000       0.004035
     1483.800000       0.003996
     1483.900000       0.003958
     1484.000000       0.003920
     1484.100000       0.003881
     1484.200000       0.003841
     1484.300000       0.003802
     1484.400000       0.003763
     1484.500000       0.003725
     1484.600000       0.003688
     1484.700000       0.003653
     1484.800000       0.003621
     1484.900000       0.003591
     1485.000000       0.003565
     1485.100000       0.003542
     1485.200000       0.003524
     1485.300000       0.003508
     1485.400000       0.003496
     1485.500000       0.003486
     1485.600000       0.003479
     1485.700000       0.003474
     1485.800000       0.003471
     1485.900000       0.003470
     1486.000000       0.003470
     1486.100000       0.003471
     1486.200000       0.003473
     1486.300000       0.003474
     1486.400000       0.003475
     1486.500000       0.003474
     1486.600000       0.003471
     1486.700000       0.003466
     1486.800000       0.003456
     1486.900000       0.003443
     1487.000000       0.003425
     1487.100000       0.003402
     1487.200000       0.003375
     1487.300000       0.003343
     1487.400000       0.003307
     1487.500000       0.003269
     1487.600000       0.003229
     1487.700000       0.003188
     1487.800000       0.003146
     1487.900000       0.003104
     1488.000000       0.003063
     1488.100000       0.003023
     1488.200000       0.002984
     1488.300000       0.002945
     1488.400000       0.002906
     1488.500000       0.002867
     1488.600000       0.002828
     1488.700000       0.002787
     1488.800000       0.002745
     1488.900000       0.002701
     1489.000000       0.002655
     1489.100000       0.002606
     1489.200000       0.002555
     1489.300000       0.002501
     1489.400000       0.002445
     1489.500000       0.002386
     1489.600000       0.002326
     1489.700000       0.002263
     1489.800000       0.002199
     1489.900000       0.002133
     1490.000000       0.002066
     1490.100000       0.001997
     1490.200000       0.001928
     1490.300000       0.001858
     1490.400000       0.001789
     1490.500000       0.001721
     1490.600000       0.001655
     1490.700000       0.001591
     1490.800000       0.001531
     1490.900000       0.001475
     1491.000000       0.001423
     1491.100000       0.001376
     1491.200000       0.001334
     1491.300000       0.001297
     1491.400000       0.001264
     1491.500000       0.001235
     1491.600000       0.001210
     1491.700000       0.001189
     1491.800000       0.001171
     1491.900000       0.001157
     1492.000000       0.001145
     1492.100000       0.001136
     1492.200000       0.001128
     1492.300000       0.001123
     1492.400000       0.001118
     1492.500000       0.001113
     1492.600000       0.001109
     1492.700000       0.001104
     1492.800000       0.001098
     1492.900000       0.001090
     1493.000000       0.001079
     1493.100000       0.001066
     1493.200000       0.000269
     1493.300000       0.000265
     1493.400000       0.000260
     1493.500000       0.000255
