  11  ,metop_02_hirs_11.flt
Number of data points:
708
Wavenumber (cm-1)   Filter response
     1326.800000       0.000000
     1326.900000       0.002519
     1327.000000       0.002522
     1327.100000       0.002542
     1327.200000       0.002580
     1327.300000       0.002635
     1327.400000       0.002706
     1327.500000       0.002794
     1327.600000       0.002896
     1327.700000       0.003012
     1327.800000       0.003141
     1327.900000       0.003281
     1328.000000       0.003431
     1328.100000       0.003588
     1328.200000       0.003751
     1328.300000       0.003918
     1328.400000       0.004088
     1328.500000       0.004259
     1328.600000       0.004430
     1328.700000       0.004599
     1328.800000       0.004765
     1328.900000       0.004927
     1329.000000       0.005084
     1329.100000       0.005234
     1329.200000       0.005379
     1329.300000       0.005517
     1329.400000       0.005649
     1329.500000       0.005774
     1329.600000       0.005893
     1329.700000       0.006006
     1329.800000       0.006114
     1329.900000       0.006217
     1330.000000       0.006317
     1330.100000       0.006416
     1330.200000       0.006513
     1330.300000       0.006611
     1330.400000       0.006711
     1330.500000       0.006814
     1330.600000       0.006921
     1330.700000       0.007036
     1330.800000       0.007158
     1330.900000       0.007291
     1331.000000       0.007434
     1331.100000       0.007590
     1331.200000       0.007761
     1331.300000       0.007947
     1331.400000       0.008150
     1331.500000       0.008370
     1331.600000       0.008609
     1331.700000       0.008867
     1331.800000       0.009145
     1331.900000       0.009442
     1332.000000       0.009759
     1332.100000       0.010093
     1332.200000       0.010445
     1332.300000       0.010814
     1332.400000       0.011199
     1332.500000       0.011599
     1332.600000       0.012010
     1332.700000       0.012433
     1332.800000       0.012865
     1332.900000       0.013303
     1333.000000       0.013744
     1333.100000       0.014189
     1333.200000       0.014633
     1333.300000       0.015077
     1333.400000       0.015518
     1333.500000       0.015956
     1333.600000       0.016390
     1333.700000       0.016820
     1333.800000       0.017246
     1333.900000       0.017669
     1334.000000       0.018090
     1334.100000       0.018511
     1334.200000       0.018935
     1334.300000       0.019366
     1334.400000       0.019807
     1334.500000       0.020262
     1334.600000       0.020737
     1334.700000       0.021236
     1334.800000       0.021765
     1334.900000       0.022330
     1335.000000       0.022936
     1335.100000       0.023589
     1335.200000       0.024294
     1335.300000       0.025057
     1335.400000       0.025883
     1335.500000       0.026776
     1335.600000       0.027740
     1335.700000       0.028780
     1335.800000       0.029898
     1335.900000       0.031095
     1336.000000       0.032375
     1336.100000       0.033733
     1336.200000       0.035175
     1336.300000       0.036699
     1336.400000       0.038305
     1336.500000       0.039993
     1336.600000       0.041761
     1336.700000       0.043608
     1336.800000       0.045535
     1336.900000       0.047539
     1337.000000       0.049619
     1337.100000       0.051775
     1337.200000       0.054006
     1337.300000       0.056313
     1337.400000       0.058698
     1337.500000       0.061162
     1337.600000       0.063709
     1337.700000       0.065899
     1337.800000       0.068594
     1337.900000       0.071383
     1338.000000       0.074273
     1338.100000       0.077263
     1338.200000       0.080372
     1338.300000       0.083612
     1338.400000       0.086994
     1338.500000       0.090533
     1338.600000       0.094240
     1338.700000       0.098132
     1338.800000       0.102220
     1338.900000       0.106530
     1339.000000       0.111060
     1339.100000       0.115840
     1339.200000       0.120860
     1339.300000       0.126160
     1339.400000       0.131740
     1339.500000       0.137620
     1339.600000       0.143800
     1339.700000       0.150300
     1339.800000       0.157130
     1339.900000       0.164300
     1340.000000       0.171820
     1340.100000       0.179720
     1340.200000       0.187980
     1340.300000       0.196620
     1340.400000       0.205620
     1340.500000       0.215000
     1340.600000       0.224760
     1340.700000       0.234910
     1340.800000       0.245440
     1340.900000       0.256340
     1341.000000       0.267620
     1341.100000       0.279280
     1341.200000       0.291300
     1341.300000       0.303680
     1341.400000       0.316420
     1341.500000       0.329500
     1341.600000       0.342930
     1341.700000       0.356670
     1341.800000       0.370730
     1341.900000       0.385090
     1342.000000       0.399740
     1342.100000       0.414530
     1342.200000       0.429570
     1342.300000       0.444830
     1342.400000       0.460290
     1342.500000       0.475930
     1342.600000       0.491730
     1342.700000       0.507690
     1342.800000       0.523750
     1342.900000       0.539890
     1343.000000       0.556080
     1343.100000       0.572300
     1343.200000       0.588510
     1343.300000       0.604700
     1343.400000       0.620820
     1343.500000       0.636860
     1343.600000       0.652770
     1343.700000       0.668550
     1343.800000       0.684150
     1343.900000       0.699550
     1344.000000       0.714730
     1344.100000       0.729670
     1344.200000       0.744340
     1344.300000       0.758720
     1344.400000       0.772780
     1344.500000       0.786510
     1344.600000       0.799890
     1344.700000       0.812910
     1344.800000       0.825540
     1344.900000       0.837780
     1345.000000       0.849610
     1345.100000       0.861020
     1345.200000       0.871990
     1345.300000       0.882530
     1345.400000       0.892630
     1345.500000       0.902270
     1345.600000       0.911460
     1345.700000       0.920190
     1345.800000       0.928450
     1345.900000       0.936260
     1346.000000       0.943600
     1346.100000       0.950320
     1346.200000       0.956590
     1346.300000       0.962400
     1346.400000       0.967750
     1346.500000       0.972590
     1346.600000       0.976990
     1346.700000       0.980960
     1346.800000       0.984510
     1346.900000       0.987640
     1347.000000       0.990390
     1347.100000       0.992750
     1347.200000       0.994750
     1347.300000       0.996390
     1347.400000       0.997700
     1347.500000       0.998700
     1347.600000       0.999410
     1347.700000       0.999830
     1347.800000       1.000000
     1347.900000       0.999930
     1348.000000       0.999650
     1348.100000       0.999120
     1348.200000       0.998410
     1348.300000       0.997550
     1348.400000       0.996480
     1348.500000       0.995280
     1348.600000       0.993970
     1348.700000       0.992570
     1348.800000       0.991090
     1348.900000       0.989560
     1349.000000       0.987990
     1349.100000       0.986370
     1349.200000       0.984740
     1349.300000       0.983080
     1349.400000       0.981420
     1349.500000       0.979760
     1349.600000       0.978100
     1349.700000       0.976460
     1349.800000       0.974830
     1349.900000       0.973210
     1350.000000       0.971610
     1350.100000       0.970120
     1350.200000       0.968650
     1350.300000       0.967180
     1350.400000       0.965700
     1350.500000       0.964240
     1350.600000       0.962810
     1350.700000       0.961400
     1350.800000       0.960000
     1350.900000       0.958630
     1351.000000       0.957270
     1351.100000       0.955930
     1351.200000       0.954610
     1351.300000       0.953290
     1351.400000       0.951980
     1351.500000       0.950670
     1351.600000       0.949350
     1351.700000       0.948040
     1351.800000       0.946710
     1351.900000       0.945370
     1352.000000       0.944000
     1352.100000       0.942570
     1352.200000       0.941090
     1352.300000       0.939500
     1352.400000       0.937860
     1352.500000       0.936190
     1352.600000       0.934470
     1352.700000       0.932710
     1352.800000       0.930890
     1352.900000       0.929030
     1353.000000       0.927120
     1353.100000       0.925170
     1353.200000       0.923170
     1353.300000       0.921130
     1353.400000       0.919060
     1353.500000       0.916950
     1353.600000       0.914830
     1353.700000       0.912680
     1353.800000       0.910520
     1353.900000       0.908370
     1354.000000       0.906220
     1354.100000       0.904200
     1354.200000       0.902130
     1354.300000       0.900080
     1354.400000       0.898080
     1354.500000       0.896130
     1354.600000       0.894230
     1354.700000       0.892400
     1354.800000       0.890630
     1354.900000       0.888920
     1355.000000       0.887280
     1355.100000       0.885700
     1355.200000       0.884190
     1355.300000       0.882720
     1355.400000       0.881300
     1355.500000       0.879930
     1355.600000       0.878590
     1355.700000       0.877270
     1355.800000       0.875960
     1355.900000       0.874660
     1356.000000       0.873350
     1356.100000       0.871880
     1356.200000       0.870380
     1356.300000       0.868840
     1356.400000       0.867260
     1356.500000       0.865640
     1356.600000       0.863980
     1356.700000       0.862260
     1356.800000       0.860500
     1356.900000       0.858690
     1357.000000       0.856850
     1357.100000       0.854970
     1357.200000       0.853060
     1357.300000       0.851140
     1357.400000       0.849210
     1357.500000       0.847290
     1357.600000       0.845380
     1357.700000       0.843500
     1357.800000       0.841660
     1357.900000       0.839870
     1358.000000       0.838140
     1358.100000       0.836550
     1358.200000       0.835030
     1358.300000       0.833570
     1358.400000       0.832200
     1358.500000       0.830890
     1358.600000       0.829650
     1358.700000       0.828460
     1358.800000       0.827330
     1358.900000       0.826250
     1359.000000       0.825190
     1359.100000       0.824150
     1359.200000       0.823110
     1359.300000       0.822050
     1359.400000       0.820970
     1359.500000       0.819840
     1359.600000       0.818650
     1359.700000       0.817400
     1359.800000       0.816060
     1359.900000       0.814630
     1360.000000       0.813200
     1360.100000       0.811620
     1360.200000       0.809930
     1360.300000       0.808140
     1360.400000       0.806270
     1360.500000       0.804310
     1360.600000       0.802270
     1360.700000       0.800180
     1360.800000       0.798040
     1360.900000       0.795870
     1361.000000       0.793700
     1361.100000       0.791540
     1361.200000       0.789420
     1361.300000       0.787340
     1361.400000       0.785340
     1361.500000       0.783410
     1361.600000       0.781590
     1361.700000       0.779890
     1361.800000       0.778310
     1361.900000       0.776940
     1362.000000       0.775740
     1362.100000       0.774870
     1362.200000       0.774130
     1362.300000       0.773530
     1362.400000       0.773050
     1362.500000       0.772690
     1362.600000       0.772440
     1362.700000       0.772280
     1362.800000       0.772200
     1362.900000       0.772180
     1363.000000       0.772210
     1363.100000       0.772270
     1363.200000       0.772340
     1363.300000       0.772400
     1363.400000       0.772450
     1363.500000       0.772470
     1363.600000       0.772450
     1363.700000       0.772380
     1363.800000       0.772290
     1363.900000       0.772180
     1364.000000       0.772010
     1364.100000       0.771730
     1364.200000       0.771390
     1364.300000       0.771000
     1364.400000       0.770570
     1364.500000       0.770090
     1364.600000       0.769580
     1364.700000       0.769050
     1364.800000       0.768500
     1364.900000       0.767940
     1365.000000       0.767390
     1365.100000       0.766840
     1365.200000       0.766300
     1365.300000       0.765770
     1365.400000       0.765270
     1365.500000       0.764780
     1365.600000       0.764310
     1365.700000       0.763860
     1365.800000       0.763400
     1365.900000       0.762940
     1366.000000       0.762490
     1366.100000       0.762110
     1366.200000       0.761730
     1366.300000       0.761340
     1366.400000       0.760940
     1366.500000       0.760520
     1366.600000       0.760080
     1366.700000       0.759620
     1366.800000       0.759140
     1366.900000       0.758640
     1367.000000       0.758120
     1367.100000       0.757600
     1367.200000       0.757070
     1367.300000       0.756550
     1367.400000       0.756050
     1367.500000       0.755570
     1367.600000       0.755120
     1367.700000       0.754700
     1367.800000       0.754330
     1367.900000       0.754030
     1368.000000       0.753830
     1368.100000       0.753740
     1368.200000       0.753770
     1368.300000       0.753920
     1368.400000       0.754180
     1368.500000       0.754580
     1368.600000       0.755110
     1368.700000       0.755770
     1368.800000       0.756560
     1368.900000       0.757490
     1369.000000       0.758540
     1369.100000       0.759710
     1369.200000       0.760990
     1369.300000       0.762390
     1369.400000       0.763880
     1369.500000       0.765460
     1369.600000       0.767100
     1369.700000       0.768780
     1369.800000       0.770540
     1369.900000       0.772340
     1370.000000       0.774200
     1370.100000       0.776170
     1370.200000       0.778190
     1370.300000       0.780240
     1370.400000       0.782320
     1370.500000       0.784430
     1370.600000       0.786580
     1370.700000       0.788760
     1370.800000       0.790970
     1370.900000       0.793220
     1371.000000       0.795510
     1371.100000       0.797840
     1371.200000       0.800210
     1371.300000       0.802630
     1371.400000       0.805080
     1371.500000       0.807580
     1371.600000       0.810110
     1371.700000       0.812690
     1371.800000       0.815290
     1371.900000       0.817940
     1372.000000       0.820610
     1372.100000       0.823340
     1372.200000       0.826080
     1372.300000       0.828830
     1372.400000       0.831580
     1372.500000       0.834330
     1372.600000       0.837070
     1372.700000       0.839790
     1372.800000       0.842490
     1372.900000       0.845170
     1373.000000       0.847810
     1373.100000       0.850430
     1373.200000       0.853010
     1373.300000       0.855550
     1373.400000       0.858070
     1373.500000       0.860600
     1373.600000       0.863120
     1373.700000       0.865610
     1373.800000       0.868090
     1373.900000       0.870560
     1374.000000       0.873030
     1374.100000       0.875550
     1374.200000       0.878080
     1374.300000       0.880610
     1374.400000       0.883160
     1374.500000       0.885710
     1374.600000       0.888270
     1374.700000       0.890830
     1374.800000       0.893390
     1374.900000       0.895930
     1375.000000       0.898440
     1375.100000       0.900920
     1375.200000       0.903350
     1375.300000       0.905690
     1375.400000       0.907970
     1375.500000       0.910150
     1375.600000       0.912190
     1375.700000       0.914070
     1375.800000       0.915760
     1375.900000       0.917240
     1376.000000       0.918490
     1376.100000       0.919570
     1376.200000       0.920390
     1376.300000       0.920910
     1376.400000       0.921140
     1376.500000       0.921060
     1376.600000       0.920640
     1376.700000       0.919900
     1376.800000       0.918820
     1376.900000       0.917400
     1377.000000       0.915640
     1377.100000       0.913540
     1377.200000       0.911090
     1377.300000       0.908320
     1377.400000       0.905220
     1377.500000       0.901800
     1377.600000       0.898060
     1377.700000       0.894000
     1377.800000       0.889630
     1377.900000       0.884960
     1378.000000       0.879980
     1378.100000       0.874730
     1378.200000       0.869170
     1378.300000       0.863320
     1378.400000       0.857180
     1378.500000       0.850740
     1378.600000       0.843990
     1378.700000       0.836950
     1378.800000       0.829600
     1378.900000       0.821940
     1379.000000       0.813980
     1379.100000       0.805700
     1379.200000       0.797090
     1379.300000       0.788060
     1379.400000       0.778710
     1379.500000       0.769060
     1379.600000       0.759110
     1379.700000       0.748860
     1379.800000       0.738320
     1379.900000       0.727500
     1380.000000       0.716420
     1380.100000       0.705160
     1380.200000       0.693670
     1380.300000       0.681950
     1380.400000       0.670030
     1380.500000       0.657920
     1380.600000       0.645650
     1380.700000       0.633230
     1380.800000       0.620680
     1380.900000       0.608030
     1381.000000       0.595290
     1381.100000       0.582480
     1381.200000       0.569560
     1381.300000       0.556600
     1381.400000       0.543620
     1381.500000       0.530640
     1381.600000       0.517680
     1381.700000       0.504740
     1381.800000       0.491850
     1381.900000       0.479010
     1382.000000       0.466240
     1382.100000       0.453500
     1382.200000       0.440860
     1382.300000       0.428310
     1382.400000       0.415880
     1382.500000       0.403580
     1382.600000       0.391400
     1382.700000       0.379380
     1382.800000       0.367520
     1382.900000       0.355830
     1383.000000       0.344330
     1383.100000       0.333030
     1383.200000       0.321930
     1383.300000       0.311060
     1383.400000       0.300440
     1383.500000       0.290070
     1383.600000       0.279960
     1383.700000       0.270130
     1383.800000       0.260580
     1383.900000       0.251320
     1384.000000       0.242350
     1384.100000       0.233640
     1384.200000       0.225230
     1384.300000       0.217110
     1384.400000       0.209280
     1384.500000       0.201720
     1384.600000       0.194440
     1384.700000       0.187420
     1384.800000       0.180650
     1384.900000       0.174110
     1385.000000       0.167790
     1385.100000       0.161680
     1385.200000       0.155760
     1385.300000       0.150010
     1385.400000       0.144430
     1385.500000       0.139010
     1385.600000       0.133720
     1385.700000       0.128570
     1385.800000       0.123540
     1385.900000       0.118640
     1386.000000       0.113850
     1386.100000       0.109180
     1386.200000       0.104630
     1386.300000       0.100200
     1386.400000       0.095895
     1386.500000       0.091723
     1386.600000       0.087689
     1386.700000       0.083800
     1386.800000       0.080064
     1386.900000       0.076486
     1387.000000       0.073074
     1387.100000       0.069831
     1387.200000       0.066763
     1387.300000       0.063872
     1387.400000       0.061158
     1387.500000       0.058618
     1387.600000       0.057054
     1387.700000       0.054811
     1387.800000       0.052715
     1387.900000       0.050758
     1388.000000       0.048928
     1388.100000       0.047216
     1388.200000       0.045607
     1388.300000       0.044089
     1388.400000       0.042646
     1388.500000       0.041267
     1388.600000       0.039939
     1388.700000       0.038648
     1388.800000       0.037385
     1388.900000       0.036140
     1389.000000       0.034904
     1389.100000       0.033671
     1389.200000       0.032438
     1389.300000       0.031202
     1389.400000       0.029962
     1389.500000       0.028720
     1389.600000       0.027479
     1389.700000       0.026243
     1389.800000       0.025019
     1389.900000       0.023814
     1390.000000       0.022635
     1390.100000       0.021490
     1390.200000       0.020387
     1390.300000       0.019335
     1390.400000       0.018340
     1390.500000       0.017410
     1390.600000       0.016549
     1390.700000       0.015761
     1390.800000       0.015050
     1390.900000       0.014415
     1391.000000       0.013856
     1391.100000       0.013371
     1391.200000       0.012955
     1391.300000       0.012603
     1391.400000       0.012309
     1391.500000       0.012066
     1391.600000       0.011865
     1391.700000       0.011698
     1391.800000       0.011556
     1391.900000       0.011430
     1392.000000       0.011312
     1392.100000       0.011194
     1392.200000       0.011069
     1392.300000       0.010932
     1392.400000       0.010778
     1392.500000       0.010602
     1392.600000       0.010405
     1392.700000       0.010183
     1392.800000       0.009939
     1392.900000       0.009674
     1393.000000       0.009390
     1393.100000       0.009091
     1393.200000       0.008781
     1393.300000       0.008466
     1393.400000       0.008149
     1393.500000       0.007837
     1393.600000       0.007533
     1393.700000       0.007243
     1393.800000       0.006970
     1393.900000       0.006718
     1394.000000       0.006488
     1394.100000       0.006283
     1394.200000       0.006102
     1394.300000       0.005946
     1394.400000       0.005812
     1394.500000       0.005700
     1394.600000       0.005606
     1394.700000       0.005528
     1394.800000       0.005460
     1394.900000       0.005400
     1395.000000       0.005344
     1395.100000       0.005287
     1395.200000       0.005226
     1395.300000       0.005158
     1395.400000       0.005080
     1395.500000       0.004991
     1395.600000       0.004889
     1395.700000       0.004775
     1395.800000       0.004647
     1395.900000       0.004509
     1396.000000       0.004361
     1396.100000       0.004205
     1396.200000       0.004045
     1396.300000       0.003884
     1396.400000       0.003725
     1396.500000       0.003571
     1396.600000       0.003427
     1396.700000       0.003295
     1396.800000       0.003177
     1396.900000       0.003075
     1397.000000       0.002990
     1397.100000       0.002924
     1397.200000       0.002875
     1397.300000       0.002844
     1397.400000       0.002828
     1397.500000       0.000000
