121,   121, MVIRI VIS channel from srf_MET7_2012258_2012259_1801-Release_S10EE_10.dat
Number of data points:
793
Wavenumber (cm-1)   Filter response
     8442.380800       0.000000
     8449.514200       0.000000
     8456.659600       0.000004
     8463.817200       0.000057
     8470.986900       0.000167
     8478.168700       0.000335
     8485.362700       0.000557
     8492.569000       0.000833
     8499.787500       0.001161
     8507.018300       0.001539
     8514.261400       0.001966
     8521.516800       0.002441
     8528.784600       0.002961
     8536.064900       0.003527
     8543.357500       0.004135
     8550.662700       0.004787
     8557.980300       0.005479
     8565.310500       0.006212
     8572.653200       0.006984
     8580.008600       0.007793
     8587.376600       0.008640
     8594.757200       0.009523
     8602.150500       0.010440
     8609.556600       0.011392
     8616.975400       0.012378
     8624.407100       0.013396
     8631.851500       0.014446
     8639.308900       0.015526
     8646.779100       0.016638
     8654.262200       0.017779
     8661.758300       0.018949
     8669.267400       0.020148
     8676.789600       0.021374
     8684.324800       0.022628
     8691.873100       0.023909
     8699.434500       0.025216
     8707.009100       0.026549
     8714.596900       0.027907
     8722.198000       0.029291
     8729.812300       0.030699
     8737.439900       0.032131
     8745.080900       0.033587
     8752.735200       0.035067
     8760.403000       0.036570
     8768.084200       0.038097
     8775.778900       0.039646
     8783.487000       0.041217
     8791.208800       0.042811
     8798.944100       0.044427
     8806.693100       0.046065
     8814.455700       0.047725
     8822.232000       0.049406
     8830.022100       0.051109
     8837.825900       0.052833
     8845.643500       0.054578
     8853.475000       0.056344
     8861.320300       0.058132
     8869.179600       0.059940
     8877.052800       0.061769
     8884.940000       0.063619
     8892.841300       0.065490
     8900.756600       0.067381
     8908.686000       0.069294
     8916.629500       0.071227
     8924.587200       0.073181
     8932.559200       0.075156
     8940.545400       0.077151
     8948.545900       0.079168
     8956.560700       0.081204
     8964.589900       0.083263
     8972.633500       0.085341
     8980.691500       0.087441
     8988.764000       0.089562
     8996.851100       0.091704
     9004.952700       0.093867
     9013.068900       0.096051
     9021.199800       0.098257
     9029.345400       0.100484
     9037.505600       0.102732
     9045.680700       0.105002
     9053.870500       0.107293
     9062.075200       0.109606
     9070.294800       0.111941
     9078.529300       0.114297
     9086.778700       0.116676
     9095.043200       0.119077
     9103.322700       0.121499
     9111.617300       0.123944
     9119.927000       0.126411
     9128.251900       0.128901
     9136.592100       0.131413
     9144.947400       0.133947
     9153.318100       0.136504
     9161.704100       0.139084
     9170.105500       0.141687
     9178.522300       0.144312
     9186.954500       0.146961
     9195.402300       0.149632
     9203.865600       0.152327
     9212.344500       0.155044
     9220.839100       0.157786
     9229.349300       0.160550
     9237.875300       0.163337
     9246.417000       0.166148
     9254.974500       0.168983
     9263.547900       0.171841
     9272.137200       0.174722
     9280.742500       0.177628
     9289.363700       0.180556
     9298.000900       0.183509
     9306.654300       0.186485
     9315.323700       0.189485
     9324.009300       0.192509
     9332.711200       0.195556
     9341.429200       0.198627
     9350.163600       0.201722
     9358.914400       0.204841
     9367.681500       0.207984
     9376.465100       0.211150
     9385.265100       0.214339
     9394.081700       0.217553
     9402.914900       0.220790
     9411.764700       0.224051
     9420.631200       0.227336
     9429.514400       0.230643
     9438.414300       0.233975
     9447.331100       0.237330
     9456.264800       0.240708
     9465.215300       0.244109
     9474.182900       0.247534
     9483.167400       0.250982
     9492.169000       0.254452
     9501.187600       0.257946
     9510.223500       0.261463
     9519.276500       0.265001
     9528.346800       0.268563
     9537.434400       0.272148
     9546.539400       0.275754
     9555.661700       0.279383
     9564.801500       0.283033
     9573.958800       0.286706
     9583.133700       0.290400
     9592.326100       0.294116
     9601.536200       0.297853
     9610.764100       0.301611
     9620.009600       0.305391
     9629.273000       0.309192
     9638.554200       0.313012
     9647.853400       0.316854
     9657.170400       0.320715
     9666.505600       0.324597
     9675.858700       0.328499
     9685.230000       0.332419
     9694.619500       0.336360
     9704.027200       0.340319
     9713.453100       0.344297
     9722.897400       0.348294
     9732.360100       0.352309
     9741.841200       0.356343
     9751.340800       0.360393
     9760.859000       0.364462
     9770.395700       0.368548
     9779.951100       0.372650
     9789.525200       0.376770
     9799.118100       0.380906
     9808.729800       0.385057
     9818.360300       0.389225
     9828.009800       0.393407
     9837.678300       0.397605
     9847.365800       0.401818
     9857.072400       0.406045
     9866.798200       0.410287
     9876.543200       0.414541
     9886.307500       0.418810
     9896.091000       0.423091
     9905.894000       0.427385
     9915.716400       0.431692
     9925.558300       0.436010
     9935.419800       0.440340
     9945.300800       0.444681
     9955.201600       0.449033
     9965.122100       0.453395
     9975.062300       0.457767
     9985.022500       0.462149
     9995.002500       0.466541
    10005.002500       0.470941
    10015.022500       0.475349
    10025.062700       0.479766
    10035.122900       0.484190
    10045.203400       0.488621
    10055.304200       0.493060
    10065.425300       0.497504
    10075.566800       0.501955
    10085.728700       0.506410
    10095.911200       0.510872
    10106.114200       0.515337
    10116.337900       0.519807
    10126.582300       0.524280
    10136.847400       0.528757
    10147.133400       0.533237
    10157.440300       0.537719
    10167.768200       0.542203
    10178.117000       0.546688
    10188.487000       0.551174
    10198.878100       0.555662
    10209.290500       0.560149
    10219.724100       0.564635
    10230.179000       0.569121
    10240.655400       0.573606
    10251.153300       0.578089
    10261.672700       0.582570
    10272.213700       0.587048
    10282.776300       0.591523
    10293.360800       0.595994
    10303.967000       0.600461
    10314.595200       0.604923
    10325.245200       0.609381
    10335.917300       0.613833
    10346.611500       0.618279
    10357.327800       0.622718
    10368.066400       0.627151
    10378.827200       0.631576
    10389.610400       0.635993
    10400.416000       0.640402
    10411.244100       0.644801
    10422.094800       0.649192
    10432.968200       0.653573
    10443.864200       0.657943
    10454.783100       0.662303
    10465.724800       0.666651
    10476.689400       0.670988
    10487.677000       0.675313
    10498.687700       0.679624
    10509.721500       0.683923
    10520.778500       0.688208
    10531.858900       0.692479
    10542.962600       0.696736
    10554.089700       0.700978
    10565.240400       0.705204
    10576.414600       0.709414
    10587.612500       0.713608
    10598.834100       0.717785
    10610.079600       0.721945
    10621.348900       0.726087
    10632.642200       0.730211
    10643.959600       0.734317
    10655.301000       0.738403
    10666.666700       0.742470
    10678.056600       0.746516
    10689.470900       0.750543
    10700.909600       0.754549
    10712.372800       0.758533
    10723.860600       0.762496
    10735.373100       0.766436
    10746.910300       0.770355
    10758.472300       0.774250
    10770.059200       0.778122
    10781.671200       0.781970
    10793.308100       0.785794
    10804.970300       0.789594
    10816.657700       0.793368
    10828.370300       0.797117
    10840.108400       0.800841
    10851.871900       0.804538
    10863.661100       0.808209
    10875.475800       0.811853
    10887.316300       0.815470
    10899.182600       0.819059
    10911.074700       0.822620
    10922.992900       0.826153
    10934.937100       0.829656
    10946.907500       0.833131
    10958.904100       0.836577
    10970.927000       0.839993
    10982.976400       0.843379
    10995.052200       0.846734
    11007.154700       0.850059
    11019.283700       0.853352
    11031.439600       0.856614
    11043.622300       0.859845
    11055.832000       0.863043
    11068.068600       0.866210
    11080.332400       0.869343
    11092.623400       0.872444
    11104.941700       0.875512
    11117.287400       0.878546
    11129.660500       0.881546
    11142.061300       0.884513
    11154.489700       0.887445
    11166.945800       0.890343
    11179.429800       0.893206
    11191.941800       0.896035
    11204.481800       0.898828
    11217.049900       0.901585
    11229.646300       0.904307
    11242.270900       0.906993
    11254.924000       0.909643
    11267.605600       0.912257
    11280.315800       0.914834
    11293.054800       0.917374
    11305.822500       0.919878
    11318.619100       0.922344
    11331.444800       0.924774
    11344.299500       0.927166
    11357.183400       0.929520
    11370.096600       0.931837
    11383.039300       0.934115
    11396.011400       0.936356
    11409.013100       0.938559
    11422.044500       0.940723
    11435.105800       0.942849
    11448.196900       0.944937
    11461.318100       0.946986
    11474.469300       0.948996
    11487.650800       0.950967
    11500.862600       0.952900
    11514.104800       0.954794
    11527.377500       0.956648
    11540.680900       0.958464
    11554.015000       0.960240
    11567.380000       0.961977
    11580.775900       0.963675
    11594.202900       0.965333
    11607.661100       0.966953
    11621.150500       0.968532
    11634.671300       0.970073
    11648.223600       0.971574
    11661.807600       0.973035
    11675.423200       0.974458
    11689.070700       0.975841
    11702.750100       0.977184
    11716.461600       0.978488
    11730.205300       0.979753
    11743.981200       0.980978
    11757.789500       0.982164
    11771.630400       0.983311
    11785.503800       0.984419
    11799.410000       0.985488
    11813.349100       0.986518
    11827.321100       0.987508
    11841.326200       0.988460
    11855.364600       0.989373
    11869.436200       0.990248
    11883.541300       0.991084
    11897.680000       0.991881
    11911.852300       0.992640
    11926.058400       0.993361
    11940.298500       0.994044
    11954.572600       0.994688
    11968.880900       0.995295
    11983.223500       0.995864
    11997.600500       0.996396
    12012.012000       0.996890
    12026.458200       0.997347
    12040.939200       0.997768
    12055.455100       0.998151
    12070.006000       0.998497
    12084.592100       0.998807
    12099.213600       0.999081
    12113.870400       0.999319
    12128.562800       0.999521
    12143.290800       0.999687
    12158.054700       0.999818
    12172.854500       0.999913
    12187.690400       0.999974
    12202.562500       1.000000
    12217.471000       0.999991
    12232.415900       0.999949
    12247.397400       0.999872
    12262.415700       0.999761
    12277.470800       0.999617
    12292.563000       0.999440
    12307.692300       0.999230
    12322.858900       0.998987
    12338.062900       0.998712
    12353.304500       0.998405
    12368.583800       0.998067
    12383.900900       0.997696
    12399.256000       0.997295
    12414.649300       0.996863
    12430.080800       0.996400
    12445.550700       0.995907
    12461.059200       0.995385
    12476.606400       0.994833
    12492.192400       0.994251
    12507.817400       0.993641
    12523.481500       0.993002
    12539.185000       0.992336
    12554.927800       0.991641
    12570.710200       0.990919
    12586.532400       0.990170
    12602.394500       0.989394
    12618.296500       0.988592
    12634.238800       0.987764
    12650.221400       0.986910
    12666.244500       0.986031
    12682.308200       0.985128
    12698.412700       0.984200
    12714.558200       0.983248
    12730.744700       0.982272
    12746.972600       0.981273
    12763.241900       0.980251
    12779.552700       0.979207
    12795.905300       0.978141
    12812.299800       0.977053
    12828.736400       0.975944
    12845.215200       0.974814
    12861.736300       0.973664
    12878.300100       0.972494
    12894.906500       0.971304
    12911.555800       0.970096
    12928.248200       0.968868
    12944.983800       0.967623
    12961.762800       0.966359
    12978.585300       0.965078
    12995.451600       0.963781
    13012.361700       0.962467
    13029.316000       0.961137
    13046.314400       0.959791
    13063.357300       0.958430
    13080.444700       0.957054
    13097.576900       0.955664
    13114.754100       0.954261
    13131.976400       0.952843
    13149.243900       0.951413
    13166.556900       0.949971
    13183.915600       0.948516
    13201.320100       0.947050
    13218.770700       0.945573
    13236.267400       0.944085
    13253.810500       0.942587
    13271.400100       0.941079
    13289.036500       0.939562
    13306.719900       0.938036
    13324.450400       0.936501
    13342.228200       0.934959
    13360.053400       0.933409
    13377.926400       0.931852
    13395.847300       0.930288
    13413.816200       0.928719
    13431.833400       0.927143
    13449.899100       0.925563
    13468.013500       0.923977
    13486.176700       0.922387
    13504.388900       0.920793
    13522.650400       0.919196
    13540.961400       0.917596
    13559.322000       0.915993
    13577.732500       0.914388
    13596.193100       0.912781
    13614.703900       0.911173
    13633.265200       0.909565
    13651.877100       0.907955
    13670.540000       0.906346
    13689.253900       0.904737
    13708.019200       0.903130
    13726.836000       0.901523
    13745.704500       0.899918
    13764.624900       0.898316
    13783.597500       0.896715
    13802.622500       0.895118
    13821.700100       0.893524
    13840.830400       0.891934
    13860.013900       0.890349
    13879.250500       0.888767
    13898.540700       0.887191
    13917.884500       0.885620
    13937.282200       0.884055
    13956.734100       0.882496
    13976.240400       0.880944
    13995.801300       0.879398
    14015.417000       0.877860
    14035.087700       0.876329
    14054.813800       0.874807
    14074.595400       0.873292
    14094.432700       0.871787
    14114.326000       0.870290
    14134.275600       0.868803
    14154.281700       0.867326
    14174.344400       0.865859
    14194.464200       0.864402
    14214.641100       0.862956
    14234.875400       0.861522
    14255.167500       0.860098
    14275.517500       0.858686
    14295.925700       0.857287
    14316.392300       0.855899
    14336.917600       0.854524
    14357.501800       0.853163
    14378.145200       0.851814
    14398.848100       0.850479
    14419.610700       0.849157
    14440.433200       0.847850
    14461.316000       0.846557
    14482.259200       0.845278
    14503.263200       0.844014
    14524.328200       0.842765
    14545.454500       0.841531
    14566.642400       0.840313
    14587.892000       0.839111
    14609.203800       0.837924
    14630.577900       0.836753
    14652.014700       0.835599
    14673.514300       0.834461
    14695.077100       0.833340
    14716.703500       0.832236
    14738.393500       0.831149
    14760.147600       0.830079
    14781.966000       0.829026
    14803.849000       0.827991
    14825.796900       0.826974
    14847.809900       0.825974
    14869.888500       0.824992
    14892.032800       0.824028
    14914.243100       0.823083
    14936.519800       0.822155
    14958.863100       0.821246
    14981.273400       0.820355
    15003.750900       0.819483
    15026.296000       0.818630
    15048.909000       0.817795
    15071.590100       0.816978
    15094.339600       0.816181
    15117.158000       0.815402
    15140.045400       0.814642
    15163.002300       0.813901
    15186.028900       0.813179
    15209.125500       0.812475
    15232.292500       0.811791
    15255.530100       0.811125
    15278.838800       0.810478
    15302.218800       0.809850
    15325.670500       0.809240
    15349.194200       0.808649
    15372.790200       0.808077
    15396.458800       0.807523
    15420.200500       0.806988
    15444.015400       0.806472
    15467.904100       0.805973
    15491.866800       0.805493
    15515.903800       0.805031
    15540.015500       0.804587
    15564.202300       0.804161
    15588.464500       0.803752
    15612.802500       0.803361
    15637.216600       0.802988
    15661.707100       0.802631
    15686.274500       0.802292
    15710.919100       0.801970
    15735.641200       0.801664
    15760.441300       0.801375
    15785.319700       0.801103
    15810.276700       0.800846
    15835.312700       0.800605
    15860.428200       0.800380
    15885.623500       0.800170
    15910.899000       0.799975
    15936.255000       0.799796
    15961.691900       0.799630
    15987.210200       0.799479
    16012.810200       0.799342
    16038.492400       0.799219
    16064.257000       0.799109
    16090.104600       0.799013
    16116.035500       0.798929
    16142.050000       0.798857
    16168.148700       0.798797
    16194.332000       0.798750
    16220.600200       0.798713
    16246.953700       0.798688
    16273.393000       0.798673
    16299.918500       0.798668
    16326.530600       0.798673
    16353.229800       0.798688
    16380.016400       0.798712
    16406.890900       0.798744
    16433.853700       0.798784
    16460.905300       0.798832
    16488.046200       0.798887
    16515.276600       0.798949
    16542.597200       0.799018
    16570.008300       0.799092
    16597.510400       0.799171
    16625.103900       0.799256
    16652.789300       0.799345
    16680.567100       0.799437
    16708.437800       0.799533
    16736.401700       0.799632
    16764.459300       0.799734
    16792.611300       0.799837
    16820.857900       0.799941
    16849.199700       0.800046
    16877.637100       0.800151
    16906.170800       0.800255
    16934.801000       0.800359
    16963.528400       0.800461
    16992.353400       0.800560
    17021.276600       0.800657
    17050.298400       0.800751
    17079.419300       0.800841
    17108.639900       0.800926
    17137.960600       0.801005
    17167.382000       0.801079
    17196.904600       0.801147
    17226.528900       0.801207
    17256.255400       0.801259
    17286.084700       0.801303
    17316.017300       0.801338
    17346.053800       0.801364
    17376.194600       0.801379
    17406.440400       0.801382
    17436.791600       0.801375
    17467.248900       0.801354
    17497.812800       0.801321
    17528.483800       0.801273
    17559.262500       0.801211
    17590.149500       0.801134
    17621.145400       0.801042
    17652.250700       0.800932
    17683.466000       0.800805
    17714.791900       0.800660
    17746.228900       0.800496
    17777.777800       0.800313
    17809.439000       0.800110
    17841.213200       0.799886
    17873.101000       0.799639
    17905.103000       0.799371
    17937.219700       0.799080
    17969.451900       0.798764
    18001.800200       0.798424
    18034.265100       0.798059
    18066.847300       0.797667
    18099.547500       0.797249
    18132.366300       0.796803
    18165.304300       0.796329
    18198.362100       0.795826
    18231.540600       0.795292
    18264.840200       0.794729
    18298.261700       0.794134
    18331.805700       0.793507
    18365.472900       0.792847
    18399.264000       0.792153
    18433.179700       0.791426
    18467.220700       0.790663
    18501.387600       0.789864
    18535.681200       0.789029
    18570.102100       0.788157
    18604.651200       0.787247
    18639.329000       0.786298
    18674.136300       0.785309
    18709.073900       0.784281
    18744.142500       0.783211
    18779.342700       0.782100
    18814.675400       0.780946
    18850.141400       0.779750
    18885.741300       0.778509
    18921.475900       0.777225
    18957.346000       0.775895
    18993.352300       0.774519
    19029.495700       0.773097
    19065.776900       0.771627
    19102.196800       0.770110
    19138.756000       0.768543
    19175.455400       0.766928
    19212.295900       0.765263
    19249.278200       0.763547
    19286.403100       0.761781
    19323.671500       0.759962
    19361.084200       0.758091
    19398.642100       0.756167
    19436.346000       0.754189
    19474.196700       0.752157
    19512.195100       0.750070
    19550.342100       0.747928
    19588.638600       0.745730
    19627.085400       0.743475
    19665.683400       0.741163
    19704.433500       0.738794
    19743.336600       0.736367
    19782.393700       0.733881
    19821.605600       0.731335
    19860.973200       0.728730
    19900.497500       0.726065
    19940.179500       0.723340
    19980.020000       0.720553
    20020.020000       0.717706
    20060.180500       0.714796
    20100.502500       0.711824
    20140.986900       0.708789
    20181.634700       0.705692
    20222.446900       0.702531
    20263.424500       0.699306
    20304.568500       0.696018
    20345.880000       0.692665
    20387.359800       0.689248
    20429.009200       0.685766
    20470.829100       0.682218
    20512.820500       0.678606
    20554.984600       0.674928
    20597.322300       0.671184
    20639.834900       0.667374
    20682.523300       0.663499
    20725.388600       0.659557
    20768.432000       0.655549
    20811.654500       0.651475
    20855.057400       0.647334
    20898.641600       0.643127
    20942.408400       0.638854
    20986.358900       0.634514
    21030.494200       0.630108
    21074.815600       0.625635
    21119.324200       0.621096
    21164.021200       0.616491
    21208.907700       0.611820
    21253.985100       0.607084
    21299.254500       0.602281
    21344.717200       0.597413
    21390.374300       0.592480
    21436.227200       0.587483
    21482.277100       0.582420
    21528.525300       0.577294
    21574.973000       0.572103
    21621.621600       0.566849
    21668.472400       0.561532
    21715.526600       0.556152
    21762.785600       0.550710
    21810.250800       0.545207
    21857.923500       0.539642
    21905.805000       0.534017
    21953.896800       0.528332
    22002.200200       0.522588
    22050.716600       0.516785
    22099.447500       0.510925
    22148.394200       0.505007
    22197.558300       0.499033
    22246.941000       0.493004
    22296.544000       0.486920
    22346.368700       0.480783
    22396.416600       0.474593
    22446.689100       0.468351
    22497.187900       0.462059
    22547.914300       0.455717
    22598.870100       0.449326
    22650.056600       0.442888
    22701.475600       0.436404
    22753.128600       0.429874
    22805.017100       0.423301
    22857.142900       0.416686
    22909.507400       0.410030
    22962.112500       0.403334
    23014.959700       0.396600
    23068.050700       0.389829
    23121.387300       0.383023
    23174.971000       0.376183
    23228.803700       0.369312
    23282.887100       0.362410
    23337.222900       0.355479
    23391.812900       0.348522
    23446.658900       0.341540
    23501.762600       0.334535
    23557.126000       0.327509
    23612.750900       0.320463
    23668.639100       0.313401
    23724.792400       0.306323
    23781.212800       0.299232
    23837.902300       0.292131
    23894.862600       0.285021
    23952.095800       0.277905
    24009.603800       0.270785
    24067.388700       0.263663
    24125.452400       0.256543
    24183.796900       0.249426
    24242.424200       0.242314
    24301.336600       0.235212
    24360.535900       0.228121
    24420.024400       0.221044
    24479.804200       0.213984
    24539.877300       0.206944
    24600.246000       0.199926
    24660.912500       0.192934
    24721.878900       0.185971
    24783.147500       0.179040
    24844.720500       0.172144
    24906.600200       0.165285
    24968.789000       0.158469
    25031.289100       0.151697
    25094.102900       0.144974
    25157.232700       0.138303
    25220.681000       0.131687
    25284.450100       0.125130
    25348.542500       0.118635
    25412.960600       0.112208
    25477.707000       0.105850
