4,   4, MVIRI VIS channel from srf_MET3_1989123_1989124_1801-Release_S10EE_10.dat
Number of data points:
743
Wavenumber (cm-1)   Filter response
     8814.455700       0.000000
     8822.232000       0.000000
     8830.022100       0.000699
     8837.825900       0.002932
     8845.643500       0.005185
     8853.475000       0.007456
     8861.320300       0.009744
     8869.179600       0.012048
     8877.052800       0.014368
     8884.940000       0.016701
     8892.841300       0.019047
     8900.756600       0.021406
     8908.686000       0.023775
     8916.629500       0.026155
     8924.587200       0.028545
     8932.559200       0.030943
     8940.545400       0.033351
     8948.545900       0.035765
     8956.560700       0.038187
     8964.589900       0.040616
     8972.633500       0.043050
     8980.691500       0.045491
     8988.764000       0.047937
     8996.851100       0.050387
     9004.952700       0.052843
     9013.068900       0.055302
     9021.199800       0.057766
     9029.345400       0.060233
     9037.505600       0.062704
     9045.680700       0.065178
     9053.870500       0.067655
     9062.075200       0.070136
     9070.294800       0.072620
     9078.529300       0.075106
     9086.778700       0.077596
     9095.043200       0.080089
     9103.322700       0.082584
     9111.617300       0.085082
     9119.927000       0.087583
     9128.251900       0.090087
     9136.592100       0.092594
     9144.947400       0.095104
     9153.318100       0.097618
     9161.704100       0.100135
     9170.105500       0.102656
     9178.522300       0.105180
     9186.954500       0.107708
     9195.402300       0.110240
     9203.865600       0.112777
     9212.344500       0.115318
     9220.839100       0.117864
     9229.349300       0.120414
     9237.875300       0.122970
     9246.417000       0.125531
     9254.974500       0.128098
     9263.547900       0.130671
     9272.137200       0.133249
     9280.742500       0.135835
     9289.363700       0.138427
     9298.000900       0.141026
     9306.654300       0.143633
     9315.323700       0.146246
     9324.009300       0.148868
     9332.711200       0.151498
     9341.429200       0.154137
     9350.163600       0.156784
     9358.914400       0.159440
     9367.681500       0.162106
     9376.465100       0.164781
     9385.265100       0.167467
     9394.081700       0.170162
     9402.914900       0.172868
     9411.764700       0.175586
     9420.631200       0.178314
     9429.514400       0.181053
     9438.414300       0.183805
     9447.331100       0.186568
     9456.264800       0.189344
     9465.215300       0.192133
     9474.182900       0.194934
     9483.167400       0.197749
     9492.169000       0.200576
     9501.187600       0.203418
     9510.223500       0.206274
     9519.276500       0.209143
     9528.346800       0.212028
     9537.434400       0.214927
     9546.539400       0.217840
     9555.661700       0.220770
     9564.801500       0.223714
     9573.958800       0.226674
     9583.133700       0.229650
     9592.326100       0.232642
     9601.536200       0.235650
     9610.764100       0.238675
     9620.009600       0.241716
     9629.273000       0.244774
     9638.554200       0.247849
     9647.853400       0.250941
     9657.170400       0.254050
     9666.505600       0.257177
     9675.858700       0.260321
     9685.230000       0.263483
     9694.619500       0.266662
     9704.027200       0.269860
     9713.453100       0.273075
     9722.897400       0.276309
     9732.360100       0.279560
     9741.841200       0.282831
     9751.340800       0.286119
     9760.859000       0.289425
     9770.395700       0.292750
     9779.951100       0.296094
     9789.525200       0.299456
     9799.118100       0.302836
     9808.729800       0.306235
     9818.360300       0.309653
     9828.009800       0.313088
     9837.678300       0.316543
     9847.365800       0.320016
     9857.072400       0.323507
     9866.798200       0.327017
     9876.543200       0.330545
     9886.307500       0.334091
     9896.091000       0.337656
     9905.894000       0.341238
     9915.716400       0.344839
     9925.558300       0.348457
     9935.419800       0.352094
     9945.300800       0.355748
     9955.201600       0.359420
     9965.122100       0.363109
     9975.062300       0.366815
     9985.022500       0.370539
     9995.002500       0.374280
    10005.002500       0.378038
    10015.022500       0.381812
    10025.062700       0.385603
    10035.122900       0.389410
    10045.203400       0.393233
    10055.304200       0.397072
    10065.425300       0.400927
    10075.566800       0.404797
    10085.728700       0.408682
    10095.911200       0.412583
    10106.114200       0.416498
    10116.337900       0.420428
    10126.582300       0.424372
    10136.847400       0.428330
    10147.133400       0.432302
    10157.440300       0.436287
    10167.768200       0.440286
    10178.117000       0.444297
    10188.487000       0.448320
    10198.878100       0.452357
    10209.290500       0.456405
    10219.724100       0.460464
    10230.179000       0.464535
    10240.655400       0.468617
    10251.153300       0.472709
    10261.672700       0.476812
    10272.213700       0.480924
    10282.776300       0.485047
    10293.360800       0.489178
    10303.967000       0.493318
    10314.595200       0.497467
    10325.245200       0.501624
    10335.917300       0.505789
    10346.611500       0.509961
    10357.327800       0.514140
    10368.066400       0.518325
    10378.827200       0.522517
    10389.610400       0.526714
    10400.416000       0.530917
    10411.244100       0.535125
    10422.094800       0.539337
    10432.968200       0.543553
    10443.864200       0.547774
    10454.783100       0.551997
    10465.724800       0.556223
    10476.689400       0.560452
    10487.677000       0.564683
    10498.687700       0.568915
    10509.721500       0.573149
    10520.778500       0.577383
    10531.858900       0.581617
    10542.962600       0.585852
    10554.089700       0.590085
    10565.240400       0.594318
    10576.414600       0.598549
    10587.612500       0.602778
    10598.834100       0.607005
    10610.079600       0.611228
    10621.348900       0.615449
    10632.642200       0.619665
    10643.959600       0.623878
    10655.301000       0.628086
    10666.666700       0.632288
    10678.056600       0.636485
    10689.470900       0.640676
    10700.909600       0.644860
    10712.372800       0.649038
    10723.860600       0.653208
    10735.373100       0.657370
    10746.910300       0.661523
    10758.472300       0.665668
    10770.059200       0.669804
    10781.671200       0.673930
    10793.308100       0.678045
    10804.970300       0.682151
    10816.657700       0.686245
    10828.370300       0.690327
    10840.108400       0.694398
    10851.871900       0.698456
    10863.661100       0.702501
    10875.475800       0.706533
    10887.316300       0.710551
    10899.182600       0.714555
    10911.074700       0.718545
    10922.992900       0.722519
    10934.937100       0.726477
    10946.907500       0.730420
    10958.904100       0.734347
    10970.927000       0.738256
    10982.976400       0.742149
    10995.052200       0.746024
    11007.154700       0.749880
    11019.283700       0.753719
    11031.439600       0.757538
    11043.622300       0.761338
    11055.832000       0.765119
    11068.068600       0.768879
    11080.332400       0.772619
    11092.623400       0.776338
    11104.941700       0.780035
    11117.287400       0.783711
    11129.660500       0.787365
    11142.061300       0.790997
    11154.489700       0.794605
    11166.945800       0.798191
    11179.429800       0.801752
    11191.941800       0.805291
    11204.481800       0.808804
    11217.049900       0.812293
    11229.646300       0.815757
    11242.270900       0.819196
    11254.924000       0.822609
    11267.605600       0.825997
    11280.315800       0.829357
    11293.054800       0.832691
    11305.822500       0.835999
    11318.619100       0.839279
    11331.444800       0.842531
    11344.299500       0.845755
    11357.183400       0.848951
    11370.096600       0.852119
    11383.039300       0.855258
    11396.011400       0.858368
    11409.013100       0.861448
    11422.044500       0.864499
    11435.105800       0.867520
    11448.196900       0.870510
    11461.318100       0.873471
    11474.469300       0.876400
    11487.650800       0.879299
    11500.862600       0.882166
    11514.104800       0.885002
    11527.377500       0.887807
    11540.680900       0.890579
    11554.015000       0.893320
    11567.380000       0.896028
    11580.775900       0.898703
    11594.202900       0.901346
    11607.661100       0.903956
    11621.150500       0.906533
    11634.671300       0.909077
    11648.223600       0.911587
    11661.807600       0.914064
    11675.423200       0.916507
    11689.070700       0.918916
    11702.750100       0.921290
    11716.461600       0.923631
    11730.205300       0.925937
    11743.981200       0.928209
    11757.789500       0.930446
    11771.630400       0.932648
    11785.503800       0.934815
    11799.410000       0.936947
    11813.349100       0.939044
    11827.321100       0.941106
    11841.326200       0.943133
    11855.364600       0.945124
    11869.436200       0.947079
    11883.541300       0.949000
    11897.680000       0.950884
    11911.852300       0.952733
    11926.058400       0.954546
    11940.298500       0.956323
    11954.572600       0.958064
    11968.880900       0.959770
    11983.223500       0.961439
    11997.600500       0.963073
    12012.012000       0.964670
    12026.458200       0.966232
    12040.939200       0.967757
    12055.455100       0.969247
    12070.006000       0.970700
    12084.592100       0.972118
    12099.213600       0.973499
    12113.870400       0.974844
    12128.562800       0.976154
    12143.290800       0.977427
    12158.054700       0.978665
    12172.854500       0.979867
    12187.690400       0.981033
    12202.562500       0.982163
    12217.471000       0.983257
    12232.415900       0.984316
    12247.397400       0.985339
    12262.415700       0.986327
    12277.470800       0.987279
    12292.563000       0.988196
    12307.692300       0.989077
    12322.858900       0.989923
    12338.062900       0.990734
    12353.304500       0.991511
    12368.583800       0.992252
    12383.900900       0.992958
    12399.256000       0.993630
    12414.649300       0.994267
    12430.080800       0.994870
    12445.550700       0.995439
    12461.059200       0.995973
    12476.606400       0.996473
    12492.192400       0.996940
    12507.817400       0.997372
    12523.481500       0.997771
    12539.185000       0.998137
    12554.927800       0.998469
    12570.710200       0.998769
    12586.532400       0.999035
    12602.394500       0.999268
    12618.296500       0.999469
    12634.238800       0.999638
    12650.221400       0.999774
    12666.244500       0.999878
    12682.308200       0.999950
    12698.412700       0.999991
    12714.558200       1.000000
    12730.744700       0.999978
    12746.972600       0.999925
    12763.241900       0.999840
    12779.552700       0.999726
    12795.905300       0.999580
    12812.299800       0.999405
    12828.736400       0.999200
    12845.215200       0.998964
    12861.736300       0.998699
    12878.300100       0.998405
    12894.906500       0.998082
    12911.555800       0.997730
    12928.248200       0.997349
    12944.983800       0.996940
    12961.762800       0.996503
    12978.585300       0.996037
    12995.451600       0.995544
    13012.361700       0.995024
    13029.316000       0.994476
    13046.314400       0.993902
    13063.357300       0.993301
    13080.444700       0.992673
    13097.576900       0.992019
    13114.754100       0.991340
    13131.976400       0.990635
    13149.243900       0.989904
    13166.556900       0.989148
    13183.915600       0.988367
    13201.320100       0.987562
    13218.770700       0.986733
    13236.267400       0.985879
    13253.810500       0.985001
    13271.400100       0.984100
    13289.036500       0.983176
    13306.719900       0.982229
    13324.450400       0.981259
    13342.228200       0.980267
    13360.053400       0.979252
    13377.926400       0.978216
    13395.847300       0.977158
    13413.816200       0.976078
    13431.833400       0.974978
    13449.899100       0.973857
    13468.013500       0.972715
    13486.176700       0.971553
    13504.388900       0.970371
    13522.650400       0.969169
    13540.961400       0.967948
    13559.322000       0.966708
    13577.732500       0.965449
    13596.193100       0.964171
    13614.703900       0.962876
    13633.265200       0.961562
    13651.877100       0.960230
    13670.540000       0.958880
    13689.253900       0.957514
    13708.019200       0.956130
    13726.836000       0.954730
    13745.704500       0.953314
    13764.624900       0.951881
    13783.597500       0.950432
    13802.622500       0.948968
    13821.700100       0.947488
    13840.830400       0.945994
    13860.013900       0.944484
    13879.250500       0.942960
    13898.540700       0.941422
    13917.884500       0.939869
    13937.282200       0.938303
    13956.734100       0.936723
    13976.240400       0.935130
    13995.801300       0.933523
    14015.417000       0.931904
    14035.087700       0.930273
    14054.813800       0.928629
    14074.595400       0.926973
    14094.432700       0.925305
    14114.326000       0.923626
    14134.275600       0.921935
    14154.281700       0.920233
    14174.344400       0.918520
    14194.464200       0.916797
    14214.641100       0.915063
    14234.875400       0.913319
    14255.167500       0.911565
    14275.517500       0.909801
    14295.925700       0.908027
    14316.392300       0.906244
    14336.917600       0.904452
    14357.501800       0.902652
    14378.145200       0.900842
    14398.848100       0.899024
    14419.610700       0.897198
    14440.433200       0.895363
    14461.316000       0.893521
    14482.259200       0.891670
    14503.263200       0.889813
    14524.328200       0.887948
    14545.454500       0.886075
    14566.642400       0.884196
    14587.892000       0.882310
    14609.203800       0.880417
    14630.577900       0.878518
    14652.014700       0.876612
    14673.514300       0.874700
    14695.077100       0.872783
    14716.703500       0.870859
    14738.393500       0.868930
    14760.147600       0.866995
    14781.966000       0.865055
    14803.849000       0.863109
    14825.796900       0.861159
    14847.809900       0.859203
    14869.888500       0.857243
    14892.032800       0.855278
    14914.243100       0.853308
    14936.519800       0.851334
    14958.863100       0.849355
    14981.273400       0.847372
    15003.750900       0.845385
    15026.296000       0.843394
    15048.909000       0.841400
    15071.590100       0.839401
    15094.339600       0.837399
    15117.158000       0.835392
    15140.045400       0.833383
    15163.002300       0.831370
    15186.028900       0.829353
    15209.125500       0.827334
    15232.292500       0.825311
    15255.530100       0.823285
    15278.838800       0.821256
    15302.218800       0.819224
    15325.670500       0.817188
    15349.194200       0.815150
    15372.790200       0.813110
    15396.458800       0.811066
    15420.200500       0.809020
    15444.015400       0.806970
    15467.904100       0.804919
    15491.866800       0.802864
    15515.903800       0.800807
    15540.015500       0.798748
    15564.202300       0.796686
    15588.464500       0.794621
    15612.802500       0.792554
    15637.216600       0.790485
    15661.707100       0.788413
    15686.274500       0.786338
    15710.919100       0.784261
    15735.641200       0.782182
    15760.441300       0.780100
    15785.319700       0.778015
    15810.276700       0.775929
    15835.312700       0.773839
    15860.428200       0.771748
    15885.623500       0.769653
    15910.899000       0.767557
    15936.255000       0.765457
    15961.691900       0.763355
    15987.210200       0.761251
    16012.810200       0.759144
    16038.492400       0.757034
    16064.257000       0.754921
    16090.104600       0.752806
    16116.035500       0.750688
    16142.050000       0.748567
    16168.148700       0.746443
    16194.332000       0.744317
    16220.600200       0.742187
    16246.953700       0.740054
    16273.393000       0.737918
    16299.918500       0.735779
    16326.530600       0.733637
    16353.229800       0.731492
    16380.016400       0.729343
    16406.890900       0.727190
    16433.853700       0.725035
    16460.905300       0.722875
    16488.046200       0.720712
    16515.276600       0.718546
    16542.597200       0.716375
    16570.008300       0.714201
    16597.510400       0.712023
    16625.103900       0.709840
    16652.789300       0.707654
    16680.567100       0.705463
    16708.437800       0.703268
    16736.401700       0.701069
    16764.459300       0.698865
    16792.611300       0.696656
    16820.857900       0.694443
    16849.199700       0.692225
    16877.637100       0.690002
    16906.170800       0.687775
    16934.801000       0.685542
    16963.528400       0.683304
    16992.353400       0.681061
    17021.276600       0.678812
    17050.298400       0.676558
    17079.419300       0.674299
    17108.639900       0.672033
    17137.960600       0.669762
    17167.382000       0.667485
    17196.904600       0.665203
    17226.528900       0.662914
    17256.255400       0.660619
    17286.084700       0.658317
    17316.017300       0.656010
    17346.053800       0.653695
    17376.194600       0.651375
    17406.440400       0.649047
    17436.791600       0.646713
    17467.248900       0.644372
    17497.812800       0.642024
    17528.483800       0.639668
    17559.262500       0.637306
    17590.149500       0.634936
    17621.145400       0.632559
    17652.250700       0.630174
    17683.466000       0.627782
    17714.791900       0.625382
    17746.228900       0.622975
    17777.777800       0.620559
    17809.439000       0.618136
    17841.213200       0.615704
    17873.101000       0.613265
    17905.103000       0.610817
    17937.219700       0.608361
    17969.451900       0.605896
    18001.800200       0.603423
    18034.265100       0.600942
    18066.847300       0.598451
    18099.547500       0.595953
    18132.366300       0.593445
    18165.304300       0.590928
    18198.362100       0.588403
    18231.540600       0.585869
    18264.840200       0.583325
    18298.261700       0.580773
    18331.805700       0.578211
    18365.472900       0.575640
    18399.264000       0.573060
    18433.179700       0.570470
    18467.220700       0.567871
    18501.387600       0.565263
    18535.681200       0.562645
    18570.102100       0.560018
    18604.651200       0.557381
    18639.329000       0.554734
    18674.136300       0.552078
    18709.073900       0.549413
    18744.142500       0.546738
    18779.342700       0.544053
    18814.675400       0.541358
    18850.141400       0.538654
    18885.741300       0.535940
    18921.475900       0.533216
    18957.346000       0.530483
    18993.352300       0.527740
    19029.495700       0.524987
    19065.776900       0.522225
    19102.196800       0.519453
    19138.756000       0.516671
    19175.455400       0.513879
    19212.295900       0.511079
    19249.278200       0.508268
    19286.403100       0.505448
    19323.671500       0.502619
    19361.084200       0.499780
    19398.642100       0.496932
    19436.346000       0.494074
    19474.196700       0.491207
    19512.195100       0.488331
    19550.342100       0.485446
    19588.638600       0.482552
    19627.085400       0.479649
    19665.683400       0.476737
    19704.433500       0.473816
    19743.336600       0.470886
    19782.393700       0.467948
    19821.605600       0.465001
    19860.973200       0.462046
    19900.497500       0.459083
    19940.179500       0.456112
    19980.020000       0.453132
    20020.020000       0.450145
    20060.180500       0.447149
    20100.502500       0.444147
    20140.986900       0.441136
    20181.634700       0.438118
    20222.446900       0.435094
    20263.424500       0.432062
    20304.568500       0.429023
    20345.880000       0.425977
    20387.359800       0.422925
    20429.009200       0.419866
    20470.829100       0.416802
    20512.820500       0.413731
    20554.984600       0.410655
    20597.322300       0.407573
    20639.834900       0.404485
    20682.523300       0.401393
    20725.388600       0.398295
    20768.432000       0.395193
    20811.654500       0.392086
    20855.057400       0.388974
    20898.641600       0.385859
    20942.408400       0.382740
    20986.358900       0.379617
    21030.494200       0.376491
    21074.815600       0.373362
    21119.324200       0.370230
    21164.021200       0.367095
    21208.907700       0.363958
    21253.985100       0.360819
    21299.254500       0.357678
    21344.717200       0.354535
    21390.374300       0.351392
    21436.227200       0.348247
    21482.277100       0.345102
    21528.525300       0.341956
    21574.973000       0.338811
    21621.621600       0.335665
    21668.472400       0.332520
    21715.526600       0.329376
    21762.785600       0.326233
    21810.250800       0.323091
    21857.923500       0.319952
    21905.805000       0.316814
    21953.896800       0.313679
    22002.200200       0.310546
    22050.716600       0.307417
    22099.447500       0.304290
    22148.394200       0.301168
    22197.558300       0.298050
    22246.941000       0.294936
    22296.544000       0.291827
    22346.368700       0.288722
    22396.416600       0.285624
    22446.689100       0.282531
    22497.187900       0.279444
    22547.914300       0.276364
    22598.870100       0.273290
    22650.056600       0.270223
    22701.475600       0.267164
    22753.128600       0.264113
    22805.017100       0.261070
    22857.142900       0.258036
    22909.507400       0.255010
    22962.112500       0.251994
    23014.959700       0.248987
    23068.050700       0.245990
    23121.387300       0.243004
    23174.971000       0.240028
    23228.803700       0.237063
    23282.887100       0.234109
    23337.222900       0.231167
    23391.812900       0.228237
    23446.658900       0.225319
    23501.762600       0.222414
    23557.126000       0.219522
    23612.750900       0.216643
    23668.639100       0.213777
    23724.792400       0.210926
    23781.212800       0.208089
    23837.902300       0.205266
    23894.862600       0.202458
    23952.095800       0.199666
    24009.603800       0.196888
    24067.388700       0.194127
    24125.452400       0.191381
    24183.796900       0.188652
    24242.424200       0.185940
    24301.336600       0.183244
    24360.535900       0.180565
    24420.024400       0.177903
    24479.804200       0.175260
    24539.877300       0.172633
    24600.246000       0.170025
    24660.912500       0.167435
    24721.878900       0.164864
    24783.147500       0.162311
    24844.720500       0.159777
    24906.600200       0.157262
    24968.789000       0.154766
    25031.289100       0.152289
    25094.102900       0.149831
    25157.232700       0.147394
    25220.681000       0.144975
    25284.450100       0.142577
    25348.542500       0.140198
    25412.960600       0.137840
    25477.707000       0.135501
