          22  , Jan 12th 2012 http://fy3.satellite.cma.gov.cn/ArssEn/Download/FY3A_calibration_info_params.rar
Number of data points:
111
Wavenumber (cm-1)   Filter response
    10615.710000       0.000269
    10626.990000       0.001610
    10638.300000       0.001871
    10649.630000       0.001757
    10660.980000       0.001194
    10672.360000       0.001228
    10683.760000       0.002345
    10695.190000       0.002097
    10706.640000       0.002864
    10718.110000       0.001884
    10729.610000       0.002426
    10741.140000       0.002559
    10752.690000       0.005208
    10764.260000       0.005536
    10775.860000       0.005964
    10787.490000       0.004699
    10799.140000       0.006826
    10810.810000       0.008050
    10822.510000       0.009936
    10834.240000       0.010772
    10845.990000       0.013365
    10857.760000       0.013970
    10869.570000       0.016787
    10881.390000       0.019921
    10893.250000       0.025105
    10905.130000       0.029538
    10917.030000       0.034838
    10928.960000       0.043611
    10940.920000       0.054076
    10952.900000       0.066487
    10964.910000       0.080519
    10976.950000       0.098604
    10989.010000       0.122696
    11001.100000       0.156305
    11013.220000       0.192516
    11025.360000       0.237233
    11037.530000       0.288459
    11049.720000       0.345382
    11061.950000       0.407016
    11074.200000       0.470445
    11086.470000       0.538775
    11098.780000       0.611594
    11111.110000       0.674093
    11123.470000       0.735094
    11135.860000       0.790061
    11148.270000       0.839628
    11160.710000       0.876082
    11173.180000       0.907775
    11185.680000       0.935364
    11198.210000       0.955183
    11210.760000       0.973313
    11223.340000       0.980851
    11235.960000       0.987880
    11248.590000       0.995807
    11261.260000       0.996852
    11273.960000       0.998072
    11286.680000       0.997757
    11299.440000       1.000000
    11312.220000       0.993946
    11325.030000       0.992084
    11337.870000       0.983691
    11350.740000       0.969200
    11363.640000       0.950288
    11376.560000       0.926402
    11389.520000       0.894277
    11402.510000       0.859553
    11415.530000       0.814536
    11428.570000       0.766208
    11441.650000       0.711211
    11454.750000       0.654456
    11467.890000       0.594068
    11481.060000       0.534882
    11494.250000       0.473892
    11507.480000       0.415393
    11520.740000       0.359740
    11534.030000       0.309100
    11547.340000       0.261440
    11560.690000       0.220690
    11574.070000       0.183072
    11587.490000       0.151421
    11600.930000       0.125456
    11614.400000       0.102455
    11627.910000       0.059618
    11641.440000       0.027434
    11655.010000       0.021040
    11668.610000       0.016409
    11682.240000       0.013132
    11695.910000       0.010490
    11709.600000       0.008381
    11723.330000       0.006791
    11737.090000       0.005702
    11750.880000       0.004661
    11764.710000       0.003870
    11778.560000       0.003360
    11792.450000       0.002832
    11806.380000       0.002558
    11820.330000       0.002257
    11834.320000       0.001773
    11848.340000       0.001330
    11862.400000       0.001138
    11876.480000       0.000926
    11890.610000       0.000815
    11904.760000       0.000698
    11918.950000       0.000370
    11933.170000       0.000181
    11947.430000       0.000327
    11961.720000       0.000480
    11976.050000       0.000328
    11990.410000       0.000149
    12004.800000       0.000098
    12019.230000       0.000028
