1, GCOM-C SGLI  IR channel 1 from file JAXA_GCOMC_SGLI_TIR_RSR_V5.csv
Number of data points:
661
Wavenumber (cm-1)   Filter response
      769.230800       0.000008
      769.526700       0.000009
      769.822900       0.000009
      770.119400       0.000009
      770.416000       0.000009
      770.712900       0.000009
      771.010000       0.000009
      771.307400       0.000009
      771.604900       0.000009
      771.902700       0.000009
      772.200800       0.000009
      772.499000       0.000010
      772.797500       0.000010
      773.096300       0.000010
      773.395200       0.000010
      773.694400       0.000010
      773.993800       0.000010
      774.293500       0.000010
      774.593300       0.000010
      774.893500       0.000011
      775.193800       0.000011
      775.494400       0.000011
      775.795200       0.000011
      776.096200       0.000011
      776.397500       0.000011
      776.699000       0.000011
      777.000800       0.000011
      777.302800       0.000012
      777.605000       0.000012
      777.907400       0.000012
      778.210100       0.000012
      778.513000       0.000012
      778.816200       0.000012
      779.119600       0.000012
      779.423200       0.000013
      779.727100       0.000013
      780.031200       0.000013
      780.335500       0.000013
      780.640100       0.000013
      780.944900       0.000013
      781.250000       0.000014
      781.555300       0.000014
      781.860800       0.000014
      782.166600       0.000014
      782.472600       0.000014
      782.778900       0.000014
      783.085400       0.000015
      783.392100       0.000015
      783.699100       0.000015
      784.006300       0.000015
      784.313700       0.000015
      784.621400       0.000016
      784.929400       0.000016
      785.237500       0.000016
      785.546000       0.000016
      785.854600       0.000016
      786.163500       0.000017
      786.472700       0.000017
      786.782100       0.000017
      787.091700       0.000017
      787.401600       0.000017
      787.711700       0.000018
      788.022100       0.000018
      788.332700       0.000018
      788.643500       0.000018
      788.954600       0.000019
      789.266000       0.000019
      789.577600       0.000019
      789.889400       0.000019
      790.201500       0.000019
      790.513800       0.000020
      790.826400       0.000020
      791.139200       0.000020
      791.452300       0.000020
      791.765600       0.000021
      792.079200       0.000021
      792.393000       0.000021
      792.707100       0.000022
      793.021400       0.000022
      793.336000       0.000022
      793.650800       0.000022
      793.965900       0.000023
      794.281200       0.000023
      794.596700       0.000023
      794.912600       0.000024
      795.228600       0.000024
      795.544900       0.000024
      795.861500       0.000025
      796.178300       0.000025
      796.495400       0.000025
      796.812700       0.000026
      797.130300       0.000026
      797.448200       0.000026
      797.766300       0.000027
      798.084600       0.000027
      798.403200       0.000027
      798.722000       0.000028
      799.041200       0.000028
      799.360500       0.000029
      799.680100       0.000029
      800.000000       0.000029
      800.320100       0.000030
      800.640500       0.000030
      800.961200       0.000031
      801.282100       0.000031
      801.603200       0.000032
      801.924600       0.000032
      802.246300       0.000033
      802.568200       0.000033
      802.890400       0.000034
      803.212900       0.000034
      803.535600       0.000035
      803.858500       0.000035
      804.181700       0.000036
      804.505200       0.000037
      804.829000       0.000037
      805.153000       0.000038
      805.477200       0.000038
      805.801800       0.000039
      806.126600       0.000040
      806.451600       0.000040
      806.776900       0.000041
      807.102500       0.000042
      807.428300       0.000042
      807.754400       0.000043
      808.080800       0.000044
      808.407400       0.000045
      808.734300       0.000045
      809.061500       0.000046
      809.388900       0.000047
      809.716600       0.000048
      810.044600       0.000048
      810.372800       0.000049
      810.701300       0.000050
      811.030000       0.000051
      811.359000       0.000052
      811.688300       0.000053
      812.017900       0.000054
      812.347700       0.000054
      812.677800       0.000055
      813.008100       0.000056
      813.338800       0.000057
      813.669700       0.000058
      814.000800       0.000059
      814.332200       0.000060
      814.664000       0.000062
      814.995900       0.000063
      815.328200       0.000064
      815.660700       0.000065
      815.993500       0.000066
      816.326500       0.000067
      816.659900       0.000069
      816.993500       0.000070
      817.327300       0.000071
      817.661500       0.000073
      817.995900       0.000074
      818.330600       0.000075
      818.665600       0.000077
      819.000800       0.000078
      819.336300       0.000080
      819.672100       0.000081
      820.008200       0.000083
      820.344500       0.000084
      820.681200       0.000086
      821.018100       0.000088
      821.355200       0.000089
      821.692700       0.000091
      822.030400       0.000093
      822.368400       0.000094
      822.706700       0.000096
      823.045300       0.000098
      823.384100       0.000100
      823.723200       0.000102
      824.062600       0.000104
      824.402300       0.000106
      824.742300       0.000108
      825.082500       0.000110
      825.423000       0.000112
      825.763800       0.000114
      826.104900       0.000117
      826.446300       0.000119
      826.787900       0.000121
      827.129900       0.000124
      827.472100       0.000126
      827.814600       0.000128
      828.157300       0.000131
      828.500400       0.000133
      828.843800       0.000136
      829.187400       0.000139
      829.531300       0.000141
      829.875500       0.000144
      830.220000       0.000147
      830.564800       0.000150
      830.909800       0.000153
      831.255200       0.000156
      831.600800       0.000159
      831.946800       0.000162
      832.293000       0.000166
      832.639500       0.000169
      832.986300       0.000173
      833.333300       0.000176
      833.680700       0.000181
      834.028400       0.000185
      834.376300       0.000189
      834.724500       0.000194
      835.073100       0.000199
      835.421900       0.000204
      835.771000       0.000209
      836.120400       0.000214
      836.470100       0.000219
      836.820100       0.000225
      837.170400       0.000231
      837.520900       0.000237
      837.871800       0.000243
      838.223000       0.000249
      838.574400       0.000256
      838.926200       0.000262
      839.278200       0.000270
      839.630600       0.000277
      839.983200       0.000284
      840.336100       0.000292
      840.689400       0.000301
      841.042900       0.000311
      841.396700       0.000320
      841.750800       0.000330
      842.105300       0.000341
      842.460000       0.000352
      842.815000       0.000363
      843.170300       0.000375
      843.525900       0.000387
      843.881900       0.000400
      844.238100       0.000413
      844.594600       0.000426
      844.951400       0.000441
      845.308500       0.000455
      845.666000       0.000471
      846.023700       0.000487
      846.381700       0.000503
      846.740100       0.000521
      847.098700       0.000539
      847.457600       0.000557
      847.816900       0.000576
      848.176400       0.000596
      848.536300       0.000617
      848.896400       0.000638
      849.256900       0.000661
      849.617700       0.000684
      849.978800       0.000708
      850.340100       0.000733
      850.701800       0.000760
      851.063800       0.000787
      851.426100       0.000816
      851.788800       0.000846
      852.151700       0.000878
      852.514900       0.000911
      852.878500       0.000945
      853.242300       0.000982
      853.606500       0.001072
      853.971000       0.001232
      854.335800       0.001457
      854.700900       0.001741
      855.066300       0.002077
      855.432000       0.002461
      855.798000       0.002885
      856.164400       0.003345
      856.531000       0.003834
      856.898000       0.004347
      857.265300       0.004877
      857.632900       0.005420
      858.000900       0.005968
      858.369100       0.006517
      858.737700       0.007060
      859.106500       0.007591
      859.475700       0.008105
      859.845200       0.008596
      860.215100       0.009058
      860.585200       0.009484
      860.955700       0.009871
      861.326400       0.010210
      861.697500       0.010487
      862.069000       0.010766
      862.440700       0.011034
      862.812800       0.011303
      863.185200       0.011572
      863.557900       0.011842
      863.930900       0.012113
      864.304200       0.012384
      864.677900       0.012655
      865.051900       0.012927
      865.426200       0.013315
      865.800900       0.013719
      866.175800       0.014124
      866.551100       0.014531
      866.926700       0.014938
      867.302700       0.015347
      867.679000       0.015757
      868.055600       0.016168
      868.432500       0.016582
      868.809700       0.016998
      869.187300       0.017582
      869.565200       0.018285
      869.943500       0.018988
      870.322000       0.019695
      870.700900       0.020405
      871.080100       0.021118
      871.459700       0.021833
      871.839600       0.022551
      872.219800       0.023271
      872.600300       0.023994
      872.981200       0.024904
      873.362400       0.026101
      873.744000       0.027302
      874.125900       0.028509
      874.508100       0.029721
      874.890600       0.030938
      875.273500       0.032160
      875.656700       0.033388
      876.040300       0.034619
      876.424200       0.035855
      876.808400       0.037362
      877.193000       0.039534
      877.577900       0.041693
      877.963100       0.043856
      878.348700       0.046023
      878.734600       0.048193
      879.120900       0.050368
      879.507500       0.052549
      879.894400       0.054736
      880.281700       0.056931
      880.669300       0.059635
      881.057300       0.063706
      881.445600       0.067791
      881.834200       0.071888
      882.223200       0.075997
      882.612500       0.080117
      883.002200       0.084248
      883.392200       0.088390
      883.782600       0.092542
      884.173300       0.096707
      884.564400       0.102060
      884.955800       0.109732
      885.347500       0.117352
      885.739600       0.124985
      886.132000       0.132631
      886.524800       0.140291
      886.918000       0.147965
      887.311400       0.155653
      887.705300       0.163355
      888.099500       0.171075
      888.494000       0.181794
      888.888900       0.195602
      889.284100       0.209442
      889.679700       0.223316
      890.075700       0.237220
      890.472000       0.251155
      890.868600       0.265115
      891.265600       0.279087
      891.663000       0.293073
      892.060700       0.307060
      892.458700       0.326051
      892.857100       0.346864
      893.255900       0.367607
      893.655000       0.388340
      894.054500       0.409089
      894.454400       0.429854
      894.854600       0.450647
      895.255100       0.471491
      895.656100       0.492387
      896.057300       0.513465
      896.459000       0.536744
      896.861000       0.560072
      897.263300       0.583425
      897.666100       0.606813
      898.069200       0.630192
      898.472600       0.653552
      898.876400       0.676888
      899.280600       0.700175
      899.685100       0.723413
      900.090000       0.744155
      900.495300       0.762028
      900.900900       0.779864
      901.306900       0.797478
      901.713300       0.815056
      902.120000       0.832623
      902.527100       0.850177
      902.934500       0.867729
      903.342400       0.885292
      903.750600       0.902865
      904.159100       0.911585
      904.568100       0.919917
      904.977400       0.928286
      905.387100       0.936703
      905.797100       0.945165
      906.207500       0.953674
      906.618300       0.962232
      907.029500       0.970833
      907.441000       0.979480
      907.852900       0.984500
      908.265200       0.986233
      908.677900       0.987991
      909.090900       0.989756
      909.504300       0.991576
      909.918100       0.993389
      910.332300       0.995182
      910.746800       0.996957
      911.161700       0.998686
      911.577000       1.000000
      911.992700       0.999520
      912.408800       0.998981
      912.825200       0.998400
      913.242000       0.997802
      913.659200       0.997179
      914.076800       0.996585
      914.494700       0.996026
      914.913100       0.995514
      915.331800       0.995082
      915.750900       0.995016
      916.170400       0.995019
      916.590300       0.995076
      917.010500       0.995110
      917.431200       0.995103
      917.852200       0.995172
      918.273600       0.995112
      918.695500       0.994940
      919.117600       0.994645
      919.540200       0.994340
      919.963200       0.993998
      920.386600       0.993586
      920.810300       0.993116
      921.234500       0.992653
      921.659000       0.992185
      922.083900       0.991740
      922.509200       0.991331
      922.934900       0.990940
      923.361000       0.990305
      923.787500       0.989505
      924.214400       0.988690
      924.641700       0.987865
      925.069400       0.987012
      925.497500       0.986124
      925.925900       0.985205
      926.354800       0.984331
      926.784100       0.983426
      927.213700       0.982131
      927.643800       0.980518
      928.074200       0.978893
      928.505100       0.977257
      928.936400       0.975615
      929.368000       0.973972
      929.800100       0.972328
      930.232600       0.970694
      930.665400       0.969067
      931.098700       0.967220
      931.532400       0.965226
      931.966400       0.963256
      932.400900       0.961315
      932.835800       0.959403
      933.271100       0.957528
      933.706800       0.955687
      934.142900       0.953885
      934.579400       0.952123
      935.016400       0.950369
      935.453700       0.948695
      935.891400       0.947044
      936.329600       0.945405
      936.768100       0.943778
      937.207100       0.942141
      937.646500       0.940498
      938.086300       0.938842
      938.526500       0.937168
      938.967100       0.936063
      939.408200       0.935021
      939.849600       0.933965
      940.291500       0.932894
      940.733800       0.931807
      941.176500       0.930693
      941.619600       0.929553
      942.063100       0.928378
      942.507100       0.927184
      942.951400       0.926103
      943.396200       0.924989
      943.841400       0.923885
      944.287100       0.922785
      944.733100       0.921684
      945.179600       0.920616
      945.626500       0.919583
      946.073800       0.918580
      946.521500       0.916558
      946.969700       0.913317
      947.418300       0.910073
      947.867300       0.906811
      948.316700       0.903483
      948.766600       0.900095
      949.216900       0.896611
      949.667600       0.893033
      950.118800       0.889372
      950.570300       0.880201
      951.022300       0.870112
      951.474800       0.860000
      951.927700       0.849890
      952.381000       0.839821
      952.834700       0.829783
      953.288800       0.819807
      953.743400       0.809886
      954.198500       0.797114
      954.653900       0.778418
      955.109800       0.759750
      955.566200       0.741107
      956.022900       0.722485
      956.480200       0.703873
      956.937800       0.685290
      957.395900       0.666747
      957.854400       0.648251
      958.313400       0.626062
      958.772800       0.603337
      959.232600       0.580691
      959.692900       0.558119
      960.153600       0.535597
      960.614800       0.513123
      961.076400       0.490676
      961.538500       0.468251
      962.001000       0.446999
      962.463900       0.427069
      962.927300       0.407163
      963.391100       0.387290
      963.855400       0.367450
      964.320200       0.347651
      964.785300       0.327887
      965.251000       0.308154
      965.717000       0.289188
      966.183600       0.275002
      966.650600       0.260827
      967.118000       0.246660
      967.585900       0.232499
      968.054200       0.218351
      968.523000       0.204216
      968.992200       0.190099
      969.461900       0.176001
      969.932100       0.166345
      970.402700       0.157359
      970.873800       0.148386
      971.345300       0.139430
      971.817300       0.130485
      972.289700       0.121549
      972.762600       0.112622
      973.236000       0.103705
      973.709800       0.097288
      974.184100       0.092087
      974.658900       0.086891
      975.134100       0.081702
      975.609800       0.076520
      976.085900       0.071348
      976.562500       0.066189
      977.039600       0.061045
      977.517100       0.057044
      977.995100       0.054020
      978.473600       0.051009
      978.952500       0.048011
      979.431900       0.045027
      979.911800       0.042054
      980.392200       0.039092
      980.873000       0.036138
      981.354300       0.033766
      981.836000       0.032048
      982.318300       0.030329
      982.801000       0.028611
      983.284200       0.026893
      983.767800       0.025175
      984.252000       0.023459
      984.736600       0.021745
      985.221700       0.020367
      985.707200       0.019374
      986.193300       0.018384
      986.679800       0.017396
      987.166800       0.016412
      987.654300       0.015430
      988.142300       0.014450
      988.630700       0.013473
      989.119700       0.012702
      989.609100       0.012120
      990.099000       0.011539
      990.589400       0.010961
      991.080300       0.010384
      991.571600       0.000104
      992.063500       0.000101
      992.555800       0.000098
      993.048700       0.000095
      993.542000       0.000092
      994.035800       0.000089
      994.530100       0.000086
      995.024900       0.000083
      995.520200       0.000081
      996.015900       0.000078
      996.512200       0.000076
      997.009000       0.000074
      997.506200       0.000072
      998.004000       0.000069
      998.502200       0.000067
      999.001000       0.000066
      999.500200       0.000064
     1000.000000       0.000062
     1000.500300       0.000060
     1001.001000       0.000058
     1001.502300       0.000057
     1002.004000       0.000326
     1002.506300       0.000298
     1003.009000       0.000273
     1003.512300       0.000250
     1004.016100       0.000229
     1004.520300       0.000210
     1005.025100       0.000193
     1005.530400       0.000177
     1006.036200       0.000162
     1006.542500       0.000149
     1007.049300       0.000137
     1007.556700       0.000125
     1008.064500       0.000115
     1008.572900       0.000106
     1009.081700       0.000098
     1009.591100       0.000090
     1010.101000       0.000083
     1010.611400       0.000076
     1011.122300       0.000070
     1011.633800       0.000065
     1012.145700       0.000060
     1012.658200       0.000055
     1013.171200       0.000051
     1013.684700       0.000047
     1014.198800       0.000044
     1014.713300       0.000040
     1015.228400       0.000037
     1015.744000       0.000035
     1016.260200       0.000032
     1016.776800       0.000030
     1017.294000       0.000028
     1017.811700       0.000026
     1018.329900       0.000024
     1018.848700       0.000022
     1019.368000       0.000020
     1019.887800       0.000019
     1020.408200       0.000018
     1020.929000       0.000016
     1021.450500       0.000015
     1021.972400       0.000014
     1022.494900       0.000013
     1023.017900       0.000012
     1023.541500       0.000012
     1024.065500       0.000011
     1024.590200       0.000010
     1025.115300       0.000009
     1025.641000       0.000009
     1026.167300       0.000008
     1026.694000       0.000008
     1027.221400       0.000007
     1027.749200       0.000007
     1028.277600       0.000006
     1028.806600       0.000006
     1029.336100       0.000006
     1029.866100       0.000005
     1030.396700       0.000005
     1030.927800       0.000005
