 3    ,AATSR Flight Model FPA #2 3.7um channel (AuSpace measuremets).
Number of data points:
250
Wavenumber (cm-1)   Filter response
     2176.018600       0.000020
     2178.989600       0.000020
     2181.968800       0.000020
     2184.956100       0.000010
     2187.951100       0.000020
     2190.954900       0.000020
     2193.966900       0.000020
     2196.987100       0.000020
     2200.015800       0.000010
     2203.052200       0.000010
     2206.097600       0.000010
     2209.151400       0.000010
     2212.213700       0.000010
     2215.284400       0.000000
     2218.363700       0.000000
     2221.451100       0.000000
     2224.547600       0.000000
     2227.652700       0.000000
     2230.766600       0.000000
     2233.889100       0.000010
     2237.020400       0.000030
     2240.159900       0.000060
     2243.308800       0.000070
     2246.466600       0.000090
     2249.633300       0.000120
     2252.808900       0.000120
     2255.993400       0.000150
     2259.186500       0.000160
     2262.389200       0.000170
     2265.600900       0.000170
     2268.821800       0.000170
     2272.051900       0.000150
     2275.291100       0.000180
     2278.539100       0.000270
     2281.796900       0.000400
     2285.064000       0.000510
     2288.340500       0.000570
     2291.626400       0.000630
     2294.921800       0.000700
     2298.226100       0.000750
     2301.540500       0.000770
     2304.864400       0.000850
     2308.198000       0.000820
     2311.541200       0.000870
     2314.894100       0.000800
     2318.256200       0.000620
     2321.628700       0.000650
     2325.011000       0.000610
     2328.403100       0.000580
     2331.805100       0.000700
     2335.217200       0.000770
     2338.638600       0.000890
     2342.070700       0.001100
     2345.512800       0.001400
     2348.965100       0.001500
     2352.427500       0.001370
     2355.899600       0.001350
     2359.382600       0.001100
     2362.875800       0.001240
     2366.379400       0.001510
     2369.893400       0.001480
     2373.417900       0.001780
     2376.952300       0.002180
     2380.497800       0.002550
     2384.053900       0.002740
     2387.620700       0.002870
     2391.198100       0.002900
     2394.786300       0.003080
     2398.384600       0.003310
     2401.994400       0.003430
     2405.615100       0.003510
     2409.246700       0.003780
     2412.889300       0.004340
     2416.542900       0.004640
     2420.207000       0.005110
     2423.882800       0.005570
     2427.569800       0.006120
     2431.268100       0.006830
     2434.977600       0.007570
     2438.698400       0.008300
     2442.430100       0.009240
     2446.173800       0.010260
     2449.929000       0.011530
     2453.695700       0.013130
     2457.474000       0.014740
     2461.264000       0.016500
     2465.065100       0.018680
     2468.878600       0.021610
     2472.703800       0.024270
     2476.541000       0.027330
     2480.390000       0.032090
     2484.251100       0.036420
     2488.123600       0.042870
     2492.008800       0.048570
     2495.906100       0.056680
     2499.815600       0.067360
     2503.737500       0.076920
     2507.671600       0.091470
     2511.617500       0.110070
     2515.576400       0.131140
     2519.547900       0.151610
     2523.531900       0.180020
     2527.528600       0.216340
     2531.537300       0.252790
     2535.559300       0.293970
     2539.594200       0.337810
     2543.641900       0.391170
     2547.702500       0.451690
     2551.776200       0.504870
     2555.862200       0.542530
     2559.962000       0.598290
     2564.075000       0.642470
     2568.201100       0.683680
     2572.340600       0.718120
     2576.493500       0.750750
     2580.659100       0.768980
     2584.838900       0.791540
     2589.032300       0.808070
     2593.239300       0.821480
     2597.459900       0.826770
     2601.694400       0.834330
     2605.942000       0.836360
     2610.204100       0.839130
     2614.480200       0.835610
     2618.770400       0.826030
     2623.074700       0.845330
     2627.393100       0.836100
     2631.725100       0.836800
     2636.072100       0.829170
     2640.433400       0.839500
     2644.809300       0.855070
     2649.199600       0.846250
     2653.604600       0.856990
     2658.023500       0.879210
     2662.457900       0.892700
     2666.907000       0.916890
     2671.371100       0.915090
     2675.850200       0.927210
     2680.344300       0.932640
     2684.852800       0.943720
     2689.377200       0.939700
     2693.916900       0.956270
     2698.471900       0.960790
     2703.042400       0.971020
     2707.628400       0.982730
     2712.229200       0.979570
     2716.846500       0.985040
     2721.479400       1.000000
     2726.128200       0.987860
     2730.793000       0.998740
     2735.473700       0.991130
     2740.169700       0.995170
     2744.882600       0.985770
     2749.611800       0.974040
     2754.357300       0.977250
     2759.119200       0.965130
     2763.896900       0.939790
     2768.691900       0.902120
     2773.503500       0.862880
     2778.331900       0.803590
     2783.177100       0.731960
     2788.039300       0.672480
     2792.917700       0.611010
     2797.814000       0.540050
     2802.727500       0.468770
     2807.658300       0.406360
     2812.606400       0.346680
     2817.572100       0.283810
     2822.554500       0.242760
     2827.555300       0.200110
     2832.573900       0.167200
     2837.610400       0.140030
     2842.664800       0.116700
     2847.737200       0.098620
     2852.826900       0.082750
     2857.935700       0.069830
     2863.062900       0.060620
     2868.208400       0.050610
     2873.372500       0.042900
     2878.555200       0.036560
     2883.755800       0.031910
     2888.976100       0.027710
     2894.215300       0.023820
     2899.473500       0.020640
     2904.750900       0.017930
     2910.047500       0.015460
     2915.362600       0.013260
     2920.698100       0.011400
     2926.053100       0.009730
     2931.427700       0.008420
     2936.822200       0.007220
     2942.236500       0.006100
     2947.670000       0.005500
     2953.124500       0.004490
     2958.599100       0.004100
     2964.094100       0.003480
     2969.609600       0.003060
     2975.145600       0.002790
     2980.701400       0.002530
     2986.278900       0.002080
     2991.877400       0.001960
     2997.496800       0.001740
     3003.137400       0.001730
     3008.798300       0.001520
     3014.481600       0.001430
     3020.186300       0.001340
     3025.912700       0.001290
     3031.660800       0.001060
     3037.430900       0.000790
     3043.222000       0.000570
     3049.036100       0.000450
     3054.872500       0.000470
     3060.731300       0.000440
     3066.612700       0.000400
     3072.516600       0.000330
     3078.442400       0.000240
     3084.392100       0.000220
     3090.364700       0.000190
     3096.360600       0.000190
     3102.379800       0.000210
     3108.422400       0.000180
     3114.487600       0.000190
     3120.577600       0.000190
     3126.691300       0.000180
     3132.829100       0.000200
     3138.991100       0.000200
     3145.177300       0.000190
     3151.387000       0.000190
     3157.622200       0.000190
     3163.882100       0.000200
     3170.167000       0.000190
     3176.476800       0.000200
     3182.811800       0.000190
     3189.171100       0.000210
     3195.556900       0.000210
     3201.968300       0.000210
     3208.405500       0.000220
     3214.868600       0.000210
     3221.357900       0.000210
     3227.872300       0.000210
     3234.414200       0.000200
     3240.982600       0.000210
     3247.577800       0.000200
     3254.199900       0.000210
     3260.849000       0.000210
     3267.524300       0.000220
     3274.228100       0.000200
     3280.959400       0.000210
     3287.718400       0.000220
     3294.505400       0.000210
