152,   152, MVIRI VIS channel from srf_MET7_2016213_2016214_1801-Release_S10EE_10.dat
Number of data points:
793
Wavenumber (cm-1)   Filter response
     8442.380800       0.000000
     8449.514200       0.000000
     8456.659600       0.000004
     8463.817200       0.000057
     8470.986900       0.000169
     8478.168700       0.000338
     8485.362700       0.000563
     8492.569000       0.000841
     8499.787500       0.001172
     8507.018300       0.001554
     8514.261400       0.001985
     8521.516800       0.002464
     8528.784600       0.002989
     8536.064900       0.003560
     8543.357500       0.004175
     8550.662700       0.004832
     8557.980300       0.005532
     8565.310500       0.006271
     8572.653200       0.007050
     8580.008600       0.007867
     8587.376600       0.008721
     8594.757200       0.009612
     8602.150500       0.010538
     8609.556600       0.011499
     8616.975400       0.012493
     8624.407100       0.013521
     8631.851500       0.014580
     8639.308900       0.015671
     8646.779100       0.016792
     8654.262200       0.017944
     8661.758300       0.019124
     8669.267400       0.020334
     8676.789600       0.021571
     8684.324800       0.022836
     8691.873100       0.024128
     8699.434500       0.025447
     8707.009100       0.026791
     8714.596900       0.028161
     8722.198000       0.029557
     8729.812300       0.030978
     8737.439900       0.032422
     8745.080900       0.033891
     8752.735200       0.035384
     8760.403000       0.036900
     8768.084200       0.038439
     8775.778900       0.040001
     8783.487000       0.041586
     8791.208800       0.043194
     8798.944100       0.044823
     8806.693100       0.046475
     8814.455700       0.048148
     8822.232000       0.049843
     8830.022100       0.051560
     8837.825900       0.053298
     8845.643500       0.055058
     8853.475000       0.056839
     8861.320300       0.058641
     8869.179600       0.060463
     8877.052800       0.062308
     8884.940000       0.064172
     8892.841300       0.066058
     8900.756600       0.067965
     8908.686000       0.069893
     8916.629500       0.071841
     8924.587200       0.073811
     8932.559200       0.075801
     8940.545400       0.077812
     8948.545900       0.079844
     8956.560700       0.081896
     8964.589900       0.083970
     8972.633500       0.086065
     8980.691500       0.088181
     8988.764000       0.090318
     8996.851100       0.092476
     9004.952700       0.094656
     9013.068900       0.096856
     9021.199800       0.099078
     9029.345400       0.101322
     9037.505600       0.103586
     9045.680700       0.105873
     9053.870500       0.108181
     9062.075200       0.110511
     9070.294800       0.112863
     9078.529300       0.115236
     9086.778700       0.117632
     9095.043200       0.120050
     9103.322700       0.122490
     9111.617300       0.124952
     9119.927000       0.127437
     9128.251900       0.129944
     9136.592100       0.132473
     9144.947400       0.135025
     9153.318100       0.137600
     9161.704100       0.140198
     9170.105500       0.142818
     9178.522300       0.145462
     9186.954500       0.148128
     9195.402300       0.150818
     9203.865600       0.153530
     9212.344500       0.156266
     9220.839100       0.159026
     9229.349300       0.161808
     9237.875300       0.164614
     9246.417000       0.167443
     9254.974500       0.170296
     9263.547900       0.173173
     9272.137200       0.176073
     9280.742500       0.178997
     9289.363700       0.181944
     9298.000900       0.184915
     9306.654300       0.187910
     9315.323700       0.190929
     9324.009300       0.193971
     9332.711200       0.197038
     9341.429200       0.200128
     9350.163600       0.203242
     9358.914400       0.206379
     9367.681500       0.209541
     9376.465100       0.212726
     9385.265100       0.215934
     9394.081700       0.219167
     9402.914900       0.222423
     9411.764700       0.225703
     9420.631200       0.229007
     9429.514400       0.232334
     9438.414300       0.235684
     9447.331100       0.239058
     9456.264800       0.242455
     9465.215300       0.245876
     9474.182900       0.249320
     9483.167400       0.252787
     9492.169000       0.256276
     9501.187600       0.259789
     9510.223500       0.263325
     9519.276500       0.266883
     9528.346800       0.270463
     9537.434400       0.274067
     9546.539400       0.277692
     9555.661700       0.281340
     9564.801500       0.285009
     9573.958800       0.288701
     9583.133700       0.292414
     9592.326100       0.296148
     9601.536200       0.299905
     9610.764100       0.303681
     9620.009600       0.307480
     9629.273000       0.311299
     9638.554200       0.315138
     9647.853400       0.318998
     9657.170400       0.322878
     9666.505600       0.326778
     9675.858700       0.330698
     9685.230000       0.334637
     9694.619500       0.338595
     9704.027200       0.342573
     9713.453100       0.346569
     9722.897400       0.350584
     9732.360100       0.354616
     9741.841200       0.358667
     9751.340800       0.362736
     9760.859000       0.366822
     9770.395700       0.370925
     9779.951100       0.375045
     9789.525200       0.379181
     9799.118100       0.383334
     9808.729800       0.387502
     9818.360300       0.391687
     9828.009800       0.395886
     9837.678300       0.400100
     9847.365800       0.404330
     9857.072400       0.408573
     9866.798200       0.412830
     9876.543200       0.417101
     9886.307500       0.421385
     9896.091000       0.425682
     9905.894000       0.429991
     9915.716400       0.434313
     9925.558300       0.438646
     9935.419800       0.442991
     9945.300800       0.447347
     9955.201600       0.451713
     9965.122100       0.456090
     9975.062300       0.460476
     9985.022500       0.464872
     9995.002500       0.469277
    10005.002500       0.473690
    10015.022500       0.478112
    10025.062700       0.482542
    10035.122900       0.486979
    10045.203400       0.491423
    10055.304200       0.495873
    10065.425300       0.500330
    10075.566800       0.504792
    10085.728700       0.509260
    10095.911200       0.513732
    10106.114200       0.518209
    10116.337900       0.522690
    10126.582300       0.527174
    10136.847400       0.531661
    10147.133400       0.536151
    10157.440300       0.540643
    10167.768200       0.545137
    10178.117000       0.549631
    10188.487000       0.554127
    10198.878100       0.558623
    10209.290500       0.563119
    10219.724100       0.567614
    10230.179000       0.572108
    10240.655400       0.576600
    10251.153300       0.581090
    10261.672700       0.585578
    10272.213700       0.590063
    10282.776300       0.594544
    10293.360800       0.599022
    10303.967000       0.603495
    10314.595200       0.607963
    10325.245200       0.612425
    10335.917300       0.616883
    10346.611500       0.621333
    10357.327800       0.625777
    10368.066400       0.630213
    10378.827200       0.634642
    10389.610400       0.639062
    10400.416000       0.643474
    10411.244100       0.647876
    10422.094800       0.652269
    10432.968200       0.656652
    10443.864200       0.661024
    10454.783100       0.665385
    10465.724800       0.669734
    10476.689400       0.674071
    10487.677000       0.678396
    10498.687700       0.682708
    10509.721500       0.687006
    10520.778500       0.691291
    10531.858900       0.695560
    10542.962600       0.699816
    10554.089700       0.704055
    10565.240400       0.708279
    10576.414600       0.712487
    10587.612500       0.716677
    10598.834100       0.720851
    10610.079600       0.725007
    10621.348900       0.729145
    10632.642200       0.733265
    10643.959600       0.737365
    10655.301000       0.741446
    10666.666700       0.745507
    10678.056600       0.749548
    10689.470900       0.753568
    10700.909600       0.757567
    10712.372800       0.761544
    10723.860600       0.765499
    10735.373100       0.769432
    10746.910300       0.773342
    10758.472300       0.777229
    10770.059200       0.781091
    10781.671200       0.784930
    10793.308100       0.788744
    10804.970300       0.792533
    10816.657700       0.796297
    10828.370300       0.800035
    10840.108400       0.803747
    10851.871900       0.807433
    10863.661100       0.811092
    10875.475800       0.814723
    10887.316300       0.818327
    10899.182600       0.821902
    10911.074700       0.825450
    10922.992900       0.828968
    10934.937100       0.832458
    10946.907500       0.835918
    10958.904100       0.839348
    10970.927000       0.842749
    10982.976400       0.846118
    10995.052200       0.849457
    11007.154700       0.852765
    11019.283700       0.856041
    11031.439600       0.859286
    11043.622300       0.862499
    11055.832000       0.865679
    11068.068600       0.868826
    11080.332400       0.871941
    11092.623400       0.875023
    11104.941700       0.878071
    11117.287400       0.881085
    11129.660500       0.884065
    11142.061300       0.887010
    11154.489700       0.889922
    11166.945800       0.892798
    11179.429800       0.895639
    11191.941800       0.898445
    11204.481800       0.901215
    11217.049900       0.903950
    11229.646300       0.906648
    11242.270900       0.909311
    11254.924000       0.911937
    11267.605600       0.914526
    11280.315800       0.917078
    11293.054800       0.919594
    11305.822500       0.922072
    11318.619100       0.924513
    11331.444800       0.926916
    11344.299500       0.929282
    11357.183400       0.931609
    11370.096600       0.933899
    11383.039300       0.936150
    11396.011400       0.938364
    11409.013100       0.940538
    11422.044500       0.942675
    11435.105800       0.944772
    11448.196900       0.946831
    11461.318100       0.948851
    11474.469300       0.950831
    11487.650800       0.952773
    11500.862600       0.954676
    11514.104800       0.956539
    11527.377500       0.958363
    11540.680900       0.960147
    11554.015000       0.961893
    11567.380000       0.963598
    11580.775900       0.965264
    11594.202900       0.966891
    11607.661100       0.968478
    11621.150500       0.970025
    11634.671300       0.971533
    11648.223600       0.973001
    11661.807600       0.974429
    11675.423200       0.975818
    11689.070700       0.977167
    11702.750100       0.978476
    11716.461600       0.979746
    11730.205300       0.980977
    11743.981200       0.982167
    11757.789500       0.983319
    11771.630400       0.984431
    11785.503800       0.985503
    11799.410000       0.986536
    11813.349100       0.987530
    11827.321100       0.988485
    11841.326200       0.989401
    11855.364600       0.990278
    11869.436200       0.991116
    11883.541300       0.991915
    11897.680000       0.992676
    11911.852300       0.993398
    11926.058400       0.994081
    11940.298500       0.994727
    11954.572600       0.995334
    11968.880900       0.995903
    11983.223500       0.996434
    11997.600500       0.996928
    12012.012000       0.997384
    12026.458200       0.997803
    12040.939200       0.998185
    12055.455100       0.998529
    12070.006000       0.998837
    12084.592100       0.999108
    12099.213600       0.999343
    12113.870400       0.999542
    12128.562800       0.999705
    12143.290800       0.999832
    12158.054700       0.999923
    12172.854500       0.999979
    12187.690400       1.000000
    12202.562500       0.999986
    12217.471000       0.999938
    12232.415900       0.999855
    12247.397400       0.999738
    12262.415700       0.999588
    12277.470800       0.999404
    12292.563000       0.999186
    12307.692300       0.998936
    12322.858900       0.998653
    12338.062900       0.998338
    12353.304500       0.997990
    12368.583800       0.997611
    12383.900900       0.997200
    12399.256000       0.996758
    12414.649300       0.996285
    12430.080800       0.995782
    12445.550700       0.995248
    12461.059200       0.994685
    12476.606400       0.994092
    12492.192400       0.993470
    12507.817400       0.992819
    12523.481500       0.992139
    12539.185000       0.991432
    12554.927800       0.990696
    12570.710200       0.989933
    12586.532400       0.989143
    12602.394500       0.988327
    12618.296500       0.987484
    12634.238800       0.986615
    12650.221400       0.985720
    12666.244500       0.984800
    12682.308200       0.983856
    12698.412700       0.982887
    12714.558200       0.981894
    12730.744700       0.980877
    12746.972600       0.979838
    12763.241900       0.978775
    12779.552700       0.977690
    12795.905300       0.976583
    12812.299800       0.975454
    12828.736400       0.974305
    12845.215200       0.973134
    12861.736300       0.971943
    12878.300100       0.970733
    12894.906500       0.969503
    12911.555800       0.968254
    12928.248200       0.966986
    12944.983800       0.965700
    12961.762800       0.964396
    12978.585300       0.963075
    12995.451600       0.961737
    13012.361700       0.960383
    13029.316000       0.959012
    13046.314400       0.957627
    13063.357300       0.956226
    13080.444700       0.954810
    13097.576900       0.953380
    13114.754100       0.951937
    13131.976400       0.950480
    13149.243900       0.949010
    13166.556900       0.947528
    13183.915600       0.946034
    13201.320100       0.944528
    13218.770700       0.943011
    13236.267400       0.941484
    13253.810500       0.939946
    13271.400100       0.938399
    13289.036500       0.936843
    13306.719900       0.935278
    13324.450400       0.933704
    13342.228200       0.932123
    13360.053400       0.930534
    13377.926400       0.928938
    13395.847300       0.927336
    13413.816200       0.925727
    13431.833400       0.924113
    13449.899100       0.922494
    13468.013500       0.920870
    13486.176700       0.919241
    13504.388900       0.917609
    13522.650400       0.915973
    13540.961400       0.914335
    13559.322000       0.912694
    13577.732500       0.911051
    13596.193100       0.909406
    13614.703900       0.907760
    13633.265200       0.906113
    13651.877100       0.904466
    13670.540000       0.902819
    13689.253900       0.901172
    13708.019200       0.899526
    13726.836000       0.897882
    13745.704500       0.896240
    13764.624900       0.894599
    13783.597500       0.892962
    13802.622500       0.891327
    13821.700100       0.889696
    13840.830400       0.888068
    13860.013900       0.886445
    13879.250500       0.884826
    13898.540700       0.883213
    13917.884500       0.881604
    13937.282200       0.880002
    13956.734100       0.878406
    13976.240400       0.876816
    13995.801300       0.875233
    14015.417000       0.873658
    14035.087700       0.872090
    14054.813800       0.870530
    14074.595400       0.868979
    14094.432700       0.867436
    14114.326000       0.865902
    14134.275600       0.864378
    14154.281700       0.862864
    14174.344400       0.861360
    14194.464200       0.859866
    14214.641100       0.858383
    14234.875400       0.856911
    14255.167500       0.855450
    14275.517500       0.854001
    14295.925700       0.852564
    14316.392300       0.851139
    14336.917600       0.849727
    14357.501800       0.848328
    14378.145200       0.846942
    14398.848100       0.845570
    14419.610700       0.844211
    14440.433200       0.842866
    14461.316000       0.841535
    14482.259200       0.840219
    14503.263200       0.838917
    14524.328200       0.837630
    14545.454500       0.836359
    14566.642400       0.835103
    14587.892000       0.833863
    14609.203800       0.832638
    14630.577900       0.831429
    14652.014700       0.830237
    14673.514300       0.829061
    14695.077100       0.827902
    14716.703500       0.826759
    14738.393500       0.825633
    14760.147600       0.824525
    14781.966000       0.823433
    14803.849000       0.822359
    14825.796900       0.821303
    14847.809900       0.820264
    14869.888500       0.819243
    14892.032800       0.818240
    14914.243100       0.817255
    14936.519800       0.816288
    14958.863100       0.815339
    14981.273400       0.814409
    15003.750900       0.813497
    15026.296000       0.812603
    15048.909000       0.811728
    15071.590100       0.810871
    15094.339600       0.810033
    15117.158000       0.809214
    15140.045400       0.808413
    15163.002300       0.807631
    15186.028900       0.806867
    15209.125500       0.806122
    15232.292500       0.805396
    15255.530100       0.804689
    15278.838800       0.804000
    15302.218800       0.803329
    15325.670500       0.802678
    15349.194200       0.802044
    15372.790200       0.801430
    15396.458800       0.800833
    15420.200500       0.800255
    15444.015400       0.799695
    15467.904100       0.799153
    15491.866800       0.798629
    15515.903800       0.798123
    15540.015500       0.797635
    15564.202300       0.797165
    15588.464500       0.796712
    15612.802500       0.796276
    15637.216600       0.795857
    15661.707100       0.795456
    15686.274500       0.795071
    15710.919100       0.794704
    15735.641200       0.794352
    15760.441300       0.794017
    15785.319700       0.793698
    15810.276700       0.793395
    15835.312700       0.793107
    15860.428200       0.792835
    15885.623500       0.792578
    15910.899000       0.792336
    15936.255000       0.792109
    15961.691900       0.791896
    15987.210200       0.791697
    16012.810200       0.791511
    16038.492400       0.791339
    16064.257000       0.791181
    16090.104600       0.791035
    16116.035500       0.790902
    16142.050000       0.790781
    16168.148700       0.790671
    16194.332000       0.790574
    16220.600200       0.790487
    16246.953700       0.790411
    16273.393000       0.790346
    16299.918500       0.790290
    16326.530600       0.790244
    16353.229800       0.790208
    16380.016400       0.790180
    16406.890900       0.790160
    16433.853700       0.790148
    16460.905300       0.790144
    16488.046200       0.790147
    16515.276600       0.790157
    16542.597200       0.790172
    16570.008300       0.790193
    16597.510400       0.790220
    16625.103900       0.790251
    16652.789300       0.790286
    16680.567100       0.790325
    16708.437800       0.790368
    16736.401700       0.790413
    16764.459300       0.790460
    16792.611300       0.790508
    16820.857900       0.790558
    16849.199700       0.790608
    16877.637100       0.790659
    16906.170800       0.790708
    16934.801000       0.790757
    16963.528400       0.790804
    16992.353400       0.790848
    17021.276600       0.790890
    17050.298400       0.790928
    17079.419300       0.790962
    17108.639900       0.790991
    17137.960600       0.791015
    17167.382000       0.791034
    17196.904600       0.791045
    17226.528900       0.791050
    17256.255400       0.791046
    17286.084700       0.791035
    17316.017300       0.791014
    17346.053800       0.790983
    17376.194600       0.790942
    17406.440400       0.790890
    17436.791600       0.790826
    17467.248900       0.790750
    17497.812800       0.790661
    17528.483800       0.790558
    17559.262500       0.790440
    17590.149500       0.790308
    17621.145400       0.790159
    17652.250700       0.789994
    17683.466000       0.789812
    17714.791900       0.789612
    17746.228900       0.789394
    17777.777800       0.789156
    17809.439000       0.788898
    17841.213200       0.788619
    17873.101000       0.788319
    17905.103000       0.787997
    17937.219700       0.787651
    17969.451900       0.787282
    18001.800200       0.786889
    18034.265100       0.786471
    18066.847300       0.786027
    18099.547500       0.785556
    18132.366300       0.785058
    18165.304300       0.784533
    18198.362100       0.783978
    18231.540600       0.783394
    18264.840200       0.782780
    18298.261700       0.782135
    18331.805700       0.781458
    18365.472900       0.780749
    18399.264000       0.780007
    18433.179700       0.779231
    18467.220700       0.778421
    18501.387600       0.777575
    18535.681200       0.776694
    18570.102100       0.775776
    18604.651200       0.774820
    18639.329000       0.773826
    18674.136300       0.772793
    18709.073900       0.771721
    18744.142500       0.770609
    18779.342700       0.769456
    18814.675400       0.768261
    18850.141400       0.767024
    18885.741300       0.765744
    18921.475900       0.764420
    18957.346000       0.763052
    18993.352300       0.761638
    19029.495700       0.760180
    19065.776900       0.758674
    19102.196800       0.757122
    19138.756000       0.755522
    19175.455400       0.753874
    19212.295900       0.752177
    19249.278200       0.750430
    19286.403100       0.748634
    19323.671500       0.746786
    19361.084200       0.744887
    19398.642100       0.742936
    19436.346000       0.740933
    19474.196700       0.738876
    19512.195100       0.736766
    19550.342100       0.734602
    19588.638600       0.732383
    19627.085400       0.730109
    19665.683400       0.727778
    19704.433500       0.725392
    19743.336600       0.722949
    19782.393700       0.720448
    19821.605600       0.717889
    19860.973200       0.715273
    19900.497500       0.712598
    19940.179500       0.709863
    19980.020000       0.707069
    20020.020000       0.704215
    20060.180500       0.701301
    20100.502500       0.698326
    20140.986900       0.695290
    20181.634700       0.692193
    20222.446900       0.689034
    20263.424500       0.685813
    20304.568500       0.682529
    20345.880000       0.679183
    20387.359800       0.675774
    20429.009200       0.672302
    20470.829100       0.668767
    20512.820500       0.665168
    20554.984600       0.661505
    20597.322300       0.657779
    20639.834900       0.653988
    20682.523300       0.650134
    20725.388600       0.646215
    20768.432000       0.642231
    20811.654500       0.638184
    20855.057400       0.634072
    20898.641600       0.629895
    20942.408400       0.625654
    20986.358900       0.621348
    21030.494200       0.616979
    21074.815600       0.612545
    21119.324200       0.608046
    21164.021200       0.603484
    21208.907700       0.598858
    21253.985100       0.594168
    21299.254500       0.589414
    21344.717200       0.584598
    21390.374300       0.579718
    21436.227200       0.574776
    21482.277100       0.569771
    21528.525300       0.564704
    21574.973000       0.559575
    21621.621600       0.554385
    21668.472400       0.549134
    21715.526600       0.543823
    21762.785600       0.538452
    21810.250800       0.533022
    21857.923500       0.527532
    21905.805000       0.521985
    21953.896800       0.516380
    22002.200200       0.510718
    22050.716600       0.505000
    22099.447500       0.499226
    22148.394200       0.493397
    22197.558300       0.487515
    22246.941000       0.481579
    22296.544000       0.475591
    22346.368700       0.469552
    22396.416600       0.463462
    22446.689100       0.457323
    22497.187900       0.451136
    22547.914300       0.444901
    22598.870100       0.438620
    22650.056600       0.432293
    22701.475600       0.425923
    22753.128600       0.419510
    22805.017100       0.413055
    22857.142900       0.406561
    22909.507400       0.400027
    22962.112500       0.393456
    23014.959700       0.386849
    23068.050700       0.380207
    23121.387300       0.373532
    23174.971000       0.366826
    23228.803700       0.360089
    23282.887100       0.353325
    23337.222900       0.346534
    23391.812900       0.339718
    23446.658900       0.332879
    23501.762600       0.326019
    23557.126000       0.319139
    23612.750900       0.312242
    23668.639100       0.305330
    23724.792400       0.298405
    23781.212800       0.291468
    23837.902300       0.284522
    23894.862600       0.277569
    23952.095800       0.270611
    24009.603800       0.263651
    24067.388700       0.256690
    24125.452400       0.249732
    24183.796900       0.242779
    24242.424200       0.235833
    24301.336600       0.228897
    24360.535900       0.221973
    24420.024400       0.215065
    24479.804200       0.208174
    24539.877300       0.201304
    24600.246000       0.194457
    24660.912500       0.187637
    24721.878900       0.180846
    24783.147500       0.174087
    24844.720500       0.167364
    24906.600200       0.160679
    24968.789000       0.154037
    25031.289100       0.147439
    25094.102900       0.140889
    25157.232700       0.134391
    25220.681000       0.127949
    25284.450100       0.121565
    25348.542500       0.115243
    25412.960600       0.108987
    25477.707000       0.102801
