5,   ECOSTRESS channel 5 from 20180318-ECOSTRESS_SRF_v3.csv
Number of data points:
184
Wavenumber (cm-1)   Filter response
      769.695500       0.004500
      770.279500       0.005000
      770.864400       0.004600
      771.450200       0.003700
      772.036800       0.003600
      772.624400       0.003500
      773.212800       0.003700
      773.802200       0.004200
      774.392400       0.004800
      774.983500       0.005400
      775.575600       0.006000
      776.168500       0.006700
      776.762400       0.007500
      777.357100       0.008600
      777.952800       0.008700
      778.549400       0.008500
      779.146900       0.008800
      779.745300       0.009100
      780.344700       0.009700
      780.944900       0.011400
      781.546100       0.013600
      782.148200       0.014100
      782.751300       0.014600
      783.355300       0.014900
      783.960200       0.015500
      784.566000       0.016200
      785.172800       0.018800
      785.780500       0.021200
      786.389200       0.023300
      786.998800       0.025800
      787.609300       0.028500
      788.220800       0.031000
      788.833300       0.034000
      789.446700       0.037800
      790.061000       0.041600
      790.676300       0.045600
      791.292600       0.050200
      791.909800       0.055100
      792.528000       0.060300
      793.147200       0.067100
      793.767300       0.074600
      794.388400       0.083200
      795.010500       0.092500
      795.633600       0.102400
      796.257600       0.113900
      796.882600       0.126500
      797.508600       0.140600
      798.135600       0.156700
      798.763500       0.174100
      799.392500       0.193600
      800.022400       0.215100
      800.653300       0.238100
      801.285300       0.263600
      801.918200       0.290100
      802.552100       0.317400
      803.187000       0.347400
      803.823000       0.379000
      804.459900       0.412500
      805.097900       0.447000
      805.736800       0.481900
      806.376800       0.517500
      807.017800       0.553600
      807.659800       0.590200
      808.302900       0.626000
      808.947000       0.660500
      809.592000       0.693100
      810.238200       0.724000
      810.885300       0.753600
      811.533500       0.781300
      812.182700       0.805900
      812.833000       0.828000
      813.484300       0.847100
      814.136700       0.863000
      814.790100       0.876800
      815.444500       0.888500
      816.100000       0.898500
      816.756600       0.907500
      817.414200       0.914600
      818.072900       0.919900
      818.732600       0.923400
      819.393400       0.925800
      820.055300       0.927900
      820.718200       0.929800
      821.382200       0.931600
      822.047300       0.933000
      822.713500       0.934100
      823.380700       0.934900
      824.049000       0.935500
      824.718500       0.936100
      825.389000       0.937000
      826.060600       0.938100
      826.733200       0.939400
      827.407000       0.940800
      828.081900       0.942800
      828.757900       0.945600
      829.435000       0.949800
      830.113200       0.955100
      830.792500       0.961100
      831.472900       0.967100
      832.154400       0.973100
      832.837100       0.979300
      833.520900       0.985100
      834.205800       0.990100
      834.891800       0.994400
      835.579000       0.997900
      836.267200       0.999900
      836.956700       1.000000
      837.647200       0.997000
      838.338900       0.989100
      839.031800       0.976300
      839.725700       0.959500
      840.420900       0.937400
      841.117200       0.910600
      841.814600       0.880600
      842.513200       0.845600
      843.213000       0.805600
      843.913900       0.762300
      844.616000       0.716100
      845.319300       0.667800
      846.023700       0.618700
      846.729300       0.569200
      847.436100       0.520600
      848.144000       0.474100
      848.853200       0.429300
      849.563500       0.386900
      850.275100       0.347100
      850.987800       0.309600
      851.701700       0.275700
      852.416800       0.245800
      853.133100       0.218800
      853.850700       0.194200
      854.569400       0.172500
      855.289300       0.153700
      856.010500       0.136800
      856.732800       0.121200
      857.456400       0.107300
      858.181300       0.095200
      858.907300       0.084700
      859.634600       0.076100
      860.363100       0.069300
      861.092800       0.063100
      861.823800       0.057200
      862.556000       0.051200
      863.289500       0.045100
      864.024200       0.039800
      864.760200       0.035600
      865.497400       0.032700
      866.235900       0.030600
      866.975600       0.028500
      867.716600       0.026000
      868.458900       0.022900
      869.202400       0.020400
      869.947200       0.018700
      870.693300       0.017700
      871.440700       0.016800
      872.189400       0.015600
      872.939300       0.014400
      873.690600       0.013200
      874.443100       0.012500
      875.196900       0.012100
      875.952100       0.011400
      876.708500       0.010500
      877.466200       0.009800
      878.225300       0.009200
      878.985700       0.008900
      879.747300       0.009100
      880.510300       0.009400
      881.274700       0.009300
      882.040300       0.008600
      882.807300       0.007200
      883.575700       0.005200
      884.345300       0.005000
      885.116300       0.004700
      885.888700       0.004800
      886.662400       0.006000
      887.437400       0.006100
      888.213800       0.005500
      888.991600       0.004300
      889.770800       0.002900
      890.551300       0.002300
      891.333100       0.002300
      892.116400       0.001900
      892.901000       0.001200
      893.687000       0.001200
