9,   9, MVIRI VIS channel from srf_MET6_1998033_1998034_1801-Release_S10EL_10.dat
Number of data points:
750
Wavenumber (cm-1)   Filter response
     8760.403000       0.000000
     8768.084200       0.000000
     8775.778900       0.000000
     8783.487000       0.000001
     8791.208800       0.000004
     8798.944100       0.000009
     8806.693100       0.000016
     8814.455700       0.000026
     8822.232000       0.000041
     8830.022100       0.000060
     8837.825900       0.000085
     8845.643500       0.000115
     8853.475000       0.000153
     8861.320300       0.000197
     8869.179600       0.000250
     8877.052800       0.000312
     8884.940000       0.000383
     8892.841300       0.000465
     8900.756600       0.000557
     8908.686000       0.000662
     8916.629500       0.000779
     8924.587200       0.000909
     8932.559200       0.001053
     8940.545400       0.001212
     8948.545900       0.001387
     8956.560700       0.001578
     8964.589900       0.001787
     8972.633500       0.002013
     8980.691500       0.002258
     8988.764000       0.002523
     8996.851100       0.002807
     9004.952700       0.003113
     9013.068900       0.003441
     9021.199800       0.003791
     9029.345400       0.004164
     9037.505600       0.004562
     9045.680700       0.004985
     9053.870500       0.005433
     9062.075200       0.005907
     9070.294800       0.006409
     9078.529300       0.006938
     9086.778700       0.007497
     9095.043200       0.008084
     9103.322700       0.008702
     9111.617300       0.009350
     9119.927000       0.010030
     9128.251900       0.010742
     9136.592100       0.011487
     9144.947400       0.012266
     9153.318100       0.013079
     9161.704100       0.013926
     9170.105500       0.014810
     9178.522300       0.015729
     9186.954500       0.016685
     9195.402300       0.017679
     9203.865600       0.018711
     9212.344500       0.019782
     9220.839100       0.020891
     9229.349300       0.022041
     9237.875300       0.023231
     9246.417000       0.024461
     9254.974500       0.025734
     9263.547900       0.027048
     9272.137200       0.028404
     9280.742500       0.029804
     9289.363700       0.031247
     9298.000900       0.032733
     9306.654300       0.034265
     9315.323700       0.035840
     9324.009300       0.037461
     9332.711200       0.039128
     9341.429200       0.040840
     9350.163600       0.042598
     9358.914400       0.044403
     9367.681500       0.046255
     9376.465100       0.048155
     9385.265100       0.050101
     9394.081700       0.052096
     9402.914900       0.054138
     9411.764700       0.056229
     9420.631200       0.058369
     9429.514400       0.060557
     9438.414300       0.062794
     9447.331100       0.065080
     9456.264800       0.067416
     9465.215300       0.069800
     9474.182900       0.072234
     9483.167400       0.074718
     9492.169000       0.077252
     9501.187600       0.079835
     9510.223500       0.082468
     9519.276500       0.085151
     9528.346800       0.087884
     9537.434400       0.090666
     9546.539400       0.093498
     9555.661700       0.096381
     9564.801500       0.099312
     9573.958800       0.102294
     9583.133700       0.105325
     9592.326100       0.108405
     9601.536200       0.111535
     9610.764100       0.114714
     9620.009600       0.117942
     9629.273000       0.121219
     9638.554200       0.124544
     9647.853400       0.127918
     9657.170400       0.131340
     9666.505600       0.134810
     9675.858700       0.138328
     9685.230000       0.141894
     9694.619500       0.145506
     9704.027200       0.149165
     9713.453100       0.152871
     9722.897400       0.156623
     9732.360100       0.160421
     9741.841200       0.164265
     9751.340800       0.168153
     9760.859000       0.172086
     9770.395700       0.176064
     9779.951100       0.180085
     9789.525200       0.184151
     9799.118100       0.188259
     9808.729800       0.192409
     9818.360300       0.196602
     9828.009800       0.200836
     9837.678300       0.205111
     9847.365800       0.209427
     9857.072400       0.213783
     9866.798200       0.218179
     9876.543200       0.222613
     9886.307500       0.227086
     9896.091000       0.231597
     9905.894000       0.236145
     9915.716400       0.240730
     9925.558300       0.245351
     9935.419800       0.250007
     9945.300800       0.254699
     9955.201600       0.259424
     9965.122100       0.264183
     9975.062300       0.268975
     9985.022500       0.273799
     9995.002500       0.278655
    10005.002500       0.283542
    10015.022500       0.288459
    10025.062700       0.293405
    10035.122900       0.298381
    10045.203400       0.303384
    10055.304200       0.308416
    10065.425300       0.313473
    10075.566800       0.318557
    10085.728700       0.323666
    10095.911200       0.328800
    10106.114200       0.333957
    10116.337900       0.339138
    10126.582300       0.344341
    10136.847400       0.349565
    10147.133400       0.354810
    10157.440300       0.360075
    10167.768200       0.365359
    10178.117000       0.370662
    10188.487000       0.375982
    10198.878100       0.381320
    10209.290500       0.386673
    10219.724100       0.392042
    10230.179000       0.397425
    10240.655400       0.402822
    10251.153300       0.408232
    10261.672700       0.413654
    10272.213700       0.419087
    10282.776300       0.424531
    10293.360800       0.429985
    10303.967000       0.435447
    10314.595200       0.440918
    10325.245200       0.446396
    10335.917300       0.451881
    10346.611500       0.457371
    10357.327800       0.462866
    10368.066400       0.468366
    10378.827200       0.473868
    10389.610400       0.479374
    10400.416000       0.484881
    10411.244100       0.490388
    10422.094800       0.495896
    10432.968200       0.501404
    10443.864200       0.506910
    10454.783100       0.512413
    10465.724800       0.517914
    10476.689400       0.523410
    10487.677000       0.528903
    10498.687700       0.534390
    10509.721500       0.539870
    10520.778500       0.545344
    10531.858900       0.550810
    10542.962600       0.556267
    10554.089700       0.561716
    10565.240400       0.567154
    10576.414600       0.572581
    10587.612500       0.577997
    10598.834100       0.583401
    10610.079600       0.588792
    10621.348900       0.594169
    10632.642200       0.599532
    10643.959600       0.604880
    10655.301000       0.610212
    10666.666700       0.615527
    10678.056600       0.620825
    10689.470900       0.626105
    10700.909600       0.631366
    10712.372800       0.636608
    10723.860600       0.641830
    10735.373100       0.647031
    10746.910300       0.652211
    10758.472300       0.657369
    10770.059200       0.662504
    10781.671200       0.667616
    10793.308100       0.672703
    10804.970300       0.677767
    10816.657700       0.682804
    10828.370300       0.687816
    10840.108400       0.692802
    10851.871900       0.697760
    10863.661100       0.702691
    10875.475800       0.707594
    10887.316300       0.712468
    10899.182600       0.717312
    10911.074700       0.722127
    10922.992900       0.726910
    10934.937100       0.731663
    10946.907500       0.736384
    10958.904100       0.741073
    10970.927000       0.745730
    10982.976400       0.750353
    10995.052200       0.754943
    11007.154700       0.759498
    11019.283700       0.764019
    11031.439600       0.768505
    11043.622300       0.772955
    11055.832000       0.777369
    11068.068600       0.781747
    11080.332400       0.786088
    11092.623400       0.790391
    11104.941700       0.794657
    11117.287400       0.798884
    11129.660500       0.803073
    11142.061300       0.807223
    11154.489700       0.811333
    11166.945800       0.815404
    11179.429800       0.819434
    11191.941800       0.823425
    11204.481800       0.827374
    11217.049900       0.831282
    11229.646300       0.835149
    11242.270900       0.838974
    11254.924000       0.842757
    11267.605600       0.846497
    11280.315800       0.850195
    11293.054800       0.853850
    11305.822500       0.857461
    11318.619100       0.861030
    11331.444800       0.864554
    11344.299500       0.868034
    11357.183400       0.871471
    11370.096600       0.874863
    11383.039300       0.878210
    11396.011400       0.881512
    11409.013100       0.884770
    11422.044500       0.887982
    11435.105800       0.891149
    11448.196900       0.894270
    11461.318100       0.897346
    11474.469300       0.900375
    11487.650800       0.903359
    11500.862600       0.906297
    11514.104800       0.909189
    11527.377500       0.912034
    11540.680900       0.914833
    11554.015000       0.917585
    11567.380000       0.920291
    11580.775900       0.922950
    11594.202900       0.925563
    11607.661100       0.928129
    11621.150500       0.930648
    11634.671300       0.933121
    11648.223600       0.935546
    11661.807600       0.937925
    11675.423200       0.940257
    11689.070700       0.942542
    11702.750100       0.944781
    11716.461600       0.946972
    11730.205300       0.949117
    11743.981200       0.951215
    11757.789500       0.953267
    11771.630400       0.955272
    11785.503800       0.957231
    11799.410000       0.959143
    11813.349100       0.961009
    11827.321100       0.962828
    11841.326200       0.964602
    11855.364600       0.966329
    11869.436200       0.968011
    11883.541300       0.969647
    11897.680000       0.971237
    11911.852300       0.972782
    11926.058400       0.974281
    11940.298500       0.975736
    11954.572600       0.977145
    11968.880900       0.978509
    11983.223500       0.979829
    11997.600500       0.981105
    12012.012000       0.982336
    12026.458200       0.983523
    12040.939200       0.984667
    12055.455100       0.985767
    12070.006000       0.986823
    12084.592100       0.987837
    12099.213600       0.988807
    12113.870400       0.989735
    12128.562800       0.990621
    12143.290800       0.991464
    12158.054700       0.992266
    12172.854500       0.993026
    12187.690400       0.993745
    12202.562500       0.994423
    12217.471000       0.995061
    12232.415900       0.995658
    12247.397400       0.996215
    12262.415700       0.996732
    12277.470800       0.997210
    12292.563000       0.997649
    12307.692300       0.998049
    12322.858900       0.998411
    12338.062900       0.998735
    12353.304500       0.999021
    12368.583800       0.999270
    12383.900900       0.999482
    12399.256000       0.999657
    12414.649300       0.999796
    12430.080800       0.999899
    12445.550700       0.999967
    12461.059200       1.000000
    12476.606400       0.999998
    12492.192400       0.999962
    12507.817400       0.999892
    12523.481500       0.999789
    12539.185000       0.999652
    12554.927800       0.999483
    12570.710200       0.999282
    12586.532400       0.999049
    12602.394500       0.998785
    12618.296500       0.998490
    12634.238800       0.998164
    12650.221400       0.997809
    12666.244500       0.997424
    12682.308200       0.997009
    12698.412700       0.996566
    12714.558200       0.996095
    12730.744700       0.995596
    12746.972600       0.995070
    12763.241900       0.994517
    12779.552700       0.993937
    12795.905300       0.993332
    12812.299800       0.992701
    12828.736400       0.992045
    12845.215200       0.991365
    12861.736300       0.990661
    12878.300100       0.989933
    12894.906500       0.989182
    12911.555800       0.988409
    12928.248200       0.987614
    12944.983800       0.986797
    12961.762800       0.985959
    12978.585300       0.985100
    12995.451600       0.984221
    13012.361700       0.983323
    13029.316000       0.982405
    13046.314400       0.981469
    13063.357300       0.980515
    13080.444700       0.979543
    13097.576900       0.978554
    13114.754100       0.977548
    13131.976400       0.976526
    13149.243900       0.975488
    13166.556900       0.974436
    13183.915600       0.973368
    13201.320100       0.972287
    13218.770700       0.971192
    13236.267400       0.970083
    13253.810500       0.968962
    13271.400100       0.967829
    13289.036500       0.966684
    13306.719900       0.965528
    13324.450400       0.964362
    13342.228200       0.963185
    13360.053400       0.961998
    13377.926400       0.960802
    13395.847300       0.959598
    13413.816200       0.958385
    13431.833400       0.957165
    13449.899100       0.955937
    13468.013500       0.954702
    13486.176700       0.953462
    13504.388900       0.952215
    13522.650400       0.950963
    13540.961400       0.949706
    13559.322000       0.948445
    13577.732500       0.947180
    13596.193100       0.945911
    13614.703900       0.944640
    13633.265200       0.943366
    13651.877100       0.942090
    13670.540000       0.940812
    13689.253900       0.939533
    13708.019200       0.938253
    13726.836000       0.936973
    13745.704500       0.935694
    13764.624900       0.934415
    13783.597500       0.933137
    13802.622500       0.931860
    13821.700100       0.930585
    13840.830400       0.929313
    13860.013900       0.928044
    13879.250500       0.926777
    13898.540700       0.925514
    13917.884500       0.924256
    13937.282200       0.923001
    13956.734100       0.921752
    13976.240400       0.920507
    13995.801300       0.919268
    14015.417000       0.918036
    14035.087700       0.916809
    14054.813800       0.915589
    14074.595400       0.914376
    14094.432700       0.913171
    14114.326000       0.911974
    14134.275600       0.910784
    14154.281700       0.909603
    14174.344400       0.908431
    14194.464200       0.907269
    14214.641100       0.906115
    14234.875400       0.904972
    14255.167500       0.903838
    14275.517500       0.902716
    14295.925700       0.901603
    14316.392300       0.900502
    14336.917600       0.899413
    14357.501800       0.898335
    14378.145200       0.897268
    14398.848100       0.896214
    14419.610700       0.895173
    14440.433200       0.894144
    14461.316000       0.893128
    14482.259200       0.892126
    14503.263200       0.891136
    14524.328200       0.890161
    14545.454500       0.889199
    14566.642400       0.888252
    14587.892000       0.887319
    14609.203800       0.886400
    14630.577900       0.885496
    14652.014700       0.884607
    14673.514300       0.883734
    14695.077100       0.882875
    14716.703500       0.882032
    14738.393500       0.881204
    14760.147600       0.880392
    14781.966000       0.879596
    14803.849000       0.878816
    14825.796900       0.878052
    14847.809900       0.877305
    14869.888500       0.876573
    14892.032800       0.875858
    14914.243100       0.875160
    14936.519800       0.874478
    14958.863100       0.873813
    14981.273400       0.873165
    15003.750900       0.872533
    15026.296000       0.871919
    15048.909000       0.871321
    15071.590100       0.870740
    15094.339600       0.870176
    15117.158000       0.869629
    15140.045400       0.869099
    15163.002300       0.868586
    15186.028900       0.868090
    15209.125500       0.867611
    15232.292500       0.867148
    15255.530100       0.866703
    15278.838800       0.866274
    15302.218800       0.865862
    15325.670500       0.865466
    15349.194200       0.865088
    15372.790200       0.864725
    15396.458800       0.864379
    15420.200500       0.864049
    15444.015400       0.863736
    15467.904100       0.863438
    15491.866800       0.863157
    15515.903800       0.862891
    15540.015500       0.862640
    15564.202300       0.862405
    15588.464500       0.862186
    15612.802500       0.861981
    15637.216600       0.861791
    15661.707100       0.861616
    15686.274500       0.861456
    15710.919100       0.861309
    15735.641200       0.861177
    15760.441300       0.861058
    15785.319700       0.860953
    15810.276700       0.860862
    15835.312700       0.860783
    15860.428200       0.860717
    15885.623500       0.860663
    15910.899000       0.860621
    15936.255000       0.860592
    15961.691900       0.860573
    15987.210200       0.860566
    16012.810200       0.860570
    16038.492400       0.860584
    16064.257000       0.860609
    16090.104600       0.860643
    16116.035500       0.860687
    16142.050000       0.860739
    16168.148700       0.860800
    16194.332000       0.860870
    16220.600200       0.860947
    16246.953700       0.861032
    16273.393000       0.861123
    16299.918500       0.861221
    16326.530600       0.861326
    16353.229800       0.861435
    16380.016400       0.861550
    16406.890900       0.861670
    16433.853700       0.861794
    16460.905300       0.861921
    16488.046200       0.862052
    16515.276600       0.862186
    16542.597200       0.862321
    16570.008300       0.862459
    16597.510400       0.862597
    16625.103900       0.862736
    16652.789300       0.862875
    16680.567100       0.863014
    16708.437800       0.863151
    16736.401700       0.863287
    16764.459300       0.863420
    16792.611300       0.863551
    16820.857900       0.863678
    16849.199700       0.863801
    16877.637100       0.863920
    16906.170800       0.864033
    16934.801000       0.864140
    16963.528400       0.864241
    16992.353400       0.864334
    17021.276600       0.864420
    17050.298400       0.864497
    17079.419300       0.864565
    17108.639900       0.864623
    17137.960600       0.864671
    17167.382000       0.864707
    17196.904600       0.864732
    17226.528900       0.864744
    17256.255400       0.864742
    17286.084700       0.864727
    17316.017300       0.864696
    17346.053800       0.864651
    17376.194600       0.864589
    17406.440400       0.864510
    17436.791600       0.864414
    17467.248900       0.864300
    17497.812800       0.864166
    17528.483800       0.864012
    17559.262500       0.863838
    17590.149500       0.863642
    17621.145400       0.863424
    17652.250700       0.863184
    17683.466000       0.862919
    17714.791900       0.862631
    17746.228900       0.862317
    17777.777800       0.861976
    17809.439000       0.861610
    17841.213200       0.861215
    17873.101000       0.860792
    17905.103000       0.860340
    17937.219700       0.859859
    17969.451900       0.859346
    18001.800200       0.858802
    18034.265100       0.858225
    18066.847300       0.857616
    18099.547500       0.856972
    18132.366300       0.856294
    18165.304300       0.855580
    18198.362100       0.854830
    18231.540600       0.854043
    18264.840200       0.853217
    18298.261700       0.852354
    18331.805700       0.851450
    18365.472900       0.850506
    18399.264000       0.849521
    18433.179700       0.848495
    18467.220700       0.847425
    18501.387600       0.846312
    18535.681200       0.845155
    18570.102100       0.843952
    18604.651200       0.842704
    18639.329000       0.841409
    18674.136300       0.840067
    18709.073900       0.838677
    18744.142500       0.837238
    18779.342700       0.835749
    18814.675400       0.834209
    18850.141400       0.832618
    18885.741300       0.830976
    18921.475900       0.829281
    18957.346000       0.827532
    18993.352300       0.825729
    19029.495700       0.823871
    19065.776900       0.821958
    19102.196800       0.819989
    19138.756000       0.817962
    19175.455400       0.815878
    19212.295900       0.813736
    19249.278200       0.811534
    19286.403100       0.809273
    19323.671500       0.806952
    19361.084200       0.804570
    19398.642100       0.802126
    19436.346000       0.799620
    19474.196700       0.797051
    19512.195100       0.794419
    19550.342100       0.791723
    19588.638600       0.788962
    19627.085400       0.786137
    19665.683400       0.783246
    19704.433500       0.780288
    19743.336600       0.777265
    19782.393700       0.774174
    19821.605600       0.771015
    19860.973200       0.767788
    19900.497500       0.764493
    19940.179500       0.761129
    19980.020000       0.757696
    20020.020000       0.754193
    20060.180500       0.750620
    20100.502500       0.746977
    20140.986900       0.743262
    20181.634700       0.739477
    20222.446900       0.735621
    20263.424500       0.731692
    20304.568500       0.727692
    20345.880000       0.723620
    20387.359800       0.719476
    20429.009200       0.715258
    20470.829100       0.710969
    20512.820500       0.706607
    20554.984600       0.702171
    20597.322300       0.697663
    20639.834900       0.693082
    20682.523300       0.688428
    20725.388600       0.683701
    20768.432000       0.678901
    20811.654500       0.674028
    20855.057400       0.669082
    20898.641600       0.664063
    20942.408400       0.658972
    20986.358900       0.653809
    21030.494200       0.648573
    21074.815600       0.643265
    21119.324200       0.637886
    21164.021200       0.632436
    21208.907700       0.626914
    21253.985100       0.621322
    21299.254500       0.615660
    21344.717200       0.609928
    21390.374300       0.604127
    21436.227200       0.598257
    21482.277100       0.592319
    21528.525300       0.586313
    21574.973000       0.580241
    21621.621600       0.574102
    21668.472400       0.567898
    21715.526600       0.561629
    21762.785600       0.555297
    21810.250800       0.548901
    21857.923500       0.542444
    21905.805000       0.535925
    21953.896800       0.529346
    22002.200200       0.522708
    22050.716600       0.516012
    22099.447500       0.509259
    22148.394200       0.502451
    22197.558300       0.495588
    22246.941000       0.488672
    22296.544000       0.481704
    22346.368700       0.474685
    22396.416600       0.467618
    22446.689100       0.460504
    22497.187900       0.453343
    22547.914300       0.446139
    22598.870100       0.438891
    22650.056600       0.431603
    22701.475600       0.424276
    22753.128600       0.416911
    22805.017100       0.409511
    22857.142900       0.402078
    22909.507400       0.394614
    22962.112500       0.387120
    23014.959700       0.379599
    23068.050700       0.372054
    23121.387300       0.364486
    23174.971000       0.356898
    23228.803700       0.349292
    23282.887100       0.341671
    23337.222900       0.334037
    23391.812900       0.326393
    23446.658900       0.318742
    23501.762600       0.311086
    23557.126000       0.303429
    23612.750900       0.295773
    23668.639100       0.288121
    23724.792400       0.280476
    23781.212800       0.272843
    23837.902300       0.265222
    23894.862600       0.257619
    23952.095800       0.250037
    24009.603800       0.242478
    24067.388700       0.234947
    24125.452400       0.227448
    24183.796900       0.219983
    24242.424200       0.212557
    24301.336600       0.205174
    24360.535900       0.197838
    24420.024400       0.190552
    24479.804200       0.183322
    24539.877300       0.176151
    24600.246000       0.169043
    24660.912500       0.162004
    24721.878900       0.155038
    24783.147500       0.148149
    24844.720500       0.141342
    24906.600200       0.134622
    24968.789000       0.127995
    25031.289100       0.121464
    25094.102900       0.115036
    25157.232700       0.108715
    25220.681000       0.102508
    25284.450100       0.096419
    25348.542500       0.090454
    25412.960600       0.084618
    25477.707000       0.078919
