125,   125, MVIRI VIS channel from srf_MET5_2006303_2006304_1801-Release_S10EL_10.dat
Number of data points:
806
Wavenumber (cm-1)   Filter response
     8350.730700       0.000000
     8357.710000       0.000000
     8364.701000       0.000000
     8371.703600       0.000002
     8378.718100       0.000004
     8385.744200       0.000009
     8392.782200       0.000017
     8399.832000       0.000028
     8406.893700       0.000043
     8413.967200       0.000062
     8421.052600       0.000086
     8428.150000       0.000116
     8435.259400       0.000151
     8442.380800       0.000192
     8449.514200       0.000241
     8456.659600       0.000296
     8463.817200       0.000359
     8470.986900       0.000430
     8478.168700       0.000509
     8485.362700       0.000597
     8492.569000       0.000694
     8499.787500       0.000800
     8507.018300       0.000916
     8514.261400       0.001042
     8521.516800       0.001178
     8528.784600       0.001325
     8536.064900       0.001483
     8543.357500       0.001653
     8550.662700       0.001833
     8557.980300       0.002026
     8565.310500       0.002230
     8572.653200       0.002447
     8580.008600       0.002676
     8587.376600       0.002918
     8594.757200       0.003173
     8602.150500       0.003441
     8609.556600       0.003722
     8616.975400       0.004017
     8624.407100       0.004325
     8631.851500       0.004648
     8639.308900       0.004985
     8646.779100       0.005336
     8654.262200       0.005701
     8661.758300       0.006081
     8669.267400       0.006476
     8676.789600       0.006886
     8684.324800       0.007311
     8691.873100       0.007752
     8699.434500       0.008208
     8707.009100       0.008679
     8714.596900       0.009167
     8722.198000       0.009670
     8729.812300       0.010189
     8737.439900       0.010724
     8745.080900       0.011276
     8752.735200       0.011844
     8760.403000       0.012429
     8768.084200       0.013030
     8775.778900       0.013648
     8783.487000       0.014283
     8791.208800       0.014935
     8798.944100       0.015605
     8806.693100       0.016291
     8814.455700       0.016995
     8822.232000       0.017717
     8830.022100       0.018456
     8837.825900       0.019213
     8845.643500       0.019988
     8853.475000       0.020781
     8861.320300       0.021592
     8869.179600       0.022421
     8877.052800       0.023268
     8884.940000       0.024134
     8892.841300       0.025018
     8900.756600       0.025921
     8908.686000       0.026843
     8916.629500       0.027783
     8924.587200       0.028743
     8932.559200       0.029721
     8940.545400       0.030719
     8948.545900       0.031736
     8956.560700       0.032772
     8964.589900       0.033828
     8972.633500       0.034903
     8980.691500       0.035998
     8988.764000       0.037113
     8996.851100       0.038247
     9004.952700       0.039402
     9013.068900       0.040576
     9021.199800       0.041771
     9029.345400       0.042986
     9037.505600       0.044221
     9045.680700       0.045477
     9053.870500       0.046753
     9062.075200       0.048050
     9070.294800       0.049368
     9078.529300       0.050706
     9086.778700       0.052066
     9095.043200       0.053446
     9103.322700       0.054848
     9111.617300       0.056270
     9119.927000       0.057714
     9128.251900       0.059180
     9136.592100       0.060667
     9144.947400       0.062175
     9153.318100       0.063705
     9161.704100       0.065257
     9170.105500       0.066831
     9178.522300       0.068427
     9186.954500       0.070044
     9195.402300       0.071684
     9203.865600       0.073346
     9212.344500       0.075030
     9220.839100       0.076737
     9229.349300       0.078466
     9237.875300       0.080217
     9246.417000       0.081991
     9254.974500       0.083788
     9263.547900       0.085607
     9272.137200       0.087449
     9280.742500       0.089314
     9289.363700       0.091202
     9298.000900       0.093113
     9306.654300       0.095047
     9315.323700       0.097004
     9324.009300       0.098985
     9332.711200       0.100988
     9341.429200       0.103015
     9350.163600       0.105065
     9358.914400       0.107139
     9367.681500       0.109236
     9376.465100       0.111357
     9385.265100       0.113501
     9394.081700       0.115668
     9402.914900       0.117860
     9411.764700       0.120075
     9420.631200       0.122314
     9429.514400       0.124576
     9438.414300       0.126863
     9447.331100       0.129173
     9456.264800       0.131507
     9465.215300       0.133865
     9474.182900       0.136246
     9483.167400       0.138652
     9492.169000       0.141081
     9501.187600       0.143535
     9510.223500       0.146013
     9519.276500       0.148514
     9528.346800       0.151039
     9537.434400       0.153589
     9546.539400       0.156162
     9555.661700       0.158759
     9564.801500       0.161380
     9573.958800       0.164026
     9583.133700       0.166695
     9592.326100       0.169387
     9601.536200       0.172104
     9610.764100       0.174845
     9620.009600       0.177609
     9629.273000       0.180397
     9638.554200       0.183209
     9647.853400       0.186045
     9657.170400       0.188904
     9666.505600       0.191787
     9675.858700       0.194693
     9685.230000       0.197623
     9694.619500       0.200577
     9704.027200       0.203553
     9713.453100       0.206553
     9722.897400       0.209577
     9732.360100       0.212623
     9741.841200       0.215692
     9751.340800       0.218784
     9760.859000       0.221900
     9770.395700       0.225038
     9779.951100       0.228199
     9789.525200       0.231382
     9799.118100       0.234588
     9808.729800       0.237816
     9818.360300       0.241067
     9828.009800       0.244340
     9837.678300       0.247634
     9847.365800       0.250951
     9857.072400       0.254290
     9866.798200       0.257650
     9876.543200       0.261031
     9886.307500       0.264434
     9896.091000       0.267859
     9905.894000       0.271304
     9915.716400       0.274770
     9925.558300       0.278257
     9935.419800       0.281764
     9945.300800       0.285292
     9955.201600       0.288840
     9965.122100       0.292409
     9975.062300       0.295997
     9985.022500       0.299605
     9995.002500       0.303232
    10005.002500       0.306879
    10015.022500       0.310544
    10025.062700       0.314229
    10035.122900       0.317932
    10045.203400       0.321654
    10055.304200       0.325394
    10065.425300       0.329153
    10075.566800       0.332928
    10085.728700       0.336722
    10095.911200       0.340533
    10106.114200       0.344361
    10116.337900       0.348206
    10126.582300       0.352068
    10136.847400       0.355946
    10147.133400       0.359840
    10157.440300       0.363750
    10167.768200       0.367676
    10178.117000       0.371617
    10188.487000       0.375573
    10198.878100       0.379544
    10209.290500       0.383529
    10219.724100       0.387529
    10230.179000       0.391542
    10240.655400       0.395570
    10251.153300       0.399611
    10261.672700       0.403665
    10272.213700       0.407731
    10282.776300       0.411810
    10293.360800       0.415902
    10303.967000       0.420005
    10314.595200       0.424120
    10325.245200       0.428245
    10335.917300       0.432383
    10346.611500       0.436530
    10357.327800       0.440688
    10368.066400       0.444855
    10378.827200       0.449033
    10389.610400       0.453219
    10400.416000       0.457415
    10411.244100       0.461619
    10422.094800       0.465831
    10432.968200       0.470051
    10443.864200       0.474279
    10454.783100       0.478514
    10465.724800       0.482756
    10476.689400       0.487004
    10487.677000       0.491258
    10498.687700       0.495518
    10509.721500       0.499784
    10520.778500       0.504054
    10531.858900       0.508329
    10542.962600       0.512609
    10554.089700       0.516892
    10565.240400       0.521178
    10576.414600       0.525468
    10587.612500       0.529760
    10598.834100       0.534055
    10610.079600       0.538352
    10621.348900       0.542650
    10632.642200       0.546950
    10643.959600       0.551250
    10655.301000       0.555551
    10666.666700       0.559851
    10678.056600       0.564152
    10689.470900       0.568451
    10700.909600       0.572749
    10712.372800       0.577046
    10723.860600       0.581340
    10735.373100       0.585632
    10746.910300       0.589922
    10758.472300       0.594208
    10770.059200       0.598490
    10781.671200       0.602769
    10793.308100       0.607043
    10804.970300       0.611312
    10816.657700       0.615576
    10828.370300       0.619834
    10840.108400       0.624086
    10851.871900       0.628331
    10863.661100       0.632570
    10875.475800       0.636801
    10887.316300       0.641025
    10899.182600       0.645240
    10911.074700       0.649447
    10922.992900       0.653645
    10934.937100       0.657833
    10946.907500       0.662012
    10958.904100       0.666180
    10970.927000       0.670338
    10982.976400       0.674485
    10995.052200       0.678620
    11007.154700       0.682743
    11019.283700       0.686854
    11031.439600       0.690953
    11043.622300       0.695039
    11055.832000       0.699111
    11068.068600       0.703169
    11080.332400       0.707213
    11092.623400       0.711242
    11104.941700       0.715256
    11117.287400       0.719254
    11129.660500       0.723237
    11142.061300       0.727204
    11154.489700       0.731153
    11166.945800       0.735086
    11179.429800       0.739001
    11191.941800       0.742899
    11204.481800       0.746778
    11217.049900       0.750639
    11229.646300       0.754481
    11242.270900       0.758303
    11254.924000       0.762106
    11267.605600       0.765888
    11280.315800       0.769650
    11293.054800       0.773391
    11305.822500       0.777111
    11318.619100       0.780809
    11331.444800       0.784486
    11344.299500       0.788140
    11357.183400       0.791771
    11370.096600       0.795380
    11383.039300       0.798965
    11396.011400       0.802526
    11409.013100       0.806063
    11422.044500       0.809576
    11435.105800       0.813064
    11448.196900       0.816527
    11461.318100       0.819965
    11474.469300       0.823377
    11487.650800       0.826763
    11500.862600       0.830123
    11514.104800       0.833455
    11527.377500       0.836761
    11540.680900       0.840040
    11554.015000       0.843291
    11567.380000       0.846514
    11580.775900       0.849709
    11594.202900       0.852876
    11607.661100       0.856014
    11621.150500       0.859122
    11634.671300       0.862202
    11648.223600       0.865252
    11661.807600       0.868272
    11675.423200       0.871262
    11689.070700       0.874221
    11702.750100       0.877150
    11716.461600       0.880048
    11730.205300       0.882915
    11743.981200       0.885751
    11757.789500       0.888554
    11771.630400       0.891327
    11785.503800       0.894067
    11799.410000       0.896774
    11813.349100       0.899450
    11827.321100       0.902092
    11841.326200       0.904702
    11855.364600       0.907279
    11869.436200       0.909822
    11883.541300       0.912332
    11897.680000       0.914808
    11911.852300       0.917251
    11926.058400       0.919659
    11940.298500       0.922033
    11954.572600       0.924373
    11968.880900       0.926678
    11983.223500       0.928949
    11997.600500       0.931185
    12012.012000       0.933386
    12026.458200       0.935552
    12040.939200       0.937683
    12055.455100       0.939779
    12070.006000       0.941839
    12084.592100       0.943863
    12099.213600       0.945852
    12113.870400       0.947806
    12128.562800       0.949723
    12143.290800       0.951605
    12158.054700       0.953451
    12172.854500       0.955260
    12187.690400       0.957034
    12202.562500       0.958771
    12217.471000       0.960472
    12232.415900       0.962137
    12247.397400       0.963765
    12262.415700       0.965358
    12277.470800       0.966913
    12292.563000       0.968433
    12307.692300       0.969916
    12322.858900       0.971362
    12338.062900       0.972772
    12353.304500       0.974146
    12368.583800       0.975483
    12383.900900       0.976784
    12399.256000       0.978048
    12414.649300       0.979277
    12430.080800       0.980468
    12445.550700       0.981624
    12461.059200       0.982743
    12476.606400       0.983826
    12492.192400       0.984873
    12507.817400       0.985883
    12523.481500       0.986858
    12539.185000       0.987797
    12554.927800       0.988700
    12570.710200       0.989567
    12586.532400       0.990399
    12602.394500       0.991194
    12618.296500       0.991955
    12634.238800       0.992680
    12650.221400       0.993370
    12666.244500       0.994025
    12682.308200       0.994644
    12698.412700       0.995229
    12714.558200       0.995779
    12730.744700       0.996295
    12746.972600       0.996776
    12763.241900       0.997223
    12779.552700       0.997636
    12795.905300       0.998015
    12812.299800       0.998360
    12828.736400       0.998672
    12845.215200       0.998950
    12861.736300       0.999195
    12878.300100       0.999408
    12894.906500       0.999587
    12911.555800       0.999734
    12928.248200       0.999848
    12944.983800       0.999931
    12961.762800       0.999981
    12978.585300       1.000000
    12995.451600       0.999987
    13012.361700       0.999944
    13029.316000       0.999869
    13046.314400       0.999764
    13063.357300       0.999628
    13080.444700       0.999462
    13097.576900       0.999266
    13114.754100       0.999041
    13131.976400       0.998786
    13149.243900       0.998502
    13166.556900       0.998189
    13183.915600       0.997848
    13201.320100       0.997479
    13218.770700       0.997082
    13236.267400       0.996657
    13253.810500       0.996205
    13271.400100       0.995726
    13289.036500       0.995221
    13306.719900       0.994689
    13324.450400       0.994131
    13342.228200       0.993548
    13360.053400       0.992939
    13377.926400       0.992305
    13395.847300       0.991647
    13413.816200       0.990964
    13431.833400       0.990258
    13449.899100       0.989528
    13468.013500       0.988774
    13486.176700       0.987998
    13504.388900       0.987199
    13522.650400       0.986379
    13540.961400       0.985536
    13559.322000       0.984672
    13577.732500       0.983787
    13596.193100       0.982881
    13614.703900       0.981956
    13633.265200       0.981010
    13651.877100       0.980045
    13670.540000       0.979060
    13689.253900       0.978057
    13708.019200       0.977036
    13726.836000       0.975997
    13745.704500       0.974940
    13764.624900       0.973866
    13783.597500       0.972776
    13802.622500       0.971669
    13821.700100       0.970547
    13840.830400       0.969408
    13860.013900       0.968255
    13879.250500       0.967087
    13898.540700       0.965905
    13917.884500       0.964709
    13937.282200       0.963500
    13956.734100       0.962278
    13976.240400       0.961043
    13995.801300       0.959796
    14015.417000       0.958537
    14035.087700       0.957267
    14054.813800       0.955986
    14074.595400       0.954694
    14094.432700       0.953393
    14114.326000       0.952082
    14134.275600       0.950761
    14154.281700       0.949432
    14174.344400       0.948094
    14194.464200       0.946749
    14214.641100       0.945395
    14234.875400       0.944035
    14255.167500       0.942668
    14275.517500       0.941295
    14295.925700       0.939916
    14316.392300       0.938531
    14336.917600       0.937141
    14357.501800       0.935747
    14378.145200       0.934349
    14398.848100       0.932946
    14419.610700       0.931541
    14440.433200       0.930132
    14461.316000       0.928721
    14482.259200       0.927307
    14503.263200       0.925892
    14524.328200       0.924475
    14545.454500       0.923058
    14566.642400       0.921640
    14587.892000       0.920221
    14609.203800       0.918803
    14630.577900       0.917386
    14652.014700       0.915969
    14673.514300       0.914554
    14695.077100       0.913140
    14716.703500       0.911729
    14738.393500       0.910320
    14760.147600       0.908914
    14781.966000       0.907511
    14803.849000       0.906112
    14825.796900       0.904716
    14847.809900       0.903325
    14869.888500       0.901939
    14892.032800       0.900557
    14914.243100       0.899181
    14936.519800       0.897810
    14958.863100       0.896446
    14981.273400       0.895088
    15003.750900       0.893736
    15026.296000       0.892392
    15048.909000       0.891054
    15071.590100       0.889725
    15094.339600       0.888403
    15117.158000       0.887089
    15140.045400       0.885784
    15163.002300       0.884487
    15186.028900       0.883200
    15209.125500       0.881922
    15232.292500       0.880653
    15255.530100       0.879395
    15278.838800       0.878146
    15302.218800       0.876908
    15325.670500       0.875681
    15349.194200       0.874464
    15372.790200       0.873259
    15396.458800       0.872064
    15420.200500       0.870882
    15444.015400       0.869711
    15467.904100       0.868552
    15491.866800       0.867405
    15515.903800       0.866270
    15540.015500       0.865148
    15564.202300       0.864039
    15588.464500       0.862943
    15612.802500       0.861860
    15637.216600       0.860789
    15661.707100       0.859733
    15686.274500       0.858690
    15710.919100       0.857660
    15735.641200       0.856644
    15760.441300       0.855642
    15785.319700       0.854654
    15810.276700       0.853680
    15835.312700       0.852721
    15860.428200       0.851775
    15885.623500       0.850844
    15910.899000       0.849927
    15936.255000       0.849025
    15961.691900       0.848138
    15987.210200       0.847265
    16012.810200       0.846406
    16038.492400       0.845562
    16064.257000       0.844733
    16090.104600       0.843919
    16116.035500       0.843119
    16142.050000       0.842333
    16168.148700       0.841563
    16194.332000       0.840807
    16220.600200       0.840065
    16246.953700       0.839338
    16273.393000       0.838626
    16299.918500       0.837928
    16326.530600       0.837244
    16353.229800       0.836574
    16380.016400       0.835919
    16406.890900       0.835278
    16433.853700       0.834650
    16460.905300       0.834037
    16488.046200       0.833437
    16515.276600       0.832850
    16542.597200       0.832277
    16570.008300       0.831717
    16597.510400       0.831171
    16625.103900       0.830637
    16652.789300       0.830116
    16680.567100       0.829607
    16708.437800       0.829110
    16736.401700       0.828626
    16764.459300       0.828153
    16792.611300       0.827692
    16820.857900       0.827243
    16849.199700       0.826804
    16877.637100       0.826376
    16906.170800       0.825959
    16934.801000       0.825552
    16963.528400       0.825154
    16992.353400       0.824767
    17021.276600       0.824389
    17050.298400       0.824019
    17079.419300       0.823659
    17108.639900       0.823306
    17137.960600       0.822962
    17167.382000       0.822625
    17196.904600       0.822295
    17226.528900       0.821972
    17256.255400       0.821656
    17286.084700       0.821345
    17316.017300       0.821040
    17346.053800       0.820741
    17376.194600       0.820445
    17406.440400       0.820154
    17436.791600       0.819867
    17467.248900       0.819584
    17497.812800       0.819303
    17528.483800       0.819024
    17559.262500       0.818747
    17590.149500       0.818472
    17621.145400       0.818198
    17652.250700       0.817924
    17683.466000       0.817649
    17714.791900       0.817374
    17746.228900       0.817098
    17777.777800       0.816820
    17809.439000       0.816539
    17841.213200       0.816255
    17873.101000       0.815968
    17905.103000       0.815677
    17937.219700       0.815381
    17969.451900       0.815079
    18001.800200       0.814772
    18034.265100       0.814458
    18066.847300       0.814136
    18099.547500       0.813807
    18132.366300       0.813469
    18165.304300       0.813123
    18198.362100       0.812766
    18231.540600       0.812398
    18264.840200       0.812020
    18298.261700       0.811629
    18331.805700       0.811226
    18365.472900       0.810810
    18399.264000       0.810379
    18433.179700       0.809934
    18467.220700       0.809473
    18501.387600       0.808996
    18535.681200       0.808503
    18570.102100       0.807991
    18604.651200       0.807462
    18639.329000       0.806913
    18674.136300       0.806344
    18709.073900       0.805754
    18744.142500       0.805143
    18779.342700       0.804510
    18814.675400       0.803854
    18850.141400       0.803174
    18885.741300       0.802469
    18921.475900       0.801739
    18957.346000       0.800983
    18993.352300       0.800200
    19029.495700       0.799389
    19065.776900       0.798550
    19102.196800       0.797681
    19138.756000       0.796782
    19175.455400       0.795852
    19212.295900       0.794890
    19249.278200       0.793896
    19286.403100       0.792868
    19323.671500       0.791805
    19361.084200       0.790708
    19398.642100       0.789575
    19436.346000       0.788404
    19474.196700       0.787196
    19512.195100       0.785950
    19550.342100       0.784664
    19588.638600       0.783339
    19627.085400       0.781972
    19665.683400       0.780563
    19704.433500       0.779112
    19743.336600       0.777617
    19782.393700       0.776078
    19821.605600       0.774494
    19860.973200       0.772864
    19900.497500       0.771187
    19940.179500       0.769462
    19980.020000       0.767689
    20020.020000       0.765866
    20060.180500       0.763994
    20100.502500       0.762070
    20140.986900       0.760095
    20181.634700       0.758067
    20222.446900       0.755986
    20263.424500       0.753851
    20304.568500       0.751661
    20345.880000       0.749415
    20387.359800       0.747113
    20429.009200       0.744753
    20470.829100       0.742335
    20512.820500       0.739858
    20554.984600       0.737322
    20597.322300       0.734725
    20639.834900       0.732068
    20682.523300       0.729348
    20725.388600       0.726566
    20768.432000       0.723720
    20811.654500       0.720811
    20855.057400       0.717837
    20898.641600       0.714797
    20942.408400       0.711691
    20986.358900       0.708519
    21030.494200       0.705279
    21074.815600       0.701971
    21119.324200       0.698594
    21164.021200       0.695148
    21208.907700       0.691632
    21253.985100       0.688045
    21299.254500       0.684387
    21344.717200       0.680657
    21390.374300       0.676855
    21436.227200       0.672980
    21482.277100       0.669032
    21528.525300       0.665010
    21574.973000       0.660913
    21621.621600       0.656741
    21668.472400       0.652494
    21715.526600       0.648171
    21762.785600       0.643772
    21810.250800       0.639295
    21857.923500       0.634742
    21905.805000       0.630111
    21953.896800       0.625402
    22002.200200       0.620615
    22050.716600       0.615750
    22099.447500       0.610805
    22148.394200       0.605781
    22197.558300       0.600677
    22246.941000       0.595494
    22296.544000       0.590231
    22346.368700       0.584887
    22396.416600       0.579464
    22446.689100       0.573959
    22497.187900       0.568374
    22547.914300       0.562708
    22598.870100       0.556961
    22650.056600       0.551133
    22701.475600       0.545224
    22753.128600       0.539234
    22805.017100       0.533163
    22857.142900       0.527011
    22909.507400       0.520779
    22962.112500       0.514465
    23014.959700       0.508070
    23068.050700       0.501595
    23121.387300       0.495039
    23174.971000       0.488404
    23228.803700       0.481688
    23282.887100       0.474892
    23337.222900       0.468017
    23391.812900       0.461063
    23446.658900       0.454031
    23501.762600       0.446919
    23557.126000       0.439730
    23612.750900       0.432464
    23668.639100       0.425120
    23724.792400       0.417700
    23781.212800       0.410204
    23837.902300       0.402632
    23894.862600       0.394986
    23952.095800       0.387266
    24009.603800       0.379473
    24067.388700       0.371606
    24125.452400       0.363669
    24183.796900       0.355660
    24242.424200       0.347580
    24301.336600       0.339432
    24360.535900       0.331215
    24420.024400       0.322931
    24479.804200       0.314580
    24539.877300       0.306164
    24600.246000       0.297684
    24660.912500       0.289140
    24721.878900       0.280535
    24783.147500       0.271869
    24844.720500       0.263143
    24906.600200       0.254359
    24968.789000       0.245519
    25031.289100       0.236623
    25094.102900       0.227673
    25157.232700       0.218670
    25220.681000       0.209616
    25284.450100       0.200513
    25348.542500       0.191363
    25412.960600       0.182166
    25477.707000       0.172925
