157,   157, MVIRI VIS channel from srf_MET7_2017078_2017079_1801-Release_S10EE_10.dat
Number of data points:
793
Wavenumber (cm-1)   Filter response
     8442.380800       0.000000
     8449.514200       0.000000
     8456.659600       0.000004
     8463.817200       0.000057
     8470.986900       0.000169
     8478.168700       0.000339
     8485.362700       0.000563
     8492.569000       0.000842
     8499.787500       0.001174
     8507.018300       0.001556
     8514.261400       0.001987
     8521.516800       0.002467
     8528.784600       0.002993
     8536.064900       0.003565
     8543.357500       0.004180
     8550.662700       0.004838
     8557.980300       0.005538
     8565.310500       0.006279
     8572.653200       0.007059
     8580.008600       0.007877
     8587.376600       0.008732
     8594.757200       0.009624
     8602.150500       0.010551
     8609.556600       0.011513
     8616.975400       0.012509
     8624.407100       0.013537
     8631.851500       0.014598
     8639.308900       0.015690
     8646.779100       0.016813
     8654.262200       0.017965
     8661.758300       0.019147
     8669.267400       0.020358
     8676.789600       0.021597
     8684.324800       0.022863
     8691.873100       0.024157
     8699.434500       0.025477
     8707.009100       0.026823
     8714.596900       0.028195
     8722.198000       0.029592
     8729.812300       0.031014
     8737.439900       0.032460
     8745.080900       0.033931
     8752.735200       0.035425
     8760.403000       0.036943
     8768.084200       0.038484
     8775.778900       0.040048
     8783.487000       0.041635
     8791.208800       0.043244
     8798.944100       0.044875
     8806.693100       0.046529
     8814.455700       0.048204
     8822.232000       0.049901
     8830.022100       0.051619
     8837.825900       0.053359
     8845.643500       0.055121
     8853.475000       0.056904
     8861.320300       0.058707
     8869.179600       0.060532
     8877.052800       0.062378
     8884.940000       0.064245
     8892.841300       0.066133
     8900.756600       0.068042
     8908.686000       0.069971
     8916.629500       0.071922
     8924.587200       0.073893
     8932.559200       0.075885
     8940.545400       0.077898
     8948.545900       0.079932
     8956.560700       0.081987
     8964.589900       0.084063
     8972.633500       0.086160
     8980.691500       0.088278
     8988.764000       0.090417
     8996.851100       0.092577
     9004.952700       0.094759
     9013.068900       0.096962
     9021.199800       0.099186
     9029.345400       0.101432
     9037.505600       0.103699
     9045.680700       0.105987
     9053.870500       0.108298
     9062.075200       0.110630
     9070.294800       0.112984
     9078.529300       0.115360
     9086.778700       0.117758
     9095.043200       0.120178
     9103.322700       0.122620
     9111.617300       0.125084
     9119.927000       0.127571
     9128.251900       0.130081
     9136.592100       0.132613
     9144.947400       0.135167
     9153.318100       0.137744
     9161.704100       0.140344
     9170.105500       0.142967
     9178.522300       0.145613
     9186.954500       0.148281
     9195.402300       0.150973
     9203.865600       0.153688
     9212.344500       0.156426
     9220.839100       0.159188
     9229.349300       0.161973
     9237.875300       0.164781
     9246.417000       0.167613
     9254.974500       0.170469
     9263.547900       0.173348
     9272.137200       0.176250
     9280.742500       0.179176
     9289.363700       0.182126
     9298.000900       0.185100
     9306.654300       0.188097
     9315.323700       0.191118
     9324.009300       0.194163
     9332.711200       0.197232
     9341.429200       0.200324
     9350.163600       0.203441
     9358.914400       0.206581
     9367.681500       0.209745
     9376.465100       0.212932
     9385.265100       0.216143
     9394.081700       0.219379
     9402.914900       0.222637
     9411.764700       0.225920
     9420.631200       0.229226
     9429.514400       0.232555
     9438.414300       0.235908
     9447.331100       0.239284
     9456.264800       0.242684
     9465.215300       0.246107
     9474.182900       0.249553
     9483.167400       0.253023
     9492.169000       0.256515
     9501.187600       0.260030
     9510.223500       0.263569
     9519.276500       0.267129
     9528.346800       0.270712
     9537.434400       0.274318
     9546.539400       0.277946
     9555.661700       0.281596
     9564.801500       0.285268
     9573.958800       0.288962
     9583.133700       0.292678
     9592.326100       0.296414
     9601.536200       0.300173
     9610.764100       0.303952
     9620.009600       0.307753
     9629.273000       0.311575
     9638.554200       0.315416
     9647.853400       0.319279
     9657.170400       0.323161
     9666.505600       0.327064
     9675.858700       0.330986
     9685.230000       0.334927
     9694.619500       0.338888
     9704.027200       0.342868
     9713.453100       0.346866
     9722.897400       0.350883
     9732.360100       0.354918
     9741.841200       0.358972
     9751.340800       0.363042
     9760.859000       0.367131
     9770.395700       0.371236
     9779.951100       0.375358
     9789.525200       0.379497
     9799.118100       0.383652
     9808.729800       0.387822
     9818.360300       0.392009
     9828.009800       0.396210
     9837.678300       0.400427
     9847.365800       0.404658
     9857.072400       0.408903
     9866.798200       0.413163
     9876.543200       0.417435
     9886.307500       0.421722
     9896.091000       0.426021
     9905.894000       0.430332
     9915.716400       0.434656
     9925.558300       0.438991
     9935.419800       0.443337
     9945.300800       0.447695
     9955.201600       0.452063
     9965.122100       0.456442
     9975.062300       0.460830
     9985.022500       0.465228
     9995.002500       0.469635
    10005.002500       0.474050
    10015.022500       0.478474
    10025.062700       0.482905
    10035.122900       0.487343
    10045.203400       0.491789
    10055.304200       0.496241
    10065.425300       0.500700
    10075.566800       0.505163
    10085.728700       0.509632
    10095.911200       0.514106
    10106.114200       0.518585
    10116.337900       0.523067
    10126.582300       0.527552
    10136.847400       0.532041
    10147.133400       0.536532
    10157.440300       0.541025
    10167.768200       0.545520
    10178.117000       0.550016
    10188.487000       0.554513
    10198.878100       0.559010
    10209.290500       0.563507
    10219.724100       0.568003
    10230.179000       0.572498
    10240.655400       0.576991
    10251.153300       0.581483
    10261.672700       0.585971
    10272.213700       0.590457
    10282.776300       0.594939
    10293.360800       0.599417
    10303.967000       0.603891
    10314.595200       0.608360
    10325.245200       0.612823
    10335.917300       0.617281
    10346.611500       0.621732
    10357.327800       0.626176
    10368.066400       0.630613
    10378.827200       0.635042
    10389.610400       0.639463
    10400.416000       0.643875
    10411.244100       0.648278
    10422.094800       0.652671
    10432.968200       0.657054
    10443.864200       0.661426
    10454.783100       0.665787
    10465.724800       0.670137
    10476.689400       0.674474
    10487.677000       0.678799
    10498.687700       0.683111
    10509.721500       0.687409
    10520.778500       0.691693
    10531.858900       0.695962
    10542.962600       0.700217
    10554.089700       0.704457
    10565.240400       0.708680
    10576.414600       0.712887
    10587.612500       0.717078
    10598.834100       0.721251
    10610.079600       0.725407
    10621.348900       0.729544
    10632.642200       0.733663
    10643.959600       0.737763
    10655.301000       0.741843
    10666.666700       0.745903
    10678.056600       0.749943
    10689.470900       0.753962
    10700.909600       0.757961
    10712.372800       0.761937
    10723.860600       0.765891
    10735.373100       0.769823
    10746.910300       0.773731
    10758.472300       0.777617
    10770.059200       0.781478
    10781.671200       0.785316
    10793.308100       0.789128
    10804.970300       0.792917
    10816.657700       0.796679
    10828.370300       0.800416
    10840.108400       0.804126
    10851.871900       0.807810
    10863.661100       0.811467
    10875.475800       0.815097
    10887.316300       0.818699
    10899.182600       0.822273
    10911.074700       0.825818
    10922.992900       0.829335
    10934.937100       0.832823
    10946.907500       0.836281
    10958.904100       0.839709
    10970.927000       0.843107
    10982.976400       0.846475
    10995.052200       0.849811
    11007.154700       0.853117
    11019.283700       0.856391
    11031.439600       0.859634
    11043.622300       0.862844
    11055.832000       0.866022
    11068.068600       0.869167
    11080.332400       0.872279
    11092.623400       0.875358
    11104.941700       0.878403
    11117.287400       0.881415
    11129.660500       0.884392
    11142.061300       0.887335
    11154.489700       0.890243
    11166.945800       0.893117
    11179.429800       0.895955
    11191.941800       0.898758
    11204.481800       0.901525
    11217.049900       0.904257
    11229.646300       0.906952
    11242.270900       0.909611
    11254.924000       0.912234
    11267.605600       0.914820
    11280.315800       0.917370
    11293.054800       0.919882
    11305.822500       0.922356
    11318.619100       0.924794
    11331.444800       0.927194
    11344.299500       0.929556
    11357.183400       0.931880
    11370.096600       0.934166
    11383.039300       0.936414
    11396.011400       0.938624
    11409.013100       0.940795
    11422.044500       0.942927
    11435.105800       0.945021
    11448.196900       0.947076
    11461.318100       0.949092
    11474.469300       0.951069
    11487.650800       0.953006
    11500.862600       0.954905
    11514.104800       0.956764
    11527.377500       0.958584
    11540.680900       0.960365
    11554.015000       0.962106
    11567.380000       0.963807
    11580.775900       0.965469
    11594.202900       0.967092
    11607.661100       0.968674
    11621.150500       0.970217
    11634.671300       0.971721
    11648.223600       0.973184
    11661.807600       0.974608
    11675.423200       0.975993
    11689.070700       0.977338
    11702.750100       0.978643
    11716.461600       0.979908
    11730.205300       0.981134
    11743.981200       0.982320
    11757.789500       0.983467
    11771.630400       0.984574
    11785.503800       0.985642
    11799.410000       0.986670
    11813.349100       0.987660
    11827.321100       0.988610
    11841.326200       0.989521
    11855.364600       0.990393
    11869.436200       0.991226
    11883.541300       0.992021
    11897.680000       0.992776
    11911.852300       0.993493
    11926.058400       0.994172
    11940.298500       0.994813
    11954.572600       0.995415
    11968.880900       0.995979
    11983.223500       0.996506
    11997.600500       0.996994
    12012.012000       0.997445
    12026.458200       0.997859
    12040.939200       0.998236
    12055.455100       0.998575
    12070.006000       0.998878
    12084.592100       0.999144
    12099.213600       0.999374
    12113.870400       0.999568
    12128.562800       0.999725
    12143.290800       0.999847
    12158.054700       0.999933
    12172.854500       0.999984
    12187.690400       1.000000
    12202.562500       0.999981
    12217.471000       0.999927
    12232.415900       0.999839
    12247.397400       0.999717
    12262.415700       0.999562
    12277.470800       0.999372
    12292.563000       0.999150
    12307.692300       0.998894
    12322.858900       0.998606
    12338.062900       0.998285
    12353.304500       0.997932
    12368.583800       0.997548
    12383.900900       0.997132
    12399.256000       0.996685
    12414.649300       0.996206
    12430.080800       0.995698
    12445.550700       0.995159
    12461.059200       0.994590
    12476.606400       0.993992
    12492.192400       0.993364
    12507.817400       0.992708
    12523.481500       0.992023
    12539.185000       0.991310
    12554.927800       0.990569
    12570.710200       0.989801
    12586.532400       0.989006
    12602.394500       0.988184
    12618.296500       0.987335
    12634.238800       0.986461
    12650.221400       0.985561
    12666.244500       0.984636
    12682.308200       0.983686
    12698.412700       0.982712
    12714.558200       0.981713
    12730.744700       0.980692
    12746.972600       0.979646
    12763.241900       0.978579
    12779.552700       0.977488
    12795.905300       0.976376
    12812.299800       0.975242
    12828.736400       0.974087
    12845.215200       0.972911
    12861.736300       0.971715
    12878.300100       0.970499
    12894.906500       0.969264
    12911.555800       0.968009
    12928.248200       0.966736
    12944.983800       0.965445
    12961.762800       0.964136
    12978.585300       0.962810
    12995.451600       0.961467
    13012.361700       0.960107
    13029.316000       0.958731
    13046.314400       0.957340
    13063.357300       0.955934
    13080.444700       0.954513
    13097.576900       0.953078
    13114.754100       0.951630
    13131.976400       0.950167
    13149.243900       0.948692
    13166.556900       0.947205
    13183.915600       0.945706
    13201.320100       0.944195
    13218.770700       0.942673
    13236.267400       0.941141
    13253.810500       0.939598
    13271.400100       0.938046
    13289.036500       0.936484
    13306.719900       0.934914
    13324.450400       0.933335
    13342.228200       0.931749
    13360.053400       0.930155
    13377.926400       0.928554
    13395.847300       0.926946
    13413.816200       0.925333
    13431.833400       0.923714
    13449.899100       0.922089
    13468.013500       0.920460
    13486.176700       0.918827
    13504.388900       0.917190
    13522.650400       0.915549
    13540.961400       0.913906
    13559.322000       0.912260
    13577.732500       0.910611
    13596.193100       0.908962
    13614.703900       0.907311
    13633.265200       0.905659
    13651.877100       0.904007
    13670.540000       0.902355
    13689.253900       0.900703
    13708.019200       0.899053
    13726.836000       0.897404
    13745.704500       0.895756
    13764.624900       0.894111
    13783.597500       0.892468
    13802.622500       0.890829
    13821.700100       0.889192
    13840.830400       0.887560
    13860.013900       0.885932
    13879.250500       0.884308
    13898.540700       0.882690
    13917.884500       0.881077
    13937.282200       0.879470
    13956.734100       0.877869
    13976.240400       0.876274
    13995.801300       0.874686
    14015.417000       0.873106
    14035.087700       0.871533
    14054.813800       0.869969
    14074.595400       0.868413
    14094.432700       0.866865
    14114.326000       0.865327
    14134.275600       0.863798
    14154.281700       0.862278
    14174.344400       0.860769
    14194.464200       0.859271
    14214.641100       0.857783
    14234.875400       0.856306
    14255.167500       0.854840
    14275.517500       0.853387
    14295.925700       0.851945
    14316.392300       0.850515
    14336.917600       0.849098
    14357.501800       0.847694
    14378.145200       0.846304
    14398.848100       0.844926
    14419.610700       0.843562
    14440.433200       0.842212
    14461.316000       0.840877
    14482.259200       0.839556
    14503.263200       0.838249
    14524.328200       0.836958
    14545.454500       0.835681
    14566.642400       0.834420
    14587.892000       0.833175
    14609.203800       0.831945
    14630.577900       0.830732
    14652.014700       0.829535
    14673.514300       0.828354
    14695.077100       0.827189
    14716.703500       0.826042
    14738.393500       0.824911
    14760.147600       0.823797
    14781.966000       0.822701
    14803.849000       0.821622
    14825.796900       0.820561
    14847.809900       0.819517
    14869.888500       0.818491
    14892.032800       0.817483
    14914.243100       0.816492
    14936.519800       0.815520
    14958.863100       0.814566
    14981.273400       0.813631
    15003.750900       0.812713
    15026.296000       0.811815
    15048.909000       0.810934
    15071.590100       0.810072
    15094.339600       0.809229
    15117.158000       0.808404
    15140.045400       0.807598
    15163.002300       0.806811
    15186.028900       0.806042
    15209.125500       0.805292
    15232.292500       0.804560
    15255.530100       0.803847
    15278.838800       0.803153
    15302.218800       0.802477
    15325.670500       0.801820
    15349.194200       0.801181
    15372.790200       0.800561
    15396.458800       0.799958
    15420.200500       0.799375
    15444.015400       0.798809
    15467.904100       0.798262
    15491.866800       0.797732
    15515.903800       0.797221
    15540.015500       0.796727
    15564.202300       0.796250
    15588.464500       0.795792
    15612.802500       0.795350
    15637.216600       0.794926
    15661.707100       0.794519
    15686.274500       0.794128
    15710.919100       0.793754
    15735.641200       0.793397
    15760.441300       0.793056
    15785.319700       0.792731
    15810.276700       0.792422
    15835.312700       0.792128
    15860.428200       0.791850
    15885.623500       0.791587
    15910.899000       0.791339
    15936.255000       0.791105
    15961.691900       0.790886
    15987.210200       0.790680
    16012.810200       0.790489
    16038.492400       0.790311
    16064.257000       0.790146
    16090.104600       0.789994
    16116.035500       0.789854
    16142.050000       0.789727
    16168.148700       0.789611
    16194.332000       0.789507
    16220.600200       0.789414
    16246.953700       0.789331
    16273.393000       0.789259
    16299.918500       0.789197
    16326.530600       0.789145
    16353.229800       0.789101
    16380.016400       0.789067
    16406.890900       0.789040
    16433.853700       0.789022
    16460.905300       0.789011
    16488.046200       0.789007
    16515.276600       0.789010
    16542.597200       0.789019
    16570.008300       0.789033
    16597.510400       0.789053
    16625.103900       0.789077
    16652.789300       0.789105
    16680.567100       0.789137
    16708.437800       0.789173
    16736.401700       0.789211
    16764.459300       0.789251
    16792.611300       0.789292
    16820.857900       0.789335
    16849.199700       0.789378
    16877.637100       0.789421
    16906.170800       0.789464
    16934.801000       0.789506
    16963.528400       0.789545
    16992.353400       0.789583
    17021.276600       0.789617
    17050.298400       0.789648
    17079.419300       0.789675
    17108.639900       0.789697
    17137.960600       0.789714
    17167.382000       0.789725
    17196.904600       0.789730
    17226.528900       0.789727
    17256.255400       0.789716
    17286.084700       0.789697
    17316.017300       0.789669
    17346.053800       0.789631
    17376.194600       0.789583
    17406.440400       0.789524
    17436.791600       0.789453
    17467.248900       0.789369
    17497.812800       0.789273
    17528.483800       0.789163
    17559.262500       0.789038
    17590.149500       0.788898
    17621.145400       0.788743
    17652.250700       0.788571
    17683.466000       0.788382
    17714.791900       0.788175
    17746.228900       0.787949
    17777.777800       0.787704
    17809.439000       0.787439
    17841.213200       0.787153
    17873.101000       0.786846
    17905.103000       0.786517
    17937.219700       0.786164
    17969.451900       0.785789
    18001.800200       0.785389
    18034.265100       0.784964
    18066.847300       0.784513
    18099.547500       0.784035
    18132.366300       0.783531
    18165.304300       0.782998
    18198.362100       0.782437
    18231.540600       0.781847
    18264.840200       0.781226
    18298.261700       0.780575
    18331.805700       0.779892
    18365.472900       0.779176
    18399.264000       0.778428
    18433.179700       0.777646
    18467.220700       0.776830
    18501.387600       0.775978
    18535.681200       0.775090
    18570.102100       0.774166
    18604.651200       0.773205
    18639.329000       0.772205
    18674.136300       0.771167
    18709.073900       0.770089
    18744.142500       0.768972
    18779.342700       0.767813
    18814.675400       0.766613
    18850.141400       0.765370
    18885.741300       0.764085
    18921.475900       0.762756
    18957.346000       0.761383
    18993.352300       0.759965
    19029.495700       0.758502
    19065.776900       0.756992
    19102.196800       0.755435
    19138.756000       0.753831
    19175.455400       0.752179
    19212.295900       0.750478
    19249.278200       0.748727
    19286.403100       0.746927
    19323.671500       0.745075
    19361.084200       0.743173
    19398.642100       0.741219
    19436.346000       0.739212
    19474.196700       0.737153
    19512.195100       0.735040
    19550.342100       0.732873
    19588.638600       0.730651
    19627.085400       0.728374
    19665.683400       0.726041
    19704.433500       0.723653
    19743.336600       0.721208
    19782.393700       0.718705
    19821.605600       0.716145
    19860.973200       0.713527
    19900.497500       0.710850
    19940.179500       0.708115
    19980.020000       0.705320
    20020.020000       0.702466
    20060.180500       0.699551
    20100.502500       0.696576
    20140.986900       0.693540
    20181.634700       0.690442
    20222.446900       0.687284
    20263.424500       0.684063
    20304.568500       0.680780
    20345.880000       0.677435
    20387.359800       0.674028
    20429.009200       0.670557
    20470.829100       0.667023
    20512.820500       0.663426
    20554.984600       0.659766
    20597.322300       0.656041
    20639.834900       0.652253
    20682.523300       0.648402
    20725.388600       0.644486
    20768.432000       0.640506
    20811.654500       0.636462
    20855.057400       0.632353
    20898.641600       0.628181
    20942.408400       0.623944
    20986.358900       0.619643
    21030.494200       0.615278
    21074.815600       0.610849
    21119.324200       0.606356
    21164.021200       0.601799
    21208.907700       0.597179
    21253.985100       0.592495
    21299.254500       0.587748
    21344.717200       0.582938
    21390.374300       0.578066
    21436.227200       0.573130
    21482.277100       0.568133
    21528.525300       0.563074
    21574.973000       0.557953
    21621.621600       0.552772
    21668.472400       0.547530
    21715.526600       0.542228
    21762.785600       0.536866
    21810.250800       0.531445
    21857.923500       0.525965
    21905.805000       0.520428
    21953.896800       0.514833
    22002.200200       0.509182
    22050.716600       0.503475
    22099.447500       0.497712
    22148.394200       0.491896
    22197.558300       0.486025
    22246.941000       0.480102
    22296.544000       0.474126
    22346.368700       0.468100
    22396.416600       0.462023
    22446.689100       0.455897
    22497.187900       0.449723
    22547.914300       0.443502
    22598.870100       0.437235
    22650.056600       0.430924
    22701.475600       0.424568
    22753.128600       0.418170
    22805.017100       0.411731
    22857.142900       0.405252
    22909.507400       0.398734
    22962.112500       0.392179
    23014.959700       0.385589
    23068.050700       0.378963
    23121.387300       0.372306
    23174.971000       0.365617
    23228.803700       0.358898
    23282.887100       0.352151
    23337.222900       0.345378
    23391.812900       0.338581
    23446.658900       0.331760
    23501.762600       0.324919
    23557.126000       0.318058
    23612.750900       0.311181
    23668.639100       0.304288
    23724.792400       0.297382
    23781.212800       0.290465
    23837.902300       0.283539
    23894.862600       0.276607
    23952.095800       0.269669
    24009.603800       0.262730
    24067.388700       0.255790
    24125.452400       0.248853
    24183.796900       0.241922
    24242.424200       0.234997
    24301.336600       0.228082
    24360.535900       0.221180
    24420.024400       0.214293
    24479.804200       0.207424
    24539.877300       0.200576
    24600.246000       0.193752
    24660.912500       0.186954
    24721.878900       0.180185
    24783.147500       0.173448
    24844.720500       0.166748
    24906.600200       0.160085
    24968.789000       0.153465
    25031.289100       0.146890
    25094.102900       0.140362
    25157.232700       0.133887
    25220.681000       0.127467
    25284.450100       0.121105
    25348.542500       0.114806
    25412.960600       0.108572
    25477.707000       0.102408
