72,   72, MVIRI VIS channel from srf_MET2_1991033_1991034_1801-Release_S10EL_10.dat
Number of data points:
730
Wavenumber (cm-1)   Filter response
     8916.629500       0.000000
     8924.587200       0.000000
     8932.559200       0.000002
     8940.545400       0.000012
     8948.545900       0.000033
     8956.560700       0.000070
     8964.589900       0.000128
     8972.633500       0.000211
     8980.691500       0.000323
     8988.764000       0.000468
     8996.851100       0.000649
     9004.952700       0.000871
     9013.068900       0.001136
     9021.199800       0.001448
     9029.345400       0.001810
     9037.505600       0.002224
     9045.680700       0.002694
     9053.870500       0.003223
     9062.075200       0.003812
     9070.294800       0.004464
     9078.529300       0.005182
     9086.778700       0.005967
     9095.043200       0.006822
     9103.322700       0.007748
     9111.617300       0.008747
     9119.927000       0.009821
     9128.251900       0.010972
     9136.592100       0.012200
     9144.947400       0.013508
     9153.318100       0.014896
     9161.704100       0.016365
     9170.105500       0.017916
     9178.522300       0.019551
     9186.954500       0.021270
     9195.402300       0.023074
     9203.865600       0.024964
     9212.344500       0.026940
     9220.839100       0.029002
     9229.349300       0.031151
     9237.875300       0.033387
     9246.417000       0.035711
     9254.974500       0.038122
     9263.547900       0.040622
     9272.137200       0.043208
     9280.742500       0.045883
     9289.363700       0.048645
     9298.000900       0.051495
     9306.654300       0.054432
     9315.323700       0.057455
     9324.009300       0.060565
     9332.711200       0.063761
     9341.429200       0.067042
     9350.163600       0.070409
     9358.914400       0.073860
     9367.681500       0.077395
     9376.465100       0.081013
     9385.265100       0.084713
     9394.081700       0.088495
     9402.914900       0.092358
     9411.764700       0.096301
     9420.631200       0.100323
     9429.514400       0.104423
     9438.414300       0.108600
     9447.331100       0.112854
     9456.264800       0.117183
     9465.215300       0.121586
     9474.182900       0.126062
     9483.167400       0.130610
     9492.169000       0.135228
     9501.187600       0.139917
     9510.223500       0.144674
     9519.276500       0.149498
     9528.346800       0.154389
     9537.434400       0.159344
     9546.539400       0.164362
     9555.661700       0.169443
     9564.801500       0.174584
     9573.958800       0.179785
     9583.133700       0.185044
     9592.326100       0.190360
     9601.536200       0.195732
     9610.764100       0.201157
     9620.009600       0.206635
     9629.273000       0.212165
     9638.554200       0.217744
     9647.853400       0.223372
     9657.170400       0.229046
     9666.505600       0.234766
     9675.858700       0.240531
     9685.230000       0.246338
     9694.619500       0.252186
     9704.027200       0.258074
     9713.453100       0.264001
     9722.897400       0.269964
     9732.360100       0.275962
     9741.841200       0.281995
     9751.340800       0.288060
     9760.859000       0.294157
     9770.395700       0.300283
     9779.951100       0.306436
     9789.525200       0.312617
     9799.118100       0.318823
     9808.729800       0.325053
     9818.360300       0.331305
     9828.009800       0.337578
     9837.678300       0.343871
     9847.365800       0.350182
     9857.072400       0.356509
     9866.798200       0.362852
     9876.543200       0.369209
     9886.307500       0.375578
     9896.091000       0.381959
     9905.894000       0.388349
     9915.716400       0.394748
     9925.558300       0.401154
     9935.419800       0.407566
     9945.300800       0.413983
     9955.201600       0.420402
     9965.122100       0.426824
     9975.062300       0.433245
     9985.022500       0.439667
     9995.002500       0.446086
    10005.002500       0.452503
    10015.022500       0.458914
    10025.062700       0.465320
    10035.122900       0.471720
    10045.203400       0.478111
    10055.304200       0.484493
    10065.425300       0.490865
    10075.566800       0.497225
    10085.728700       0.503573
    10095.911200       0.509907
    10106.114200       0.516226
    10116.337900       0.522529
    10126.582300       0.528815
    10136.847400       0.535083
    10147.133400       0.541332
    10157.440300       0.547561
    10167.768200       0.553768
    10178.117000       0.559954
    10188.487000       0.566116
    10198.878100       0.572255
    10209.290500       0.578368
    10219.724100       0.584456
    10230.179000       0.590516
    10240.655400       0.596550
    10251.153300       0.602554
    10261.672700       0.608529
    10272.213700       0.614474
    10282.776300       0.620387
    10293.360800       0.626269
    10303.967000       0.632118
    10314.595200       0.637933
    10325.245200       0.643715
    10335.917300       0.649461
    10346.611500       0.655172
    10357.327800       0.660846
    10368.066400       0.666484
    10378.827200       0.672083
    10389.610400       0.677645
    10400.416000       0.683167
    10411.244100       0.688649
    10422.094800       0.694091
    10432.968200       0.699493
    10443.864200       0.704853
    10454.783100       0.710171
    10465.724800       0.715447
    10476.689400       0.720679
    10487.677000       0.725869
    10498.687700       0.731014
    10509.721500       0.736114
    10520.778500       0.741170
    10531.858900       0.746181
    10542.962600       0.751145
    10554.089700       0.756064
    10565.240400       0.760936
    10576.414600       0.765760
    10587.612500       0.770538
    10598.834100       0.775268
    10610.079600       0.779950
    10621.348900       0.784583
    10632.642200       0.789168
    10643.959600       0.793704
    10655.301000       0.798191
    10666.666700       0.802628
    10678.056600       0.807016
    10689.470900       0.811353
    10700.909600       0.815641
    10712.372800       0.819878
    10723.860600       0.824065
    10735.373100       0.828201
    10746.910300       0.832286
    10758.472300       0.836320
    10770.059200       0.840303
    10781.671200       0.844235
    10793.308100       0.848115
    10804.970300       0.851943
    10816.657700       0.855720
    10828.370300       0.859446
    10840.108400       0.863119
    10851.871900       0.866741
    10863.661100       0.870311
    10875.475800       0.873830
    10887.316300       0.877296
    10899.182600       0.880710
    10911.074700       0.884073
    10922.992900       0.887383
    10934.937100       0.890642
    10946.907500       0.893849
    10958.904100       0.897004
    10970.927000       0.900108
    10982.976400       0.903160
    10995.052200       0.906160
    11007.154700       0.909109
    11019.283700       0.912006
    11031.439600       0.914852
    11043.622300       0.917647
    11055.832000       0.920391
    11068.068600       0.923084
    11080.332400       0.925726
    11092.623400       0.928317
    11104.941700       0.930858
    11117.287400       0.933348
    11129.660500       0.935789
    11142.061300       0.938179
    11154.489700       0.940520
    11166.945800       0.942811
    11179.429800       0.945052
    11191.941800       0.947244
    11204.481800       0.949387
    11217.049900       0.951482
    11229.646300       0.953527
    11242.270900       0.955524
    11254.924000       0.957474
    11267.605600       0.959375
    11280.315800       0.961229
    11293.054800       0.963035
    11305.822500       0.964794
    11318.619100       0.966506
    11331.444800       0.968171
    11344.299500       0.969790
    11357.183400       0.971363
    11370.096600       0.972891
    11383.039300       0.974372
    11396.011400       0.975809
    11409.013100       0.977200
    11422.044500       0.978547
    11435.105800       0.979849
    11448.196900       0.981107
    11461.318100       0.982322
    11474.469300       0.983493
    11487.650800       0.984620
    11500.862600       0.985705
    11514.104800       0.986748
    11527.377500       0.987748
    11540.680900       0.988706
    11554.015000       0.989623
    11567.380000       0.990498
    11580.775900       0.991333
    11594.202900       0.992127
    11607.661100       0.992880
    11621.150500       0.993594
    11634.671300       0.994268
    11648.223600       0.994902
    11661.807600       0.995498
    11675.423200       0.996055
    11689.070700       0.996573
    11702.750100       0.997054
    11716.461600       0.997497
    11730.205300       0.997903
    11743.981200       0.998272
    11757.789500       0.998604
    11771.630400       0.998900
    11785.503800       0.999160
    11799.410000       0.999384
    11813.349100       0.999573
    11827.321100       0.999727
    11841.326200       0.999846
    11855.364600       0.999931
    11869.436200       0.999982
    11883.541300       1.000000
    11897.680000       0.999984
    11911.852300       0.999936
    11926.058400       0.999854
    11940.298500       0.999741
    11954.572600       0.999595
    11968.880900       0.999418
    11983.223500       0.999209
    11997.600500       0.998970
    12012.012000       0.998700
    12026.458200       0.998399
    12040.939200       0.998069
    12055.455100       0.997708
    12070.006000       0.997319
    12084.592100       0.996900
    12099.213600       0.996452
    12113.870400       0.995976
    12128.562800       0.995472
    12143.290800       0.994940
    12158.054700       0.994381
    12172.854500       0.993794
    12187.690400       0.993181
    12202.562500       0.992540
    12217.471000       0.991874
    12232.415900       0.991181
    12247.397400       0.990463
    12262.415700       0.989719
    12277.470800       0.988950
    12292.563000       0.988156
    12307.692300       0.987337
    12322.858900       0.986494
    12338.062900       0.985627
    12353.304500       0.984736
    12368.583800       0.983822
    12383.900900       0.982885
    12399.256000       0.981924
    12414.649300       0.980941
    12430.080800       0.979935
    12445.550700       0.978907
    12461.059200       0.977857
    12476.606400       0.976785
    12492.192400       0.975692
    12507.817400       0.974577
    12523.481500       0.973442
    12539.185000       0.972286
    12554.927800       0.971109
    12570.710200       0.969912
    12586.532400       0.968695
    12602.394500       0.967458
    12618.296500       0.966202
    12634.238800       0.964926
    12650.221400       0.963631
    12666.244500       0.962317
    12682.308200       0.960984
    12698.412700       0.959632
    12714.558200       0.958263
    12730.744700       0.956875
    12746.972600       0.955469
    12763.241900       0.954045
    12779.552700       0.952604
    12795.905300       0.951146
    12812.299800       0.949670
    12828.736400       0.948178
    12845.215200       0.946668
    12861.736300       0.945142
    12878.300100       0.943600
    12894.906500       0.942041
    12911.555800       0.940466
    12928.248200       0.938875
    12944.983800       0.937268
    12961.762800       0.935646
    12978.585300       0.934008
    12995.451600       0.932355
    13012.361700       0.930687
    13029.316000       0.929003
    13046.314400       0.927305
    13063.357300       0.925592
    13080.444700       0.923865
    13097.576900       0.922123
    13114.754100       0.920367
    13131.976400       0.918596
    13149.243900       0.916812
    13166.556900       0.915014
    13183.915600       0.913202
    13201.320100       0.911376
    13218.770700       0.909537
    13236.267400       0.907684
    13253.810500       0.905818
    13271.400100       0.903939
    13289.036500       0.902047
    13306.719900       0.900142
    13324.450400       0.898224
    13342.228200       0.896293
    13360.053400       0.894350
    13377.926400       0.892394
    13395.847300       0.890426
    13413.816200       0.888446
    13431.833400       0.886453
    13449.899100       0.884448
    13468.013500       0.882431
    13486.176700       0.880403
    13504.388900       0.878362
    13522.650400       0.876310
    13540.961400       0.874246
    13559.322000       0.872170
    13577.732500       0.870083
    13596.193100       0.867985
    13614.703900       0.865875
    13633.265200       0.863754
    13651.877100       0.861622
    13670.540000       0.859479
    13689.253900       0.857325
    13708.019200       0.855160
    13726.836000       0.852985
    13745.704500       0.850798
    13764.624900       0.848601
    13783.597500       0.846393
    13802.622500       0.844175
    13821.700100       0.841946
    13840.830400       0.839707
    13860.013900       0.837458
    13879.250500       0.835198
    13898.540700       0.832928
    13917.884500       0.830649
    13937.282200       0.828359
    13956.734100       0.826059
    13976.240400       0.823749
    13995.801300       0.821430
    14015.417000       0.819100
    14035.087700       0.816761
    14054.813800       0.814413
    14074.595400       0.812055
    14094.432700       0.809687
    14114.326000       0.807310
    14134.275600       0.804924
    14154.281700       0.802529
    14174.344400       0.800124
    14194.464200       0.797710
    14214.641100       0.795287
    14234.875400       0.792855
    14255.167500       0.790414
    14275.517500       0.787965
    14295.925700       0.785506
    14316.392300       0.783039
    14336.917600       0.780563
    14357.501800       0.778079
    14378.145200       0.775586
    14398.848100       0.773085
    14419.610700       0.770575
    14440.433200       0.768057
    14461.316000       0.765531
    14482.259200       0.762996
    14503.263200       0.760454
    14524.328200       0.757904
    14545.454500       0.755345
    14566.642400       0.752779
    14587.892000       0.750205
    14609.203800       0.747624
    14630.577900       0.745034
    14652.014700       0.742438
    14673.514300       0.739834
    14695.077100       0.737222
    14716.703500       0.734603
    14738.393500       0.731978
    14760.147600       0.729345
    14781.966000       0.726705
    14803.849000       0.724057
    14825.796900       0.721404
    14847.809900       0.718743
    14869.888500       0.716076
    14892.032800       0.713402
    14914.243100       0.710722
    14936.519800       0.708035
    14958.863100       0.705342
    14981.273400       0.702643
    15003.750900       0.699938
    15026.296000       0.697227
    15048.909000       0.694510
    15071.590100       0.691787
    15094.339600       0.689059
    15117.158000       0.686324
    15140.045400       0.683585
    15163.002300       0.680840
    15186.028900       0.678090
    15209.125500       0.675335
    15232.292500       0.672574
    15255.530100       0.669809
    15278.838800       0.667039
    15302.218800       0.664264
    15325.670500       0.661484
    15349.194200       0.658701
    15372.790200       0.655913
    15396.458800       0.653120
    15420.200500       0.650324
    15444.015400       0.647523
    15467.904100       0.644719
    15491.866800       0.641911
    15515.903800       0.639099
    15540.015500       0.636284
    15564.202300       0.633465
    15588.464500       0.630643
    15612.802500       0.627818
    15637.216600       0.624991
    15661.707100       0.622160
    15686.274500       0.619326
    15710.919100       0.616490
    15735.641200       0.613652
    15760.441300       0.610811
    15785.319700       0.607968
    15810.276700       0.605124
    15835.312700       0.602277
    15860.428200       0.599428
    15885.623500       0.596578
    15910.899000       0.593727
    15936.255000       0.590874
    15961.691900       0.588020
    15987.210200       0.585165
    16012.810200       0.582308
    16038.492400       0.579452
    16064.257000       0.576595
    16090.104600       0.573737
    16116.035500       0.570879
    16142.050000       0.568020
    16168.148700       0.565162
    16194.332000       0.562304
    16220.600200       0.559446
    16246.953700       0.556589
    16273.393000       0.553732
    16299.918500       0.550876
    16326.530600       0.548021
    16353.229800       0.545167
    16380.016400       0.542314
    16406.890900       0.539463
    16433.853700       0.536613
    16460.905300       0.533764
    16488.046200       0.530918
    16515.276600       0.528073
    16542.597200       0.525230
    16570.008300       0.522390
    16597.510400       0.519552
    16625.103900       0.516716
    16652.789300       0.513884
    16680.567100       0.511054
    16708.437800       0.508227
    16736.401700       0.505403
    16764.459300       0.502583
    16792.611300       0.499766
    16820.857900       0.496952
    16849.199700       0.494142
    16877.637100       0.491336
    16906.170800       0.488534
    16934.801000       0.485737
    16963.528400       0.482943
    16992.353400       0.480154
    17021.276600       0.477369
    17050.298400       0.474590
    17079.419300       0.471815
    17108.639900       0.469045
    17137.960600       0.466280
    17167.382000       0.463520
    17196.904600       0.460765
    17226.528900       0.458016
    17256.255400       0.455273
    17286.084700       0.452536
    17316.017300       0.449804
    17346.053800       0.447078
    17376.194600       0.444359
    17406.440400       0.441645
    17436.791600       0.438938
    17467.248900       0.436237
    17497.812800       0.433543
    17528.483800       0.430856
    17559.262500       0.428175
    17590.149500       0.425502
    17621.145400       0.422835
    17652.250700       0.420175
    17683.466000       0.417523
    17714.791900       0.414877
    17746.228900       0.412240
    17777.777800       0.409609
    17809.439000       0.406986
    17841.213200       0.404371
    17873.101000       0.401764
    17905.103000       0.399164
    17937.219700       0.396572
    17969.451900       0.393988
    18001.800200       0.391412
    18034.265100       0.388844
    18066.847300       0.386285
    18099.547500       0.383733
    18132.366300       0.381190
    18165.304300       0.378655
    18198.362100       0.376128
    18231.540600       0.373610
    18264.840200       0.371100
    18298.261700       0.368599
    18331.805700       0.366106
    18365.472900       0.363622
    18399.264000       0.361146
    18433.179700       0.358679
    18467.220700       0.356221
    18501.387600       0.353771
    18535.681200       0.351330
    18570.102100       0.348897
    18604.651200       0.346474
    18639.329000       0.344058
    18674.136300       0.341652
    18709.073900       0.339254
    18744.142500       0.336865
    18779.342700       0.334485
    18814.675400       0.332113
    18850.141400       0.329750
    18885.741300       0.327396
    18921.475900       0.325050
    18957.346000       0.322712
    18993.352300       0.320383
    19029.495700       0.318063
    19065.776900       0.315751
    19102.196800       0.313447
    19138.756000       0.311152
    19175.455400       0.308865
    19212.295900       0.306586
    19249.278200       0.304315
    19286.403100       0.302053
    19323.671500       0.299798
    19361.084200       0.297551
    19398.642100       0.295313
    19436.346000       0.293082
    19474.196700       0.290858
    19512.195100       0.288642
    19550.342100       0.286434
    19588.638600       0.284233
    19627.085400       0.282039
    19665.683400       0.279853
    19704.433500       0.277673
    19743.336600       0.275501
    19782.393700       0.273335
    19821.605600       0.271176
    19860.973200       0.269024
    19900.497500       0.266878
    19940.179500       0.264738
    19980.020000       0.262605
    20020.020000       0.260478
    20060.180500       0.258356
    20100.502500       0.256241
    20140.986900       0.254131
    20181.634700       0.252026
    20222.446900       0.249927
    20263.424500       0.247833
    20304.568500       0.245744
    20345.880000       0.243659
    20387.359800       0.241580
    20429.009200       0.239504
    20470.829100       0.237434
    20512.820500       0.235367
    20554.984600       0.233304
    20597.322300       0.231245
    20639.834900       0.229190
    20682.523300       0.227138
    20725.388600       0.225090
    20768.432000       0.223044
    20811.654500       0.221002
    20855.057400       0.218962
    20898.641600       0.216924
    20942.408400       0.214889
    20986.358900       0.212856
    21030.494200       0.210825
    21074.815600       0.208796
    21119.324200       0.206768
    21164.021200       0.204742
    21208.907700       0.202716
    21253.985100       0.200692
    21299.254500       0.198668
    21344.717200       0.196645
    21390.374300       0.194623
    21436.227200       0.192601
    21482.277100       0.190578
    21528.525300       0.188555
    21574.973000       0.186532
    21621.621600       0.184509
    21668.472400       0.182484
    21715.526600       0.180459
    21762.785600       0.178433
    21810.250800       0.176405
    21857.923500       0.174376
    21905.805000       0.172345
    21953.896800       0.170312
    22002.200200       0.168277
    22050.716600       0.166240
    22099.447500       0.164201
    22148.394200       0.162159
    22197.558300       0.160115
    22246.941000       0.158067
    22296.544000       0.156017
    22346.368700       0.153964
    22396.416600       0.151907
    22446.689100       0.149847
    22497.187900       0.147784
    22547.914300       0.145717
    22598.870100       0.143646
    22650.056600       0.141571
    22701.475600       0.139493
    22753.128600       0.137410
    22805.017100       0.135324
    22857.142900       0.133233
    22909.507400       0.131138
    22962.112500       0.129038
    23014.959700       0.126934
    23068.050700       0.124826
    23121.387300       0.122713
    23174.971000       0.120596
    23228.803700       0.118474
    23282.887100       0.116347
    23337.222900       0.114217
    23391.812900       0.112081
    23446.658900       0.109941
    23501.762600       0.107797
    23557.126000       0.105648
    23612.750900       0.103495
    23668.639100       0.101338
    23724.792400       0.099176
    23781.212800       0.097011
    23837.902300       0.094841
    23894.862600       0.092668
    23952.095800       0.090491
    24009.603800       0.088310
    24067.388700       0.086126
    24125.452400       0.083939
    24183.796900       0.081749
    24242.424200       0.079556
    24301.336600       0.077360
    24360.535900       0.075162
    24420.024400       0.072962
    24479.804200       0.070761
    24539.877300       0.068558
    24600.246000       0.066353
    24660.912500       0.064148
    24721.878900       0.061943
    24783.147500       0.059738
    24844.720500       0.057533
    24906.600200       0.055328
    24968.789000       0.053125
    25031.289100       0.050924
    25094.102900       0.048724
    25157.232700       0.046528
    25220.681000       0.044334
    25284.450100       0.042145
    25348.542500       0.039959
    25412.960600       0.037779
    25477.707000       0.035604
