8,   8, MVIRI VIS channel from srf_MET3_1989303_1989304_1801-Release_S10EE_10.dat
Number of data points:
743
Wavenumber (cm-1)   Filter response
     8814.455700       0.000000
     8822.232000       0.000000
     8830.022100       0.000703
     8837.825900       0.002950
     8845.643500       0.005216
     8853.475000       0.007501
     8861.320300       0.009802
     8869.179600       0.012120
     8877.052800       0.014453
     8884.940000       0.016800
     8892.841300       0.019160
     8900.756600       0.021532
     8908.686000       0.023916
     8916.629500       0.026310
     8924.587200       0.028713
     8932.559200       0.031126
     8940.545400       0.033547
     8948.545900       0.035976
     8956.560700       0.038411
     8964.589900       0.040854
     8972.633500       0.043302
     8980.691500       0.045757
     8988.764000       0.048216
     8996.851100       0.050681
     9004.952700       0.053150
     9013.068900       0.055623
     9021.199800       0.058101
     9029.345400       0.060582
     9037.505600       0.063066
     9045.680700       0.065554
     9053.870500       0.068045
     9062.075200       0.070540
     9070.294800       0.073037
     9078.529300       0.075537
     9086.778700       0.078040
     9095.043200       0.080546
     9103.322700       0.083055
     9111.617300       0.085567
     9119.927000       0.088081
     9128.251900       0.090599
     9136.592100       0.093119
     9144.947400       0.095643
     9153.318100       0.098170
     9161.704100       0.100700
     9170.105500       0.103234
     9178.522300       0.105772
     9186.954500       0.108313
     9195.402300       0.110858
     9203.865600       0.113408
     9212.344500       0.115962
     9220.839100       0.118521
     9229.349300       0.121084
     9237.875300       0.123653
     9246.417000       0.126227
     9254.974500       0.128807
     9263.547900       0.131393
     9272.137200       0.133985
     9280.742500       0.136583
     9289.363700       0.139188
     9298.000900       0.141800
     9306.654300       0.144419
     9315.323700       0.147046
     9324.009300       0.149681
     9332.711200       0.152324
     9341.429200       0.154975
     9350.163600       0.157635
     9358.914400       0.160304
     9367.681500       0.162982
     9376.465100       0.165671
     9385.265100       0.168368
     9394.081700       0.171077
     9402.914900       0.173796
     9411.764700       0.176526
     9420.631200       0.179267
     9429.514400       0.182019
     9438.414300       0.184783
     9447.331100       0.187559
     9456.264800       0.190348
     9465.215300       0.193149
     9474.182900       0.195963
     9483.167400       0.198790
     9492.169000       0.201631
     9501.187600       0.204485
     9510.223500       0.207353
     9519.276500       0.210236
     9528.346800       0.213133
     9537.434400       0.216045
     9546.539400       0.218971
     9555.661700       0.221913
     9564.801500       0.224870
     9573.958800       0.227843
     9583.133700       0.230832
     9592.326100       0.233836
     9601.536200       0.236857
     9610.764100       0.239894
     9620.009600       0.242948
     9629.273000       0.246019
     9638.554200       0.249107
     9647.853400       0.252211
     9657.170400       0.255333
     9666.505600       0.258473
     9675.858700       0.261630
     9685.230000       0.264804
     9694.619500       0.267997
     9704.027200       0.271207
     9713.453100       0.274435
     9722.897400       0.277682
     9732.360100       0.280946
     9741.841200       0.284229
     9751.340800       0.287529
     9760.859000       0.290849
     9770.395700       0.294187
     9779.951100       0.297543
     9789.525200       0.300918
     9799.118100       0.304311
     9808.729800       0.307722
     9818.360300       0.311152
     9828.009800       0.314601
     9837.678300       0.318068
     9847.365800       0.321554
     9857.072400       0.325057
     9866.798200       0.328580
     9876.543200       0.332120
     9886.307500       0.335679
     9896.091000       0.339256
     9905.894000       0.342851
     9915.716400       0.346465
     9925.558300       0.350095
     9935.419800       0.353744
     9945.300800       0.357411
     9955.201600       0.361095
     9965.122100       0.364797
     9975.062300       0.368515
     9985.022500       0.372251
     9995.002500       0.376005
    10005.002500       0.379774
    10015.022500       0.383561
    10025.062700       0.387363
    10035.122900       0.391182
    10045.203400       0.395018
    10055.304200       0.398869
    10065.425300       0.402735
    10075.566800       0.406617
    10085.728700       0.410515
    10095.911200       0.414427
    10106.114200       0.418354
    10116.337900       0.422295
    10126.582300       0.426251
    10136.847400       0.430220
    10147.133400       0.434203
    10157.440300       0.438200
    10167.768200       0.442209
    10178.117000       0.446231
    10188.487000       0.450266
    10198.878100       0.454313
    10209.290500       0.458371
    10219.724100       0.462442
    10230.179000       0.466523
    10240.655400       0.470615
    10251.153300       0.474718
    10261.672700       0.478831
    10272.213700       0.482954
    10282.776300       0.487086
    10293.360800       0.491227
    10303.967000       0.495377
    10314.595200       0.499536
    10325.245200       0.503702
    10335.917300       0.507876
    10346.611500       0.512058
    10357.327800       0.516246
    10368.066400       0.520440
    10378.827200       0.524641
    10389.610400       0.528847
    10400.416000       0.533058
    10411.244100       0.537274
    10422.094800       0.541495
    10432.968200       0.545719
    10443.864200       0.549948
    10454.783100       0.554179
    10465.724800       0.558413
    10476.689400       0.562649
    10487.677000       0.566887
    10498.687700       0.571127
    10509.721500       0.575367
    10520.778500       0.579608
    10531.858900       0.583849
    10542.962600       0.588090
    10554.089700       0.592330
    10565.240400       0.596568
    10576.414600       0.600805
    10587.612500       0.605040
    10598.834100       0.609272
    10610.079600       0.613501
    10621.348900       0.617727
    10632.642200       0.621948
    10643.959600       0.626165
    10655.301000       0.630377
    10666.666700       0.634584
    10678.056600       0.638785
    10689.470900       0.642980
    10700.909600       0.647168
    10712.372800       0.651349
    10723.860600       0.655522
    10735.373100       0.659687
    10746.910300       0.663843
    10758.472300       0.667991
    10770.059200       0.672128
    10781.671200       0.676256
    10793.308100       0.680374
    10804.970300       0.684481
    10816.657700       0.688576
    10828.370300       0.692660
    10840.108400       0.696731
    10851.871900       0.700789
    10863.661100       0.704835
    10875.475800       0.708867
    10887.316300       0.712885
    10899.182600       0.716889
    10911.074700       0.720877
    10922.992900       0.724851
    10934.937100       0.728808
    10946.907500       0.732750
    10958.904100       0.736674
    10970.927000       0.740582
    10982.976400       0.744472
    10995.052200       0.748344
    11007.154700       0.752198
    11019.283700       0.756034
    11031.439600       0.759850
    11043.622300       0.763646
    11055.832000       0.767423
    11068.068600       0.771179
    11080.332400       0.774914
    11092.623400       0.778629
    11104.941700       0.782321
    11117.287400       0.785992
    11129.660500       0.789640
    11142.061300       0.793266
    11154.489700       0.796869
    11166.945800       0.800448
    11179.429800       0.804003
    11191.941800       0.807534
    11204.481800       0.811040
    11217.049900       0.814522
    11229.646300       0.817978
    11242.270900       0.821409
    11254.924000       0.824814
    11267.605600       0.828192
    11280.315800       0.831544
    11293.054800       0.834869
    11305.822500       0.838167
    11318.619100       0.841437
    11331.444800       0.844679
    11344.299500       0.847893
    11357.183400       0.851079
    11370.096600       0.854235
    11383.039300       0.857363
    11396.011400       0.860461
    11409.013100       0.863530
    11422.044500       0.866568
    11435.105800       0.869577
    11448.196900       0.872555
    11461.318100       0.875502
    11474.469300       0.878419
    11487.650800       0.881304
    11500.862600       0.884157
    11514.104800       0.886979
    11527.377500       0.889769
    11540.680900       0.892527
    11554.015000       0.895253
    11567.380000       0.897946
    11580.775900       0.900606
    11594.202900       0.903233
    11607.661100       0.905827
    11621.150500       0.908387
    11634.671300       0.910915
    11648.223600       0.913408
    11661.807600       0.915867
    11675.423200       0.918292
    11689.070700       0.920684
    11702.750100       0.923040
    11716.461600       0.925363
    11730.205300       0.927650
    11743.981200       0.929903
    11757.789500       0.932121
    11771.630400       0.934304
    11785.503800       0.936451
    11799.410000       0.938563
    11813.349100       0.940640
    11827.321100       0.942682
    11841.326200       0.944688
    11855.364600       0.946658
    11869.436200       0.948592
    11883.541300       0.950491
    11897.680000       0.952354
    11911.852300       0.954180
    11926.058400       0.955971
    11940.298500       0.957726
    11954.572600       0.959445
    11968.880900       0.961127
    11983.223500       0.962773
    11997.600500       0.964383
    12012.012000       0.965957
    12026.458200       0.967495
    12040.939200       0.968996
    12055.455100       0.970461
    12070.006000       0.971890
    12084.592100       0.973283
    12099.213600       0.974639
    12113.870400       0.975959
    12128.562800       0.977243
    12143.290800       0.978491
    12158.054700       0.979703
    12172.854500       0.980878
    12187.690400       0.982018
    12202.562500       0.983121
    12217.471000       0.984189
    12232.415900       0.985221
    12247.397400       0.986216
    12262.415700       0.987177
    12277.470800       0.988101
    12292.563000       0.988990
    12307.692300       0.989844
    12322.858900       0.990662
    12338.062900       0.991444
    12353.304500       0.992192
    12368.583800       0.992904
    12383.900900       0.993582
    12399.256000       0.994224
    12414.649300       0.994832
    12430.080800       0.995406
    12445.550700       0.995944
    12461.059200       0.996449
    12476.606400       0.996919
    12492.192400       0.997355
    12507.817400       0.997758
    12523.481500       0.998126
    12539.185000       0.998461
    12554.927800       0.998763
    12570.710200       0.999031
    12586.532400       0.999266
    12602.394500       0.999468
    12618.296500       0.999638
    12634.238800       0.999775
    12650.221400       0.999879
    12666.244500       0.999951
    12682.308200       0.999992
    12698.412700       1.000000
    12714.558200       0.999977
    12730.744700       0.999922
    12746.972600       0.999837
    12763.241900       0.999720
    12779.552700       0.999572
    12795.905300       0.999394
    12812.299800       0.999186
    12828.736400       0.998947
    12845.215200       0.998679
    12861.736300       0.998380
    12878.300100       0.998053
    12894.906500       0.997696
    12911.555800       0.997310
    12928.248200       0.996896
    12944.983800       0.996453
    12961.762800       0.995981
    12978.585300       0.995482
    12995.451600       0.994955
    13012.361700       0.994400
    13029.316000       0.993818
    13046.314400       0.993210
    13063.357300       0.992574
    13080.444700       0.991912
    13097.576900       0.991223
    13114.754100       0.990509
    13131.976400       0.989769
    13149.243900       0.989004
    13166.556900       0.988213
    13183.915600       0.987397
    13201.320100       0.986557
    13218.770700       0.985692
    13236.267400       0.984803
    13253.810500       0.983891
    13271.400100       0.982954
    13289.036500       0.981995
    13306.719900       0.981012
    13324.450400       0.980007
    13342.228200       0.978979
    13360.053400       0.977929
    13377.926400       0.976857
    13395.847300       0.975764
    13413.816200       0.974649
    13431.833400       0.973513
    13449.899100       0.972356
    13468.013500       0.971178
    13486.176700       0.969980
    13504.388900       0.968763
    13522.650400       0.967525
    13540.961400       0.966268
    13559.322000       0.964992
    13577.732500       0.963697
    13596.193100       0.962384
    13614.703900       0.961052
    13633.265200       0.959702
    13651.877100       0.958334
    13670.540000       0.956949
    13689.253900       0.955546
    13708.019200       0.954127
    13726.836000       0.952691
    13745.704500       0.951238
    13764.624900       0.949770
    13783.597500       0.948285
    13802.622500       0.946785
    13821.700100       0.945269
    13840.830400       0.943738
    13860.013900       0.942193
    13879.250500       0.940633
    13898.540700       0.939058
    13917.884500       0.937470
    13937.282200       0.935867
    13956.734100       0.934251
    13976.240400       0.932622
    13995.801300       0.930980
    14015.417000       0.929325
    14035.087700       0.927657
    14054.813800       0.925978
    14074.595400       0.924286
    14094.432700       0.922582
    14114.326000       0.920867
    14134.275600       0.919140
    14154.281700       0.917402
    14174.344400       0.915654
    14194.464200       0.913895
    14214.641100       0.912125
    14234.875400       0.910345
    14255.167500       0.908555
    14275.517500       0.906756
    14295.925700       0.904946
    14316.392300       0.903128
    14336.917600       0.901300
    14357.501800       0.899464
    14378.145200       0.897619
    14398.848100       0.895765
    14419.610700       0.893903
    14440.433200       0.892033
    14461.316000       0.890156
    14482.259200       0.888270
    14503.263200       0.886377
    14524.328200       0.884476
    14545.454500       0.882569
    14566.642400       0.880654
    14587.892000       0.878733
    14609.203800       0.876805
    14630.577900       0.874871
    14652.014700       0.872930
    14673.514300       0.870983
    14695.077100       0.869030
    14716.703500       0.867072
    14738.393500       0.865108
    14760.147600       0.863138
    14781.966000       0.861163
    14803.849000       0.859182
    14825.796900       0.857197
    14847.809900       0.855207
    14869.888500       0.853212
    14892.032800       0.851212
    14914.243100       0.849208
    14936.519800       0.847199
    14958.863100       0.845186
    14981.273400       0.843169
    15003.750900       0.841147
    15026.296000       0.839122
    15048.909000       0.837093
    15071.590100       0.835060
    15094.339600       0.833024
    15117.158000       0.830983
    15140.045400       0.828940
    15163.002300       0.826893
    15186.028900       0.824843
    15209.125500       0.822789
    15232.292500       0.820732
    15255.530100       0.818672
    15278.838800       0.816610
    15302.218800       0.814544
    15325.670500       0.812475
    15349.194200       0.810403
    15372.790200       0.808329
    15396.458800       0.806252
    15420.200500       0.804172
    15444.015400       0.802090
    15467.904100       0.800005
    15491.866800       0.797918
    15515.903800       0.795828
    15540.015500       0.793735
    15564.202300       0.791640
    15588.464500       0.789542
    15612.802500       0.787443
    15637.216600       0.785340
    15661.707100       0.783235
    15686.274500       0.781128
    15710.919100       0.779019
    15735.641200       0.776907
    15760.441300       0.774793
    15785.319700       0.772676
    15810.276700       0.770557
    15835.312700       0.768436
    15860.428200       0.766312
    15885.623500       0.764186
    15910.899000       0.762057
    15936.255000       0.759926
    15961.691900       0.757792
    15987.210200       0.755656
    16012.810200       0.753518
    16038.492400       0.751376
    16064.257000       0.749232
    16090.104600       0.747086
    16116.035500       0.744937
    16142.050000       0.742785
    16168.148700       0.740630
    16194.332000       0.738473
    16220.600200       0.736312
    16246.953700       0.734149
    16273.393000       0.731982
    16299.918500       0.729813
    16326.530600       0.727640
    16353.229800       0.725465
    16380.016400       0.723286
    16406.890900       0.721104
    16433.853700       0.718918
    16460.905300       0.716729
    16488.046200       0.714537
    16515.276600       0.712340
    16542.597200       0.710141
    16570.008300       0.707937
    16597.510400       0.705730
    16625.103900       0.703518
    16652.789300       0.701303
    16680.567100       0.699084
    16708.437800       0.696860
    16736.401700       0.694633
    16764.459300       0.692401
    16792.611300       0.690164
    16820.857900       0.687923
    16849.199700       0.685678
    16877.637100       0.683427
    16906.170800       0.681172
    16934.801000       0.678912
    16963.528400       0.676647
    16992.353400       0.674377
    17021.276600       0.672102
    17050.298400       0.669821
    17079.419300       0.667535
    17108.639900       0.665244
    17137.960600       0.662947
    17167.382000       0.660645
    17196.904600       0.658336
    17226.528900       0.656022
    17256.255400       0.653702
    17286.084700       0.651376
    17316.017300       0.649043
    17346.053800       0.646705
    17376.194600       0.644360
    17406.440400       0.642008
    17436.791600       0.639650
    17467.248900       0.637285
    17497.812800       0.634914
    17528.483800       0.632536
    17559.262500       0.630150
    17590.149500       0.627758
    17621.145400       0.625359
    17652.250700       0.622952
    17683.466000       0.620538
    17714.791900       0.618116
    17746.228900       0.615688
    17777.777800       0.613251
    17809.439000       0.610807
    17841.213200       0.608355
    17873.101000       0.605895
    17905.103000       0.603428
    17937.219700       0.600952
    17969.451900       0.598468
    18001.800200       0.595976
    18034.265100       0.593476
    18066.847300       0.590968
    18099.547500       0.588451
    18132.366300       0.585926
    18165.304300       0.583392
    18198.362100       0.580849
    18231.540600       0.578298
    18264.840200       0.575739
    18298.261700       0.573170
    18331.805700       0.570593
    18365.472900       0.568007
    18399.264000       0.565412
    18433.179700       0.562808
    18467.220700       0.560195
    18501.387600       0.557573
    18535.681200       0.554942
    18570.102100       0.552301
    18604.651200       0.549652
    18639.329000       0.546993
    18674.136300       0.544326
    18709.073900       0.541649
    18744.142500       0.538963
    18779.342700       0.536267
    18814.675400       0.533563
    18850.141400       0.530849
    18885.741300       0.528126
    18921.475900       0.525393
    18957.346000       0.522652
    18993.352300       0.519901
    19029.495700       0.517141
    19065.776900       0.514371
    19102.196800       0.511593
    19138.756000       0.508805
    19175.455400       0.506008
    19212.295900       0.503202
    19249.278200       0.500387
    19286.403100       0.497563
    19323.671500       0.494730
    19361.084200       0.491888
    19398.642100       0.489038
    19436.346000       0.486178
    19474.196700       0.483310
    19512.195100       0.480433
    19550.342100       0.477547
    19588.638600       0.474653
    19627.085400       0.471750
    19665.683400       0.468839
    19704.433500       0.465920
    19743.336600       0.462993
    19782.393700       0.460057
    19821.605600       0.457114
    19860.973200       0.454162
    19900.497500       0.451204
    19940.179500       0.448237
    19980.020000       0.445263
    20020.020000       0.442281
    20060.180500       0.439293
    20100.502500       0.436297
    20140.986900       0.433294
    20181.634700       0.430285
    20222.446900       0.427269
    20263.424500       0.424246
    20304.568500       0.421217
    20345.880000       0.418182
    20387.359800       0.415141
    20429.009200       0.412095
    20470.829100       0.409042
    20512.820500       0.405985
    20554.984600       0.402922
    20597.322300       0.399854
    20639.834900       0.396781
    20682.523300       0.393704
    20725.388600       0.390622
    20768.432000       0.387536
    20811.654500       0.384446
    20855.057400       0.381353
    20898.641600       0.378256
    20942.408400       0.375155
    20986.358900       0.372052
    21030.494200       0.368946
    21074.815600       0.365838
    21119.324200       0.362727
    21164.021200       0.359614
    21208.907700       0.356499
    21253.985100       0.353383
    21299.254500       0.350266
    21344.717200       0.347148
    21390.374300       0.344029
    21436.227200       0.340910
    21482.277100       0.337791
    21528.525300       0.334672
    21574.973000       0.331553
    21621.621600       0.328436
    21668.472400       0.325319
    21715.526600       0.322204
    21762.785600       0.319090
    21810.250800       0.315979
    21857.923500       0.312870
    21905.805000       0.309763
    21953.896800       0.306659
    22002.200200       0.303559
    22050.716600       0.300463
    22099.447500       0.297370
    22148.394200       0.294281
    22197.558300       0.291197
    22246.941000       0.288118
    22296.544000       0.285045
    22346.368700       0.281977
    22396.416600       0.278914
    22446.689100       0.275858
    22497.187900       0.272809
    22547.914300       0.269767
    22598.870100       0.266731
    22650.056600       0.263704
    22701.475600       0.260684
    22753.128600       0.257673
    22805.017100       0.254670
    22857.142900       0.251677
    22909.507400       0.248693
    22962.112500       0.245718
    23014.959700       0.242753
    23068.050700       0.239799
    23121.387300       0.236855
    23174.971000       0.233922
    23228.803700       0.231001
    23282.887100       0.228092
    23337.222900       0.225194
    23391.812900       0.222309
    23446.658900       0.219436
    23501.762600       0.216576
    23557.126000       0.213730
    23612.750900       0.210897
    23668.639100       0.208078
    23724.792400       0.205273
    23781.212800       0.202483
    23837.902300       0.199708
    23894.862600       0.196948
    23952.095800       0.194203
    24009.603800       0.191474
    24067.388700       0.188761
    24125.452400       0.186064
    24183.796900       0.183384
    24242.424200       0.180720
    24301.336600       0.178073
    24360.535900       0.175444
    24420.024400       0.172832
    24479.804200       0.170238
    24539.877300       0.167662
    24600.246000       0.165104
    24660.912500       0.162564
    24721.878900       0.160043
    24783.147500       0.157541
    24844.720500       0.155057
    24906.600200       0.152593
    24968.789000       0.150147
    25031.289100       0.147722
    25094.102900       0.145315
    25157.232700       0.142928
    25220.681000       0.140561
    25284.450100       0.138214
    25348.542500       0.135887
    25412.960600       0.133579
    25477.707000       0.131292
