6,    channel 6 SRF extracted from SRF_FY-3F_MERSI-III.zip(FY3F_MERSI_SRF_CH06_Pub.txt) (received Nov 2023)
Number of data points:
262
Wavenumber (cm-1)   Filter response
     5583.468200       0.000128
     5586.595600       0.000213
     5589.716200       0.000255
     5592.840500       0.000213
     5595.967500       0.000255
     5599.100100       0.000255
     5602.236800       0.000298
     5605.377700       0.000298
     5608.523700       0.000213
     5611.673900       0.000170
     5614.826900       0.000255
     5617.974100       0.000255
     5621.136100       0.000255
     5624.302000       0.000341
     5627.462000       0.000341
     5630.625200       0.000383
     5633.805000       0.000383
     5636.977300       0.000383
     5640.154100       0.000383
     5643.346300       0.000383
     5646.531500       0.000341
     5649.721000       0.000298
     5652.914800       0.000298
     5656.113400       0.000298
     5659.315300       0.000255
     5662.510300       0.000255
     5665.722100       0.000298
     5668.937800       0.000341
     5672.144900       0.000341
     5675.369500       0.000298
     5678.586200       0.000298
     5681.820100       0.000341
     5685.045100       0.000341
     5688.287300       0.000341
     5691.521600       0.000255
     5694.760200       0.000213
     5698.003700       0.000298
     5701.251400       0.000383
     5704.503300       0.000341
     5707.760600       0.000298
     5711.020600       0.000298
     5714.287000       0.000468
     5717.556500       0.000639
     5720.818600       0.000596
     5724.097800       0.000468
     5727.380500       0.000426
     5730.656700       0.000468
     5733.948600       0.000639
     5737.233300       0.000511
     5740.522500       0.000426
     5743.829300       0.000468
     5747.127100       0.000511
     5750.430000       0.000511
     5753.736600       0.000511
     5757.049100       0.000298
     5760.365000       0.000298
     5763.686800       0.000213
     5767.012000       0.000213
     5770.341800       0.000213
     5773.676400       0.000213
     5777.003200       0.000255
     5780.347200       0.000298
     5783.695700       0.000298
     5787.036700       0.000383
     5790.394000       0.000341
     5793.743100       0.000383
     5797.098400       0.000426
     5800.469800       0.000383
     5803.833600       0.000341
     5807.201300       0.000383
     5810.574900       0.000341
     5813.951800       0.000383
     5817.335300       0.000383
     5820.721400       0.000383
     5824.112500       0.000383
     5827.509200       0.000426
     5830.898000       0.000383
     5834.303300       0.000383
     5837.713700       0.000341
     5841.115400       0.000298
     5844.535700       0.000383
     5847.947100       0.000426
     5851.376800       0.000426
     5854.797900       0.000553
     5858.237700       0.000639
     5861.667100       0.000724
     5865.103000       0.000937
     5868.543900       0.001107
     5871.988200       0.001490
     5875.438200       0.002001
     5878.893400       0.002341
     5882.352600       0.002895
     5885.816900       0.003661
     5889.286700       0.004300
     5892.746700       0.005193
     5896.225000       0.005960
     5899.709200       0.006683
     5903.184200       0.007833
     5906.678000       0.008897
     5910.163400       0.010217
     5913.666200       0.011494
     5917.161200       0.012984
     5920.660000       0.014857
     5924.164300       0.017241
     5927.687500       0.019667
     5931.202700       0.022902
     5934.721300       0.026308
     5938.245500       0.030820
     5941.774500       0.035801
     5945.308500       0.041548
     5948.834000       0.048359
     5952.377800       0.056660
     5955.926500       0.066110
     5959.481200       0.077093
     5963.025700       0.089439
     5966.590300       0.104168
     5970.145700       0.122217
     5973.719200       0.143076
     5977.284200       0.166106
     5980.854100       0.191520
     5984.444000       0.221191
     5988.024700       0.254353
     5991.609600       0.288834
     5995.200200       0.324167
     5998.795900       0.361245
     6002.396600       0.401686
     6006.001700       0.444638
     6009.612100       0.486995
     6013.228400       0.529735
     6016.849700       0.573667
     6020.475800       0.617854
     6024.093100       0.661019
     6027.729400       0.701034
     6031.356500       0.736367
     6035.002700       0.768763
     6038.655400       0.798050
     6042.297900       0.828360
     6045.945600       0.855136
     6049.613400       0.879060
     6053.271000       0.899493
     6056.934500       0.918565
     6060.603900       0.936912
     6064.277700       0.952322
     6067.956700       0.962539
     6071.641700       0.971010
     6075.330800       0.978502
     6079.026600       0.983653
     6082.726500       0.989911
     6086.431300       0.994040
     6090.128000       0.997361
     6093.843400       0.999149
     6097.565100       1.000000
     6101.277200       0.998893
     6105.009500       0.996637
     6108.731800       0.993061
     6112.475400       0.988038
     6116.208000       0.981567
     6119.946900       0.974118
     6123.706200       0.964752
     6127.454400       0.953982
     6131.209400       0.942020
     6134.969700       0.925418
     6138.735000       0.904517
     6142.505800       0.881444
     6146.281900       0.853603
     6150.063800       0.822272
     6153.850700       0.787238
     6157.629400       0.750628
     6161.426000       0.711762
     6165.230400       0.671747
     6169.024600       0.629007
     6172.839100       0.585075
     6176.658700       0.541271
     6180.469000       0.496871
     6184.299900       0.452471
     6188.122300       0.408582
     6191.948500       0.366992
     6195.780700       0.327743
     6199.633800       0.291133
     6203.476300       0.257077
     6207.326200       0.226214
     6211.180100       0.197480
     6215.040800       0.172364
     6218.905900       0.149376
     6222.777700       0.129113
     6226.654300       0.111319
     6230.536200       0.095143
     6234.410100       0.080925
     6238.303200       0.068920
     6242.203100       0.058363
     6246.091900       0.049551
     6250.003500       0.041633
     6253.904000       0.034950
     6257.825000       0.029501
     6261.738000       0.024775
     6265.672000       0.020774
     6269.594800       0.017326
     6273.524100       0.014176
     6277.459200       0.012005
     6281.399900       0.010089
     6285.363000       0.008514
     6289.314100       0.007450
     6293.271400       0.006726
     6297.235200       0.006002
     6301.204400       0.005534
     6305.164300       0.005066
     6309.144700       0.004555
     6313.132100       0.004300
     6317.124600       0.004044
     6321.108100       0.003874
     6325.112300       0.003704
     6329.105900       0.003704
     6333.121800       0.003406
     6337.128800       0.003448
     6341.156100       0.003363
     6345.173200       0.003022
     6349.213200       0.002639
     6353.242600       0.002384
     6357.278300       0.002086
     6361.319100       0.002001
     6365.366300       0.001788
     6369.419400       0.001618
     6373.479000       0.001618
     6377.544500       0.001660
     6381.614400       0.001447
     6385.692000       0.001277
     6389.774700       0.001235
     6393.864300       0.001022
     6397.959200       0.000766
     6402.043300       0.000724
     6406.150700       0.000468
     6410.263400       0.000511
     6414.366100       0.000383
     6418.491800       0.000298
     6422.607200       0.000341
     6426.727800       0.000383
     6430.871100       0.000213
     6435.004400       0.000255
     6439.144600       0.000213
     6443.305600       0.000213
     6447.457000       0.000213
     6451.615000       0.000213
     6455.778300       0.000213
     6459.948700       0.000213
     6464.124900       0.000255
     6468.307800       0.000298
     6472.496500       0.000511
     6476.691100       0.000511
     6480.874700       0.000511
     6485.082600       0.000468
     6489.295600       0.000468
     6493.498100       0.000383
     6497.724100       0.000383
     6501.956900       0.000255
     6506.178300       0.000213
     6510.423400       0.000213
     6514.657600       0.000255
     6518.898400       0.000255
     6523.162300       0.000213
     6527.415600       0.000213
     6531.674800       0.000128
     6535.940900       0.000128
