   8  ,noaa_09_hirs_08.flt
Number of data points:
66
Wavenumber (cm-1)   Filter response
      850.020000       0.000000
      854.950000       0.000242
      858.200000       0.004906
      864.120000       0.008852
      869.680000       0.013209
      870.600000       0.014226
      871.110000       0.018318
      872.410000       0.032047
      873.690000       0.045381
      874.630000       0.063170
      875.430000       0.083989
      877.050000       0.136720
      877.860000       0.168630
      878.410000       0.211590
      879.250000       0.276590
      880.340000       0.373330
      881.320000       0.456960
      882.110000       0.551250
      883.140000       0.629150
      883.780000       0.688900
      884.440000       0.734900
      885.440000       0.776060
      887.030000       0.837730
      887.970000       0.864720
      889.310000       0.899430
      890.270000       0.924300
      891.210000       0.949900
      892.070000       0.963870
      893.070000       0.980090
      893.900000       0.988890
      894.820000       0.997090
      895.650000       0.998400
      896.380000       0.994150
      897.050000       0.982720
      897.820000       0.971120
      898.480000       0.957440
      899.300000       0.938110
      900.520000       0.914450
      901.750000       0.890570
      902.740000       0.876080
      904.000000       0.866730
      904.930000       0.868460
      905.680000       0.881470
      906.560000       0.902230
      908.380000       0.959850
      909.290000       0.989190
      910.010000       1.000000
      910.700000       0.997690
      911.180000       0.964900
      911.800000       0.921350
      912.810000       0.802130
      913.420000       0.697170
      914.370000       0.535840
      915.360000       0.373870
      916.040000       0.290590
      916.790000       0.229680
      918.140000       0.143720
      919.160000       0.088082
      919.950000       0.063240
      921.170000       0.045359
      923.010000       0.029795
      925.050000       0.016759
      931.920000       0.008335
      935.220000       0.005873
      936.870000       0.002740
      940.070000       0.000000
