3,   3, MVIRI VIS channel from srf_MET2_1982168_1982169_1801-Release_S10EL_10.dat
Number of data points:
730
Wavenumber (cm-1)   Filter response
     8916.629500       0.000000
     8924.587200       0.000000
     8932.559200       0.000002
     8940.545400       0.000011
     8948.545900       0.000032
     8956.560700       0.000068
     8964.589900       0.000124
     8972.633500       0.000205
     8980.691500       0.000313
     8988.764000       0.000454
     8996.851100       0.000630
     9004.952700       0.000845
     9013.068900       0.001102
     9021.199800       0.001404
     9029.345400       0.001755
     9037.505600       0.002158
     9045.680700       0.002614
     9053.870500       0.003127
     9062.075200       0.003698
     9070.294800       0.004331
     9078.529300       0.005028
     9086.778700       0.005790
     9095.043200       0.006620
     9103.322700       0.007519
     9111.617300       0.008490
     9119.927000       0.009533
     9128.251900       0.010650
     9136.592100       0.011843
     9144.947400       0.013113
     9153.318100       0.014462
     9161.704100       0.015889
     9170.105500       0.017396
     9178.522300       0.018985
     9186.954500       0.020656
     9195.402300       0.022409
     9203.865600       0.024245
     9212.344500       0.026166
     9220.839100       0.028170
     9229.349300       0.030260
     9237.875300       0.032434
     9246.417000       0.034694
     9254.974500       0.037039
     9263.547900       0.039470
     9272.137200       0.041986
     9280.742500       0.044588
     9289.363700       0.047275
     9298.000900       0.050047
     9306.654300       0.052905
     9315.323700       0.055847
     9324.009300       0.058874
     9332.711200       0.061985
     9341.429200       0.065179
     9350.163600       0.068457
     9358.914400       0.071817
     9367.681500       0.075259
     9376.465100       0.078783
     9385.265100       0.082386
     9394.081700       0.086071
     9402.914900       0.089833
     9411.764700       0.093675
     9420.631200       0.097595
     9429.514400       0.101590
     9438.414300       0.105662
     9447.331100       0.109808
     9456.264800       0.114028
     9465.215300       0.118321
     9474.182900       0.122685
     9483.167400       0.127121
     9492.169000       0.131625
     9501.187600       0.136199
     9510.223500       0.140840
     9519.276500       0.145547
     9528.346800       0.150319
     9537.434400       0.155155
     9546.539400       0.160053
     9555.661700       0.165013
     9564.801500       0.170032
     9573.958800       0.175111
     9583.133700       0.180247
     9592.326100       0.185439
     9601.536200       0.190686
     9610.764100       0.195986
     9620.009600       0.201339
     9629.273000       0.206743
     9638.554200       0.212196
     9647.853400       0.217698
     9657.170400       0.223245
     9666.505600       0.228839
     9675.858700       0.234477
     9685.230000       0.240156
     9694.619500       0.245878
     9704.027200       0.251638
     9713.453100       0.257438
     9722.897400       0.263274
     9732.360100       0.269146
     9741.841200       0.275052
     9751.340800       0.280991
     9760.859000       0.286961
     9770.395700       0.292962
     9779.951100       0.298990
     9789.525200       0.305047
     9799.118100       0.311129
     9808.729800       0.317235
     9818.360300       0.323364
     9828.009800       0.329515
     9837.678300       0.335686
     9847.365800       0.341877
     9857.072400       0.348084
     9866.798200       0.354308
     9876.543200       0.360546
     9886.307500       0.366798
     9896.091000       0.373063
     9905.894000       0.379338
     9915.716400       0.385623
     9925.558300       0.391915
     9935.419800       0.398216
     9945.300800       0.404522
     9955.201600       0.410831
     9965.122100       0.417145
     9975.062300       0.423460
     9985.022500       0.429776
     9995.002500       0.436092
    10005.002500       0.442405
    10015.022500       0.448716
    10025.062700       0.455022
    10035.122900       0.461323
    10045.203400       0.467618
    10055.304200       0.473905
    10065.425300       0.480184
    10075.566800       0.486452
    10085.728700       0.492710
    10095.911200       0.498956
    10106.114200       0.505188
    10116.337900       0.511407
    10126.582300       0.517610
    10136.847400       0.523797
    10147.133400       0.529967
    10157.440300       0.536118
    10167.768200       0.542251
    10178.117000       0.548363
    10188.487000       0.554454
    10198.878100       0.560523
    10209.290500       0.566569
    10219.724100       0.572591
    10230.179000       0.578588
    10240.655400       0.584560
    10251.153300       0.590505
    10261.672700       0.596423
    10272.213700       0.602313
    10282.776300       0.608174
    10293.360800       0.614005
    10303.967000       0.619806
    10314.595200       0.625575
    10325.245200       0.631312
    10335.917300       0.637017
    10346.611500       0.642688
    10357.327800       0.648325
    10368.066400       0.653928
    10378.827200       0.659494
    10389.610400       0.665025
    10400.416000       0.670519
    10411.244100       0.675976
    10422.094800       0.681395
    10432.968200       0.686775
    10443.864200       0.692116
    10454.783100       0.697418
    10465.724800       0.702679
    10476.689400       0.707900
    10487.677000       0.713080
    10498.687700       0.718218
    10509.721500       0.723314
    10520.778500       0.728367
    10531.858900       0.733377
    10542.962600       0.738344
    10554.089700       0.743267
    10565.240400       0.748146
    10576.414600       0.752980
    10587.612500       0.757770
    10598.834100       0.762514
    10610.079600       0.767212
    10621.348900       0.771865
    10632.642200       0.776471
    10643.959600       0.781030
    10655.301000       0.785543
    10666.666700       0.790009
    10678.056600       0.794427
    10689.470900       0.798798
    10700.909600       0.803121
    10712.372800       0.807396
    10723.860600       0.811622
    10735.373100       0.815801
    10746.910300       0.819931
    10758.472300       0.824012
    10770.059200       0.828044
    10781.671200       0.832027
    10793.308100       0.835961
    10804.970300       0.839846
    10816.657700       0.843681
    10828.370300       0.847467
    10840.108400       0.851204
    10851.871900       0.854891
    10863.661100       0.858528
    10875.475800       0.862116
    10887.316300       0.865654
    10899.182600       0.869142
    10911.074700       0.872581
    10922.992900       0.875970
    10934.937100       0.879310
    10946.907500       0.882599
    10958.904100       0.885839
    10970.927000       0.889030
    10982.976400       0.892171
    10995.052200       0.895262
    11007.154700       0.898304
    11019.283700       0.901297
    11031.439600       0.904240
    11043.622300       0.907135
    11055.832000       0.909980
    11068.068600       0.912776
    11080.332400       0.915524
    11092.623400       0.918223
    11104.941700       0.920873
    11117.287400       0.923475
    11129.660500       0.926029
    11142.061300       0.928535
    11154.489700       0.930992
    11166.945800       0.933402
    11179.429800       0.935764
    11191.941800       0.938080
    11204.481800       0.940347
    11217.049900       0.942568
    11229.646300       0.944742
    11242.270900       0.946869
    11254.924000       0.948951
    11267.605600       0.950986
    11280.315800       0.952975
    11293.054800       0.954918
    11305.822500       0.956816
    11318.619100       0.958669
    11331.444800       0.960476
    11344.299500       0.962239
    11357.183400       0.963958
    11370.096600       0.965632
    11383.039300       0.967263
    11396.011400       0.968849
    11409.013100       0.970393
    11422.044500       0.971893
    11435.105800       0.973351
    11448.196900       0.974765
    11461.318100       0.976138
    11474.469300       0.977469
    11487.650800       0.978758
    11500.862600       0.980005
    11514.104800       0.981212
    11527.377500       0.982377
    11540.680900       0.983502
    11554.015000       0.984587
    11567.380000       0.985632
    11580.775900       0.986638
    11594.202900       0.987604
    11607.661100       0.988531
    11621.150500       0.989420
    11634.671300       0.990270
    11648.223600       0.991082
    11661.807600       0.991857
    11675.423200       0.992594
    11689.070700       0.993294
    11702.750100       0.993957
    11716.461600       0.994584
    11730.205300       0.995175
    11743.981200       0.995730
    11757.789500       0.996249
    11771.630400       0.996733
    11785.503800       0.997183
    11799.410000       0.997598
    11813.349100       0.997978
    11827.321100       0.998325
    11841.326200       0.998638
    11855.364600       0.998918
    11869.436200       0.999166
    11883.541300       0.999380
    11897.680000       0.999562
    11911.852300       0.999712
    11926.058400       0.999831
    11940.298500       0.999918
    11954.572600       0.999974
    11968.880900       1.000000
    11983.223500       0.999995
    11997.600500       0.999960
    12012.012000       0.999895
    12026.458200       0.999801
    12040.939200       0.999678
    12055.455100       0.999525
    12070.006000       0.999345
    12084.592100       0.999135
    12099.213600       0.998898
    12113.870400       0.998634
    12128.562800       0.998342
    12143.290800       0.998022
    12158.054700       0.997676
    12172.854500       0.997304
    12187.690400       0.996905
    12202.562500       0.996481
    12217.471000       0.996030
    12232.415900       0.995555
    12247.397400       0.995054
    12262.415700       0.994528
    12277.470800       0.993978
    12292.563000       0.993404
    12307.692300       0.992806
    12322.858900       0.992184
    12338.062900       0.991538
    12353.304500       0.990869
    12368.583800       0.990178
    12383.900900       0.989463
    12399.256000       0.988726
    12414.649300       0.987967
    12430.080800       0.987186
    12445.550700       0.986384
    12461.059200       0.985559
    12476.606400       0.984714
    12492.192400       0.983847
    12507.817400       0.982960
    12523.481500       0.982053
    12539.185000       0.981124
    12554.927800       0.980176
    12570.710200       0.979208
    12586.532400       0.978221
    12602.394500       0.977214
    12618.296500       0.976187
    12634.238800       0.975142
    12650.221400       0.974078
    12666.244500       0.972995
    12682.308200       0.971894
    12698.412700       0.970775
    12714.558200       0.969637
    12730.744700       0.968482
    12746.972600       0.967309
    12763.241900       0.966119
    12779.552700       0.964911
    12795.905300       0.963687
    12812.299800       0.962445
    12828.736400       0.961187
    12845.215200       0.959912
    12861.736300       0.958620
    12878.300100       0.957313
    12894.906500       0.955989
    12911.555800       0.954650
    12928.248200       0.953295
    12944.983800       0.951924
    12961.762800       0.950537
    12978.585300       0.949136
    12995.451600       0.947719
    13012.361700       0.946287
    13029.316000       0.944840
    13046.314400       0.943379
    13063.357300       0.941902
    13080.444700       0.940412
    13097.576900       0.938907
    13114.754100       0.937388
    13131.976400       0.935854
    13149.243900       0.934307
    13166.556900       0.932746
    13183.915600       0.931171
    13201.320100       0.929583
    13218.770700       0.927981
    13236.267400       0.926365
    13253.810500       0.924737
    13271.400100       0.923095
    13289.036500       0.921440
    13306.719900       0.919772
    13324.450400       0.918091
    13342.228200       0.916397
    13360.053400       0.914691
    13377.926400       0.912972
    13395.847300       0.911241
    13413.816200       0.909497
    13431.833400       0.907741
    13449.899100       0.905972
    13468.013500       0.904192
    13486.176700       0.902399
    13504.388900       0.900595
    13522.650400       0.898778
    13540.961400       0.896950
    13559.322000       0.895110
    13577.732500       0.893258
    13596.193100       0.891394
    13614.703900       0.889519
    13633.265200       0.887633
    13651.877100       0.885735
    13670.540000       0.883826
    13689.253900       0.881906
    13708.019200       0.879974
    13726.836000       0.878031
    13745.704500       0.876078
    13764.624900       0.874113
    13783.597500       0.872137
    13802.622500       0.870150
    13821.700100       0.868153
    13840.830400       0.866145
    13860.013900       0.864126
    13879.250500       0.862096
    13898.540700       0.860056
    13917.884500       0.858006
    13937.282200       0.855945
    13956.734100       0.853873
    13976.240400       0.851791
    13995.801300       0.849699
    14015.417000       0.847597
    14035.087700       0.845484
    14054.813800       0.843362
    14074.595400       0.841229
    14094.432700       0.839086
    14114.326000       0.836933
    14134.275600       0.834771
    14154.281700       0.832598
    14174.344400       0.830416
    14194.464200       0.828224
    14214.641100       0.826022
    14234.875400       0.823810
    14255.167500       0.821589
    14275.517500       0.819359
    14295.925700       0.817119
    14316.392300       0.814869
    14336.917600       0.812610
    14357.501800       0.810342
    14378.145200       0.808065
    14398.848100       0.805778
    14419.610700       0.803482
    14440.433200       0.801178
    14461.316000       0.798864
    14482.259200       0.796541
    14503.263200       0.794209
    14524.328200       0.791869
    14545.454500       0.789519
    14566.642400       0.787161
    14587.892000       0.784795
    14609.203800       0.782419
    14630.577900       0.780036
    14652.014700       0.777643
    14673.514300       0.775243
    14695.077100       0.772834
    14716.703500       0.770417
    14738.393500       0.767991
    14760.147600       0.765558
    14781.966000       0.763116
    14803.849000       0.760667
    14825.796900       0.758209
    14847.809900       0.755744
    14869.888500       0.753271
    14892.032800       0.750791
    14914.243100       0.748302
    14936.519800       0.745807
    14958.863100       0.743304
    14981.273400       0.740793
    15003.750900       0.738276
    15026.296000       0.735751
    15048.909000       0.733219
    15071.590100       0.730680
    15094.339600       0.728134
    15117.158000       0.725582
    15140.045400       0.723023
    15163.002300       0.720457
    15186.028900       0.717884
    15209.125500       0.715305
    15232.292500       0.712720
    15255.530100       0.710129
    15278.838800       0.707531
    15302.218800       0.704928
    15325.670500       0.702318
    15349.194200       0.699703
    15372.790200       0.697082
    15396.458800       0.694455
    15420.200500       0.691823
    15444.015400       0.689185
    15467.904100       0.686542
    15491.866800       0.683895
    15515.903800       0.681242
    15540.015500       0.678583
    15564.202300       0.675921
    15588.464500       0.673253
    15612.802500       0.670581
    15637.216600       0.667905
    15661.707100       0.665224
    15686.274500       0.662539
    15710.919100       0.659850
    15735.641200       0.657157
    15760.441300       0.654460
    15785.319700       0.651759
    15810.276700       0.649055
    15835.312700       0.646347
    15860.428200       0.643636
    15885.623500       0.640922
    15910.899000       0.638205
    15936.255000       0.635485
    15961.691900       0.632762
    15987.210200       0.630036
    16012.810200       0.627308
    16038.492400       0.624578
    16064.257000       0.621845
    16090.104600       0.619110
    16116.035500       0.616374
    16142.050000       0.613635
    16168.148700       0.610895
    16194.332000       0.608154
    16220.600200       0.605411
    16246.953700       0.602666
    16273.393000       0.599921
    16299.918500       0.597175
    16326.530600       0.594428
    16353.229800       0.591680
    16380.016400       0.588932
    16406.890900       0.586183
    16433.853700       0.583435
    16460.905300       0.580686
    16488.046200       0.577937
    16515.276600       0.575189
    16542.597200       0.572441
    16570.008300       0.569693
    16597.510400       0.566947
    16625.103900       0.564201
    16652.789300       0.561456
    16680.567100       0.558712
    16708.437800       0.555969
    16736.401700       0.553228
    16764.459300       0.550488
    16792.611300       0.547751
    16820.857900       0.545015
    16849.199700       0.542281
    16877.637100       0.539549
    16906.170800       0.536819
    16934.801000       0.534092
    16963.528400       0.531367
    16992.353400       0.528646
    17021.276600       0.525927
    17050.298400       0.523211
    17079.419300       0.520498
    17108.639900       0.517788
    17137.960600       0.515082
    17167.382000       0.512380
    17196.904600       0.509681
    17226.528900       0.506986
    17256.255400       0.504295
    17286.084700       0.501607
    17316.017300       0.498924
    17346.053800       0.496246
    17376.194600       0.493572
    17406.440400       0.490902
    17436.791600       0.488237
    17467.248900       0.485577
    17497.812800       0.482922
    17528.483800       0.480272
    17559.262500       0.477627
    17590.149500       0.474987
    17621.145400       0.472353
    17652.250700       0.469724
    17683.466000       0.467101
    17714.791900       0.464483
    17746.228900       0.461871
    17777.777800       0.459265
    17809.439000       0.456665
    17841.213200       0.454071
    17873.101000       0.451483
    17905.103000       0.448902
    17937.219700       0.446326
    17969.451900       0.443757
    18001.800200       0.441195
    18034.265100       0.438639
    18066.847300       0.436089
    18099.547500       0.433546
    18132.366300       0.431010
    18165.304300       0.428481
    18198.362100       0.425958
    18231.540600       0.423442
    18264.840200       0.420934
    18298.261700       0.418432
    18331.805700       0.415937
    18365.472900       0.413449
    18399.264000       0.410968
    18433.179700       0.408494
    18467.220700       0.406028
    18501.387600       0.403568
    18535.681200       0.401116
    18570.102100       0.398671
    18604.651200       0.396232
    18639.329000       0.393801
    18674.136300       0.391378
    18709.073900       0.388961
    18744.142500       0.386551
    18779.342700       0.384149
    18814.675400       0.381754
    18850.141400       0.379365
    18885.741300       0.376984
    18921.475900       0.374610
    18957.346000       0.372242
    18993.352300       0.369882
    19029.495700       0.367529
    19065.776900       0.365182
    19102.196800       0.362842
    19138.756000       0.360509
    19175.455400       0.358182
    19212.295900       0.355862
    19249.278200       0.353549
    19286.403100       0.351242
    19323.671500       0.348941
    19361.084200       0.346646
    19398.642100       0.344358
    19436.346000       0.342075
    19474.196700       0.339799
    19512.195100       0.337528
    19550.342100       0.335263
    19588.638600       0.333003
    19627.085400       0.330749
    19665.683400       0.328500
    19704.433500       0.326257
    19743.336600       0.324018
    19782.393700       0.321785
    19821.605600       0.319556
    19860.973200       0.317331
    19900.497500       0.315111
    19940.179500       0.312896
    19980.020000       0.310684
    20020.020000       0.308476
    20060.180500       0.306272
    20100.502500       0.304072
    20140.986900       0.301875
    20181.634700       0.299681
    20222.446900       0.297490
    20263.424500       0.295302
    20304.568500       0.293116
    20345.880000       0.290933
    20387.359800       0.288752
    20429.009200       0.286572
    20470.829100       0.284395
    20512.820500       0.282219
    20554.984600       0.280044
    20597.322300       0.277870
    20639.834900       0.275697
    20682.523300       0.273525
    20725.388600       0.271353
    20768.432000       0.269181
    20811.654500       0.267008
    20855.057400       0.264836
    20898.641600       0.262662
    20942.408400       0.260488
    20986.358900       0.258312
    21030.494200       0.256135
    21074.815600       0.253956
    21119.324200       0.251775
    21164.021200       0.249592
    21208.907700       0.247406
    21253.985100       0.245218
    21299.254500       0.243026
    21344.717200       0.240831
    21390.374300       0.238632
    21436.227200       0.236430
    21482.277100       0.234223
    21528.525300       0.232012
    21574.973000       0.229795
    21621.621600       0.227574
    21668.472400       0.225348
    21715.526600       0.223116
    21762.785600       0.220878
    21810.250800       0.218634
    21857.923500       0.216384
    21905.805000       0.214127
    21953.896800       0.211863
    22002.200200       0.209592
    22050.716600       0.207314
    22099.447500       0.205027
    22148.394200       0.202733
    22197.558300       0.200431
    22246.941000       0.198119
    22296.544000       0.195800
    22346.368700       0.193471
    22396.416600       0.191133
    22446.689100       0.188786
    22497.187900       0.186429
    22547.914300       0.184062
    22598.870100       0.181685
    22650.056600       0.179298
    22701.475600       0.176900
    22753.128600       0.174491
    22805.017100       0.172072
    22857.142900       0.169641
    22909.507400       0.167200
    22962.112500       0.164746
    23014.959700       0.162282
    23068.050700       0.159805
    23121.387300       0.157317
    23174.971000       0.154817
    23228.803700       0.152305
    23282.887100       0.149781
    23337.222900       0.147244
    23391.812900       0.144696
    23446.658900       0.142135
    23501.762600       0.139561
    23557.126000       0.136975
    23612.750900       0.134377
    23668.639100       0.131767
    23724.792400       0.129143
    23781.212800       0.126508
    23837.902300       0.123860
    23894.862600       0.121200
    23952.095800       0.118528
    24009.603800       0.115844
    24067.388700       0.113148
    24125.452400       0.110441
    24183.796900       0.107721
    24242.424200       0.104990
    24301.336600       0.102249
    24360.535900       0.099496
    24420.024400       0.096732
    24479.804200       0.093959
    24539.877300       0.091175
    24600.246000       0.088381
    24660.912500       0.085578
    24721.878900       0.082766
    24783.147500       0.079946
    24844.720500       0.077117
    24906.600200       0.074281
    24968.789000       0.071438
    25031.289100       0.068588
    25094.102900       0.065732
    25157.232700       0.062871
    25220.681000       0.060006
    25284.450100       0.057136
    25348.542500       0.054262
    25412.960600       0.051387
    25477.707000       0.048509
