118,   118, MVIRI VIS channel from srf_MET7_2012123_2012124_1801-Release_S10EE_10.dat
Number of data points:
793
Wavenumber (cm-1)   Filter response
     8442.380800       0.000000
     8449.514200       0.000000
     8456.659600       0.000004
     8463.817200       0.000057
     8470.986900       0.000167
     8478.168700       0.000335
     8485.362700       0.000557
     8492.569000       0.000832
     8499.787500       0.001160
     8507.018300       0.001537
     8514.261400       0.001964
     8521.516800       0.002438
     8528.784600       0.002958
     8536.064900       0.003523
     8543.357500       0.004131
     8550.662700       0.004782
     8557.980300       0.005473
     8565.310500       0.006205
     8572.653200       0.006976
     8580.008600       0.007785
     8587.376600       0.008631
     8594.757200       0.009512
     8602.150500       0.010429
     8609.556600       0.011380
     8616.975400       0.012364
     8624.407100       0.013381
     8631.851500       0.014430
     8639.308900       0.015510
     8646.779100       0.016620
     8654.262200       0.017760
     8661.758300       0.018929
     8669.267400       0.020126
     8676.789600       0.021351
     8684.324800       0.022604
     8691.873100       0.023883
     8699.434500       0.025189
     8707.009100       0.026521
     8714.596900       0.027878
     8722.198000       0.029260
     8729.812300       0.030666
     8737.439900       0.032097
     8745.080900       0.033552
     8752.735200       0.035031
     8760.403000       0.036532
     8768.084200       0.038057
     8775.778900       0.039605
     8783.487000       0.041175
     8791.208800       0.042767
     8798.944100       0.044381
     8806.693100       0.046018
     8814.455700       0.047676
     8822.232000       0.049355
     8830.022100       0.051056
     8837.825900       0.052779
     8845.643500       0.054522
     8853.475000       0.056287
     8861.320300       0.058073
     8869.179600       0.059879
     8877.052800       0.061707
     8884.940000       0.063555
     8892.841300       0.065424
     8900.756600       0.067314
     8908.686000       0.069225
     8916.629500       0.071156
     8924.587200       0.073108
     8932.559200       0.075081
     8940.545400       0.077075
     8948.545900       0.079089
     8956.560700       0.081124
     8964.589900       0.083181
     8972.633500       0.085257
     8980.691500       0.087356
     8988.764000       0.089475
     8996.851100       0.091614
     9004.952700       0.093776
     9013.068900       0.095958
     9021.199800       0.098162
     9029.345400       0.100387
     9037.505600       0.102633
     9045.680700       0.104901
     9053.870500       0.107190
     9062.075200       0.109501
     9070.294800       0.111834
     9078.529300       0.114189
     9086.778700       0.116565
     9095.043200       0.118964
     9103.322700       0.121384
     9111.617300       0.123827
     9119.927000       0.126292
     9128.251900       0.128780
     9136.592100       0.131290
     9144.947400       0.133822
     9153.318100       0.136377
     9161.704100       0.138955
     9170.105500       0.141556
     9178.522300       0.144179
     9186.954500       0.146826
     9195.402300       0.149495
     9203.865600       0.152187
     9212.344500       0.154903
     9220.839100       0.157642
     9229.349300       0.160404
     9237.875300       0.163190
     9246.417000       0.165998
     9254.974500       0.168831
     9263.547900       0.171687
     9272.137200       0.174566
     9280.742500       0.177469
     9289.363700       0.180396
     9298.000900       0.183346
     9306.654300       0.186320
     9315.323700       0.189318
     9324.009300       0.192340
     9332.711200       0.195385
     9341.429200       0.198454
     9350.163600       0.201547
     9358.914400       0.204663
     9367.681500       0.207803
     9376.465100       0.210967
     9385.265100       0.214155
     9394.081700       0.217366
     9402.914900       0.220601
     9411.764700       0.223860
     9420.631200       0.227142
     9429.514400       0.230448
     9438.414300       0.233777
     9447.331100       0.237129
     9456.264800       0.240506
     9465.215300       0.243905
     9474.182900       0.247327
     9483.167400       0.250773
     9492.169000       0.254241
     9501.187600       0.257733
     9510.223500       0.261247
     9519.276500       0.264784
     9528.346800       0.268343
     9537.434400       0.271925
     9546.539400       0.275529
     9555.661700       0.279156
     9564.801500       0.282804
     9573.958800       0.286475
     9583.133700       0.290167
     9592.326100       0.293880
     9601.536200       0.297616
     9610.764100       0.301372
     9620.009600       0.305149
     9629.273000       0.308948
     9638.554200       0.312766
     9647.853400       0.316606
     9657.170400       0.320465
     9666.505600       0.324344
     9675.858700       0.328244
     9685.230000       0.332162
     9694.619500       0.336101
     9704.027200       0.340058
     9713.453100       0.344034
     9722.897400       0.348029
     9732.360100       0.352042
     9741.841200       0.356073
     9751.340800       0.360122
     9760.859000       0.364189
     9770.395700       0.368273
     9779.951100       0.372373
     9789.525200       0.376491
     9799.118100       0.380624
     9808.729800       0.384774
     9818.360300       0.388940
     9828.009800       0.393120
     9837.678300       0.397316
     9847.365800       0.401527
     9857.072400       0.405752
     9866.798200       0.409992
     9876.543200       0.414245
     9886.307500       0.418511
     9896.091000       0.422791
     9905.894000       0.427083
     9915.716400       0.431388
     9925.558300       0.435704
     9935.419800       0.440032
     9945.300800       0.444372
     9955.201600       0.448722
     9965.122100       0.453083
     9975.062300       0.457453
     9985.022500       0.461834
     9995.002500       0.466224
    10005.002500       0.470622
    10015.022500       0.475029
    10025.062700       0.479444
    10035.122900       0.483867
    10045.203400       0.488297
    10055.304200       0.492734
    10065.425300       0.497177
    10075.566800       0.501626
    10085.728700       0.506080
    10095.911200       0.510540
    10106.114200       0.515004
    10116.337900       0.519472
    10126.582300       0.523945
    10136.847400       0.528420
    10147.133400       0.532899
    10157.440300       0.537380
    10167.768200       0.541862
    10178.117000       0.546347
    10188.487000       0.550832
    10198.878100       0.555318
    10209.290500       0.559804
    10219.724100       0.564290
    10230.179000       0.568775
    10240.655400       0.573259
    10251.153300       0.577741
    10261.672700       0.582221
    10272.213700       0.586698
    10282.776300       0.591172
    10293.360800       0.595643
    10303.967000       0.600109
    10314.595200       0.604571
    10325.245200       0.609028
    10335.917300       0.613479
    10346.611500       0.617924
    10357.327800       0.622363
    10368.066400       0.626795
    10378.827200       0.631220
    10389.610400       0.635637
    10400.416000       0.640045
    10411.244100       0.644445
    10422.094800       0.648835
    10432.968200       0.653215
    10443.864200       0.657586
    10454.783100       0.661945
    10465.724800       0.666293
    10476.689400       0.670630
    10487.677000       0.674955
    10498.687700       0.679266
    10509.721500       0.683565
    10520.778500       0.687850
    10531.858900       0.692122
    10542.962600       0.696379
    10554.089700       0.700620
    10565.240400       0.704847
    10576.414600       0.709057
    10587.612500       0.713252
    10598.834100       0.717429
    10610.079600       0.721589
    10621.348900       0.725732
    10632.642200       0.729856
    10643.959600       0.733963
    10655.301000       0.738049
    10666.666700       0.742117
    10678.056600       0.746164
    10689.470900       0.750191
    10700.909600       0.754198
    10712.372800       0.758183
    10723.860600       0.762147
    10735.373100       0.766088
    10746.910300       0.770008
    10758.472300       0.773904
    10770.059200       0.777777
    10781.671200       0.781626
    10793.308100       0.785451
    10804.970300       0.789252
    10816.657700       0.793028
    10828.370300       0.796778
    10840.108400       0.800503
    10851.871900       0.804202
    10863.661100       0.807874
    10875.475800       0.811519
    10887.316300       0.815137
    10899.182600       0.818728
    10911.074700       0.822291
    10922.992900       0.825825
    10934.937100       0.829331
    10946.907500       0.832807
    10958.904100       0.836255
    10970.927000       0.839672
    10982.976400       0.843060
    10995.052200       0.846417
    11007.154700       0.849744
    11019.283700       0.853039
    11031.439600       0.856304
    11043.622300       0.859536
    11055.832000       0.862737
    11068.068600       0.865905
    11080.332400       0.869041
    11092.623400       0.872144
    11104.941700       0.875214
    11117.287400       0.878251
    11129.660500       0.881253
    11142.061300       0.884222
    11154.489700       0.887157
    11166.945800       0.890058
    11179.429800       0.892923
    11191.941800       0.895754
    11204.481800       0.898550
    11217.049900       0.901310
    11229.646300       0.904034
    11242.270900       0.906723
    11254.924000       0.909376
    11267.605600       0.911992
    11280.315800       0.914572
    11293.054800       0.917116
    11305.822500       0.919622
    11318.619100       0.922092
    11331.444800       0.924524
    11344.299500       0.926919
    11357.183400       0.929276
    11370.096600       0.931596
    11383.039300       0.933878
    11396.011400       0.936122
    11409.013100       0.938328
    11422.044500       0.940496
    11435.105800       0.942625
    11448.196900       0.944716
    11461.318100       0.946768
    11474.469300       0.948782
    11487.650800       0.950757
    11500.862600       0.952693
    11514.104800       0.954590
    11527.377500       0.956448
    11540.680900       0.958267
    11554.015000       0.960047
    11567.380000       0.961788
    11580.775900       0.963489
    11594.202900       0.965151
    11607.661100       0.966774
    11621.150500       0.968358
    11634.671300       0.969902
    11648.223600       0.971407
    11661.807600       0.972872
    11675.423200       0.974298
    11689.070700       0.975685
    11702.750100       0.977033
    11716.461600       0.978341
    11730.205300       0.979609
    11743.981200       0.980839
    11757.789500       0.982029
    11771.630400       0.983180
    11785.503800       0.984292
    11799.410000       0.985365
    11813.349100       0.986399
    11827.321100       0.987393
    11841.326200       0.988350
    11855.364600       0.989267
    11869.436200       0.990146
    11883.541300       0.990986
    11897.680000       0.991787
    11911.852300       0.992551
    11926.058400       0.993276
    11940.298500       0.993963
    11954.572600       0.994612
    11968.880900       0.995223
    11983.223500       0.995797
    11997.600500       0.996333
    12012.012000       0.996832
    12026.458200       0.997293
    12040.939200       0.997718
    12055.455100       0.998105
    12070.006000       0.998456
    12084.592100       0.998771
    12099.213600       0.999049
    12113.870400       0.999292
    12128.562800       0.999498
    12143.290800       0.999669
    12158.054700       0.999804
    12172.854500       0.999904
    12187.690400       0.999969
    12202.562500       1.000000
    12217.471000       0.999996
    12232.415900       0.999958
    12247.397400       0.999886
    12262.415700       0.999780
    12277.470800       0.999640
    12292.563000       0.999468
    12307.692300       0.999263
    12322.858900       0.999025
    12338.062900       0.998754
    12353.304500       0.998452
    12368.583800       0.998118
    12383.900900       0.997752
    12399.256000       0.997356
    12414.649300       0.996928
    12430.080800       0.996470
    12445.550700       0.995982
    12461.059200       0.995464
    12476.606400       0.994917
    12492.192400       0.994340
    12507.817400       0.993735
    12523.481500       0.993101
    12539.185000       0.992439
    12554.927800       0.991749
    12570.710200       0.991032
    12586.532400       0.990287
    12602.394500       0.989516
    12618.296500       0.988719
    12634.238800       0.987896
    12650.221400       0.987047
    12666.244500       0.986173
    12682.308200       0.985274
    12698.412700       0.984351
    12714.558200       0.983403
    12730.744700       0.982432
    12746.972600       0.981438
    12763.241900       0.980421
    12779.552700       0.979382
    12795.905300       0.978320
    12812.299800       0.977237
    12828.736400       0.976133
    12845.215200       0.975008
    12861.736300       0.973862
    12878.300100       0.972697
    12894.906500       0.971512
    12911.555800       0.970308
    12928.248200       0.969085
    12944.983800       0.967844
    12961.762800       0.966586
    12978.585300       0.965310
    12995.451600       0.964017
    13012.361700       0.962707
    13029.316000       0.961382
    13046.314400       0.960041
    13063.357300       0.958684
    13080.444700       0.957313
    13097.576900       0.955928
    13114.754100       0.954529
    13131.976400       0.953117
    13149.243900       0.951691
    13166.556900       0.950253
    13183.915600       0.948803
    13201.320100       0.947342
    13218.770700       0.945869
    13236.267400       0.944386
    13253.810500       0.942892
    13271.400100       0.941389
    13289.036500       0.939876
    13306.719900       0.938355
    13324.450400       0.936825
    13342.228200       0.935287
    13360.053400       0.933742
    13377.926400       0.932189
    13395.847300       0.930630
    13413.816200       0.929065
    13431.833400       0.927494
    13449.899100       0.925918
    13468.013500       0.924337
    13486.176700       0.922751
    13504.388900       0.921162
    13522.650400       0.919569
    13540.961400       0.917974
    13559.322000       0.916375
    13577.732500       0.914775
    13596.193100       0.913172
    13614.703900       0.911569
    13633.265200       0.909964
    13651.877100       0.908360
    13670.540000       0.906755
    13689.253900       0.905151
    13708.019200       0.903547
    13726.836000       0.901945
    13745.704500       0.900345
    13764.624900       0.898746
    13783.597500       0.897150
    13802.622500       0.895558
    13821.700100       0.893968
    13840.830400       0.892383
    13860.013900       0.890801
    13879.250500       0.889224
    13898.540700       0.887652
    13917.884500       0.886086
    13937.282200       0.884525
    13956.734100       0.882970
    13976.240400       0.881422
    13995.801300       0.879881
    14015.417000       0.878347
    14035.087700       0.876821
    14054.813800       0.875303
    14074.595400       0.873793
    14094.432700       0.872292
    14114.326000       0.870800
    14134.275600       0.869317
    14154.281700       0.867844
    14174.344400       0.866381
    14194.464200       0.864929
    14214.641100       0.863487
    14234.875400       0.862057
    14255.167500       0.860638
    14275.517500       0.859230
    14295.925700       0.857835
    14316.392300       0.856452
    14336.917600       0.855081
    14357.501800       0.853724
    14378.145200       0.852380
    14398.848100       0.851049
    14419.610700       0.849732
    14440.433200       0.848429
    14461.316000       0.847140
    14482.259200       0.845866
    14503.263200       0.844606
    14524.328200       0.843361
    14545.454500       0.842132
    14566.642400       0.840918
    14587.892000       0.839720
    14609.203800       0.838538
    14630.577900       0.837372
    14652.014700       0.836222
    14673.514300       0.835089
    14695.077100       0.833972
    14716.703500       0.832873
    14738.393500       0.831790
    14760.147600       0.830724
    14781.966000       0.829676
    14803.849000       0.828646
    14825.796900       0.827633
    14847.809900       0.826638
    14869.888500       0.825660
    14892.032800       0.824701
    14914.243100       0.823760
    14936.519800       0.822837
    14958.863100       0.821933
    14981.273400       0.821047
    15003.750900       0.820179
    15026.296000       0.819330
    15048.909000       0.818500
    15071.590100       0.817689
    15094.339600       0.816896
    15117.158000       0.816122
    15140.045400       0.815367
    15163.002300       0.814630
    15186.028900       0.813913
    15209.125500       0.813214
    15232.292500       0.812534
    15255.530100       0.811874
    15278.838800       0.811231
    15302.218800       0.810608
    15325.670500       0.810004
    15349.194200       0.809418
    15372.790200       0.808851
    15396.458800       0.808302
    15420.200500       0.807772
    15444.015400       0.807260
    15467.904100       0.806767
    15491.866800       0.806292
    15515.903800       0.805835
    15540.015500       0.805396
    15564.202300       0.804975
    15588.464500       0.804572
    15612.802500       0.804186
    15637.216600       0.803818
    15661.707100       0.803467
    15686.274500       0.803133
    15710.919100       0.802816
    15735.641200       0.802516
    15760.441300       0.802232
    15785.319700       0.801965
    15810.276700       0.801714
    15835.312700       0.801478
    15860.428200       0.801259
    15885.623500       0.801054
    15910.899000       0.800865
    15936.255000       0.800691
    15961.691900       0.800531
    15987.210200       0.800386
    16012.810200       0.800255
    16038.492400       0.800137
    16064.257000       0.800033
    16090.104600       0.799942
    16116.035500       0.799864
    16142.050000       0.799798
    16168.148700       0.799744
    16194.332000       0.799702
    16220.600200       0.799672
    16246.953700       0.799652
    16273.393000       0.799643
    16299.918500       0.799645
    16326.530600       0.799656
    16353.229800       0.799677
    16380.016400       0.799706
    16406.890900       0.799744
    16433.853700       0.799791
    16460.905300       0.799845
    16488.046200       0.799906
    16515.276600       0.799974
    16542.597200       0.800049
    16570.008300       0.800129
    16597.510400       0.800215
    16625.103900       0.800306
    16652.789300       0.800401
    16680.567100       0.800500
    16708.437800       0.800602
    16736.401700       0.800708
    16764.459300       0.800815
    16792.611300       0.800925
    16820.857900       0.801035
    16849.199700       0.801147
    16877.637100       0.801258
    16906.170800       0.801369
    16934.801000       0.801479
    16963.528400       0.801587
    16992.353400       0.801694
    17021.276600       0.801797
    17050.298400       0.801897
    17079.419300       0.801993
    17108.639900       0.802085
    17137.960600       0.802171
    17167.382000       0.802252
    17196.904600       0.802326
    17226.528900       0.802392
    17256.255400       0.802451
    17286.084700       0.802502
    17316.017300       0.802544
    17346.053800       0.802576
    17376.194600       0.802597
    17406.440400       0.802607
    17436.791600       0.802606
    17467.248900       0.802592
    17497.812800       0.802565
    17528.483800       0.802525
    17559.262500       0.802469
    17590.149500       0.802399
    17621.145400       0.802312
    17652.250700       0.802209
    17683.466000       0.802089
    17714.791900       0.801951
    17746.228900       0.801793
    17777.777800       0.801617
    17809.439000       0.801420
    17841.213200       0.801202
    17873.101000       0.800962
    17905.103000       0.800700
    17937.219700       0.800415
    17969.451900       0.800106
    18001.800200       0.799772
    18034.265100       0.799413
    18066.847300       0.799028
    18099.547500       0.798615
    18132.366300       0.798176
    18165.304300       0.797708
    18198.362100       0.797210
    18231.540600       0.796683
    18264.840200       0.796125
    18298.261700       0.795536
    18331.805700       0.794915
    18365.472900       0.794261
    18399.264000       0.793573
    18433.179700       0.792851
    18467.220700       0.792094
    18501.387600       0.791301
    18535.681200       0.790472
    18570.102100       0.789605
    18604.651200       0.788700
    18639.329000       0.787756
    18674.136300       0.786773
    18709.073900       0.785750
    18744.142500       0.784685
    18779.342700       0.783579
    18814.675400       0.782430
    18850.141400       0.781239
    18885.741300       0.780003
    18921.475900       0.778723
    18957.346000       0.777397
    18993.352300       0.776026
    19029.495700       0.774608
    19065.776900       0.773143
    19102.196800       0.771629
    19138.756000       0.770067
    19175.455400       0.768456
    19212.295900       0.766795
    19249.278200       0.765083
    19286.403100       0.763320
    19323.671500       0.761504
    19361.084200       0.759637
    19398.642100       0.757716
    19436.346000       0.755741
    19474.196700       0.753712
    19512.195100       0.751628
    19550.342100       0.749489
    19588.638600       0.747293
    19627.085400       0.745041
    19665.683400       0.742731
    19704.433500       0.740364
    19743.336600       0.737938
    19782.393700       0.735454
    19821.605600       0.732910
    19860.973200       0.730307
    19900.497500       0.727643
    19940.179500       0.724919
    19980.020000       0.722133
    20020.020000       0.719286
    20060.180500       0.716377
    20100.502500       0.713406
    20140.986900       0.710371
    20181.634700       0.707274
    20222.446900       0.704113
    20263.424500       0.700888
    20304.568500       0.697599
    20345.880000       0.694245
    20387.359800       0.690827
    20429.009200       0.687344
    20470.829100       0.683795
    20512.820500       0.680181
    20554.984600       0.676502
    20597.322300       0.672756
    20639.834900       0.668944
    20682.523300       0.665066
    20725.388600       0.661122
    20768.432000       0.657111
    20811.654500       0.653034
    20855.057400       0.648890
    20898.641600       0.644679
    20942.408400       0.640402
    20986.358900       0.636058
    21030.494200       0.631648
    21074.815600       0.627171
    21119.324200       0.622627
    21164.021200       0.618017
    21208.907700       0.613341
    21253.985100       0.608599
    21299.254500       0.603791
    21344.717200       0.598917
    21390.374300       0.593978
    21436.227200       0.588974
    21482.277100       0.583905
    21528.525300       0.578771
    21574.973000       0.573574
    21621.621600       0.568312
    21668.472400       0.562987
    21715.526600       0.557599
    21762.785600       0.552149
    21810.250800       0.546637
    21857.923500       0.541064
    21905.805000       0.535430
    21953.896800       0.529736
    22002.200200       0.523982
    22050.716600       0.518169
    22099.447500       0.512299
    22148.394200       0.506371
    22197.558300       0.500386
    22246.941000       0.494346
    22296.544000       0.488251
    22346.368700       0.482102
    22396.416600       0.475901
    22446.689100       0.469647
    22497.187900       0.463342
    22547.914300       0.456988
    22598.870100       0.450584
    22650.056600       0.444133
    22701.475600       0.437635
    22753.128600       0.431093
    22805.017100       0.424506
    22857.142900       0.417876
    22909.507400       0.411206
    22962.112500       0.404495
    23014.959700       0.397746
    23068.050700       0.390960
    23121.387300       0.384139
    23174.971000       0.377283
    23228.803700       0.370396
    23282.887100       0.363478
    23337.222900       0.356532
    23391.812900       0.349558
    23446.658900       0.342559
    23501.762600       0.335537
    23557.126000       0.328493
    23612.750900       0.321431
    23668.639100       0.314350
    23724.792400       0.307255
    23781.212800       0.300146
    23837.902300       0.293026
    23894.862600       0.285898
    23952.095800       0.278763
    24009.603800       0.271624
    24067.388700       0.264484
    24125.452400       0.257344
    24183.796900       0.250208
    24242.424200       0.243077
    24301.336600       0.235955
    24360.535900       0.228845
    24420.024400       0.221748
    24479.804200       0.214668
    24539.877300       0.207608
    24600.246000       0.200570
    24660.912500       0.193558
    24721.878900       0.186575
    24783.147500       0.179623
    24844.720500       0.172707
    24906.600200       0.165828
    24968.789000       0.158991
    25031.289100       0.152199
    25094.102900       0.145455
    25157.232700       0.138764
    25220.681000       0.132127
    25284.450100       0.125550
    25348.542500       0.119035
    25412.960600       0.112587
    25477.707000       0.106210
