127,   127, MVIRI VIS channel from srf_MET7_2013168_2013169_1801-Release_S10EE_10.dat
Number of data points:
793
Wavenumber (cm-1)   Filter response
     8442.380800       0.000000
     8449.514200       0.000000
     8456.659600       0.000004
     8463.817200       0.000057
     8470.986900       0.000168
     8478.168700       0.000336
     8485.362700       0.000559
     8492.569000       0.000835
     8499.787500       0.001164
     8507.018300       0.001542
     8514.261400       0.001970
     8521.516800       0.002446
     8528.784600       0.002967
     8536.064900       0.003534
     8543.357500       0.004144
     8550.662700       0.004797
     8557.980300       0.005491
     8565.310500       0.006225
     8572.653200       0.006999
     8580.008600       0.007810
     8587.376600       0.008658
     8594.757200       0.009543
     8602.150500       0.010462
     8609.556600       0.011416
     8616.975400       0.012404
     8624.407100       0.013424
     8631.851500       0.014476
     8639.308900       0.015559
     8646.779100       0.016672
     8654.262200       0.017816
     8661.758300       0.018988
     8669.267400       0.020189
     8676.789600       0.021418
     8684.324800       0.022675
     8691.873100       0.023958
     8699.434500       0.025267
     8707.009100       0.026603
     8714.596900       0.027964
     8722.198000       0.029350
     8729.812300       0.030761
     8737.439900       0.032196
     8745.080900       0.033655
     8752.735200       0.035138
     8760.403000       0.036644
     8768.084200       0.038174
     8775.778900       0.039725
     8783.487000       0.041300
     8791.208800       0.042897
     8798.944100       0.044516
     8806.693100       0.046157
     8814.455700       0.047820
     8822.232000       0.049504
     8830.022100       0.051210
     8837.825900       0.052937
     8845.643500       0.054686
     8853.475000       0.056455
     8861.320300       0.058246
     8869.179600       0.060057
     8877.052800       0.061890
     8884.940000       0.063743
     8892.841300       0.065617
     8900.756600       0.067513
     8908.686000       0.069428
     8916.629500       0.071365
     8924.587200       0.073322
     8932.559200       0.075300
     8940.545400       0.077299
     8948.545900       0.079319
     8956.560700       0.081360
     8964.589900       0.083421
     8972.633500       0.085504
     8980.691500       0.087607
     8988.764000       0.089732
     8996.851100       0.091877
     9004.952700       0.094044
     9013.068900       0.096232
     9021.199800       0.098441
     9029.345400       0.100672
     9037.505600       0.102924
     9045.680700       0.105197
     9053.870500       0.107492
     9062.075200       0.109809
     9070.294800       0.112148
     9078.529300       0.114508
     9086.778700       0.116891
     9095.043200       0.119295
     9103.322700       0.121722
     9111.617300       0.124170
     9119.927000       0.126641
     9128.251900       0.129135
     9136.592100       0.131651
     9144.947400       0.134189
     9153.318100       0.136750
     9161.704100       0.139334
     9170.105500       0.141941
     9178.522300       0.144571
     9186.954500       0.147223
     9195.402300       0.149898
     9203.865600       0.152597
     9212.344500       0.155319
     9220.839100       0.158064
     9229.349300       0.160832
     9237.875300       0.163624
     9246.417000       0.166439
     9254.974500       0.169278
     9263.547900       0.172140
     9272.137200       0.175026
     9280.742500       0.177935
     9289.363700       0.180868
     9298.000900       0.183825
     9306.654300       0.186806
     9315.323700       0.189809
     9324.009300       0.192837
     9332.711200       0.195889
     9341.429200       0.198964
     9350.163600       0.202064
     9358.914400       0.205186
     9367.681500       0.208333
     9376.465100       0.211504
     9385.265100       0.214698
     9394.081700       0.217916
     9402.914900       0.221157
     9411.764700       0.224422
     9420.631200       0.227711
     9429.514400       0.231023
     9438.414300       0.234359
     9447.331100       0.237718
     9456.264800       0.241100
     9465.215300       0.244506
     9474.182900       0.247935
     9483.167400       0.251387
     9492.169000       0.254862
     9501.187600       0.258360
     9510.223500       0.261881
     9519.276500       0.265424
     9528.346800       0.268990
     9537.434400       0.272579
     9546.539400       0.276189
     9555.661700       0.279822
     9564.801500       0.283477
     9573.958800       0.287154
     9583.133700       0.290853
     9592.326100       0.294573
     9601.536200       0.298314
     9610.764100       0.302077
     9620.009600       0.305860
     9629.273000       0.309665
     9638.554200       0.313490
     9647.853400       0.317336
     9657.170400       0.321201
     9666.505600       0.325087
     9675.858700       0.328993
     9685.230000       0.332918
     9694.619500       0.336862
     9704.027200       0.340825
     9713.453100       0.344808
     9722.897400       0.348809
     9732.360100       0.352828
     9741.841200       0.356865
     9751.340800       0.360920
     9760.859000       0.364993
     9770.395700       0.369082
     9779.951100       0.373189
     9789.525200       0.377312
     9799.118100       0.381452
     9808.729800       0.385607
     9818.360300       0.389778
     9828.009800       0.393965
     9837.678300       0.398166
     9847.365800       0.402383
     9857.072400       0.406613
     9866.798200       0.410858
     9876.543200       0.415117
     9886.307500       0.419389
     9896.091000       0.423674
     9905.894000       0.427971
     9915.716400       0.432281
     9925.558300       0.436602
     9935.419800       0.440936
     9945.300800       0.445280
     9955.201600       0.449635
     9965.122100       0.454001
     9975.062300       0.458376
     9985.022500       0.462762
     9995.002500       0.467156
    10005.002500       0.471559
    10015.022500       0.475971
    10025.062700       0.480390
    10035.122900       0.484817
    10045.203400       0.489251
    10055.304200       0.493693
    10065.425300       0.498140
    10075.566800       0.502593
    10085.728700       0.507051
    10095.911200       0.511515
    10106.114200       0.515983
    10116.337900       0.520455
    10126.582300       0.524931
    10136.847400       0.529410
    10147.133400       0.533892
    10157.440300       0.538377
    10167.768200       0.542863
    10178.117000       0.547350
    10188.487000       0.551839
    10198.878100       0.556328
    10209.290500       0.560817
    10219.724100       0.565306
    10230.179000       0.569793
    10240.655400       0.574280
    10251.153300       0.578764
    10261.672700       0.583247
    10272.213700       0.587726
    10282.776300       0.592203
    10293.360800       0.596675
    10303.967000       0.601144
    10314.595200       0.605607
    10325.245200       0.610066
    10335.917300       0.614519
    10346.611500       0.618966
    10357.327800       0.623407
    10368.066400       0.627840
    10378.827200       0.632266
    10389.610400       0.636684
    10400.416000       0.641093
    10411.244100       0.645494
    10422.094800       0.649885
    10432.968200       0.654266
    10443.864200       0.658637
    10454.783100       0.662997
    10465.724800       0.667345
    10476.689400       0.671682
    10487.677000       0.676007
    10498.687700       0.680319
    10509.721500       0.684617
    10520.778500       0.688902
    10531.858900       0.693173
    10542.962600       0.697430
    10554.089700       0.701671
    10565.240400       0.705896
    10576.414600       0.710106
    10587.612500       0.714299
    10598.834100       0.718476
    10610.079600       0.722635
    10621.348900       0.726776
    10632.642200       0.730899
    10643.959600       0.735003
    10655.301000       0.739088
    10666.666700       0.743154
    10678.056600       0.747199
    10689.470900       0.751224
    10700.909600       0.755229
    10712.372800       0.759212
    10723.860600       0.763173
    10735.373100       0.767111
    10746.910300       0.771028
    10758.472300       0.774921
    10770.059200       0.778791
    10781.671200       0.782637
    10793.308100       0.786459
    10804.970300       0.790256
    10816.657700       0.794028
    10828.370300       0.797775
    10840.108400       0.801496
    10851.871900       0.805191
    10863.661100       0.808859
    10875.475800       0.812500
    10887.316300       0.816114
    10899.182600       0.819700
    10911.074700       0.823258
    10922.992900       0.826787
    10934.937100       0.830288
    10946.907500       0.833760
    10958.904100       0.837202
    10970.927000       0.840614
    10982.976400       0.843997
    10995.052200       0.847348
    11007.154700       0.850669
    11019.283700       0.853959
    11031.439600       0.857217
    11043.622300       0.860444
    11055.832000       0.863638
    11068.068600       0.866800
    11080.332400       0.869930
    11092.623400       0.873026
    11104.941700       0.876089
    11117.287400       0.879119
    11129.660500       0.882115
    11142.061300       0.885077
    11154.489700       0.888004
    11166.945800       0.890897
    11179.429800       0.893756
    11191.941800       0.896579
    11204.481800       0.899367
    11217.049900       0.902119
    11229.646300       0.904836
    11242.270900       0.907516
    11254.924000       0.910161
    11267.605600       0.912769
    11280.315800       0.915341
    11293.054800       0.917876
    11305.822500       0.920374
    11318.619100       0.922834
    11331.444800       0.925258
    11344.299500       0.927644
    11357.183400       0.929992
    11370.096600       0.932303
    11383.039300       0.934576
    11396.011400       0.936810
    11409.013100       0.939007
    11422.044500       0.941165
    11435.105800       0.943284
    11448.196900       0.945365
    11461.318100       0.947408
    11474.469300       0.949411
    11487.650800       0.951376
    11500.862600       0.953302
    11514.104800       0.955189
    11527.377500       0.957037
    11540.680900       0.958845
    11554.015000       0.960614
    11567.380000       0.962344
    11580.775900       0.964035
    11594.202900       0.965686
    11607.661100       0.967298
    11621.150500       0.968871
    11634.671300       0.970404
    11648.223600       0.971898
    11661.807600       0.973352
    11675.423200       0.974766
    11689.070700       0.976142
    11702.750100       0.977477
    11716.461600       0.978774
    11730.205300       0.980031
    11743.981200       0.981249
    11757.789500       0.982427
    11771.630400       0.983566
    11785.503800       0.984666
    11799.410000       0.985727
    11813.349100       0.986748
    11827.321100       0.987731
    11841.326200       0.988675
    11855.364600       0.989580
    11869.436200       0.990446
    11883.541300       0.991274
    11897.680000       0.992063
    11911.852300       0.992813
    11926.058400       0.993526
    11940.298500       0.994200
    11954.572600       0.994836
    11968.880900       0.995435
    11983.223500       0.995996
    11997.600500       0.996519
    12012.012000       0.997004
    12026.458200       0.997453
    12040.939200       0.997864
    12055.455100       0.998239
    12070.006000       0.998577
    12084.592100       0.998878
    12099.213600       0.999143
    12113.870400       0.999372
    12128.562800       0.999565
    12143.290800       0.999723
    12158.054700       0.999845
    12172.854500       0.999931
    12187.690400       0.999983
    12202.562500       1.000000
    12217.471000       0.999982
    12232.415900       0.999931
    12247.397400       0.999845
    12262.415700       0.999725
    12277.470800       0.999572
    12292.563000       0.999386
    12307.692300       0.999167
    12322.858900       0.998915
    12338.062900       0.998631
    12353.304500       0.998315
    12368.583800       0.997967
    12383.900900       0.997588
    12399.256000       0.997177
    12414.649300       0.996736
    12430.080800       0.996264
    12445.550700       0.995762
    12461.059200       0.995231
    12476.606400       0.994669
    12492.192400       0.994079
    12507.817400       0.993459
    12523.481500       0.992811
    12539.185000       0.992135
    12554.927800       0.991432
    12570.710200       0.990700
    12586.532400       0.989942
    12602.394500       0.989157
    12618.296500       0.988346
    12634.238800       0.987508
    12650.221400       0.986646
    12666.244500       0.985758
    12682.308200       0.984845
    12698.412700       0.983907
    12714.558200       0.982946
    12730.744700       0.981961
    12746.972600       0.980953
    12763.241900       0.979922
    12779.552700       0.978869
    12795.905300       0.977793
    12812.299800       0.976696
    12828.736400       0.975578
    12845.215200       0.974439
    12861.736300       0.973280
    12878.300100       0.972101
    12894.906500       0.970902
    12911.555800       0.969684
    12928.248200       0.968448
    12944.983800       0.967193
    12961.762800       0.965920
    12978.585300       0.964631
    12995.451600       0.963324
    13012.361700       0.962001
    13029.316000       0.960661
    13046.314400       0.959307
    13063.357300       0.957937
    13080.444700       0.956552
    13097.576900       0.955153
    13114.754100       0.953740
    13131.976400       0.952314
    13149.243900       0.950875
    13166.556900       0.949424
    13183.915600       0.947960
    13201.320100       0.946485
    13218.770700       0.944999
    13236.267400       0.943502
    13253.810500       0.941995
    13271.400100       0.940479
    13289.036500       0.938953
    13306.719900       0.937418
    13324.450400       0.935875
    13342.228200       0.934323
    13360.053400       0.932765
    13377.926400       0.931199
    13395.847300       0.929626
    13413.816200       0.928048
    13431.833400       0.926464
    13449.899100       0.924874
    13468.013500       0.923280
    13486.176700       0.921682
    13504.388900       0.920079
    13522.650400       0.918473
    13540.961400       0.916864
    13559.322000       0.915253
    13577.732500       0.913639
    13596.193100       0.912024
    13614.703900       0.910407
    13633.265200       0.908790
    13651.877100       0.907172
    13670.540000       0.905555
    13689.253900       0.903937
    13708.019200       0.902321
    13726.836000       0.900706
    13745.704500       0.899093
    13764.624900       0.897481
    13783.597500       0.895873
    13802.622500       0.894267
    13821.700100       0.892665
    13840.830400       0.891066
    13860.013900       0.889472
    13879.250500       0.887882
    13898.540700       0.886298
    13917.884500       0.884718
    13937.282200       0.883145
    13956.734100       0.881577
    13976.240400       0.880016
    13995.801300       0.878463
    14015.417000       0.876916
    14035.087700       0.875377
    14054.813800       0.873846
    14074.595400       0.872323
    14094.432700       0.870809
    14114.326000       0.869304
    14134.275600       0.867809
    14154.281700       0.866323
    14174.344400       0.864848
    14194.464200       0.863383
    14214.641100       0.861928
    14234.875400       0.860485
    14255.167500       0.859053
    14275.517500       0.857633
    14295.925700       0.856225
    14316.392300       0.854829
    14336.917600       0.853446
    14357.501800       0.852076
    14378.145200       0.850719
    14398.848100       0.849375
    14419.610700       0.848045
    14440.433200       0.846729
    14461.316000       0.845427
    14482.259200       0.844140
    14503.263200       0.842868
    14524.328200       0.841610
    14545.454500       0.840368
    14566.642400       0.839141
    14587.892000       0.837930
    14609.203800       0.836735
    14630.577900       0.835556
    14652.014700       0.834393
    14673.514300       0.833246
    14695.077100       0.832117
    14716.703500       0.831004
    14738.393500       0.829908
    14760.147600       0.828829
    14781.966000       0.827768
    14803.849000       0.826724
    14825.796900       0.825698
    14847.809900       0.824689
    14869.888500       0.823698
    14892.032800       0.822726
    14914.243100       0.821771
    14936.519800       0.820835
    14958.863100       0.819917
    14981.273400       0.819017
    15003.750900       0.818136
    15026.296000       0.817273
    15048.909000       0.816429
    15071.590100       0.815604
    15094.339600       0.814797
    15117.158000       0.814009
    15140.045400       0.813240
    15163.002300       0.812489
    15186.028900       0.811758
    15209.125500       0.811045
    15232.292500       0.810351
    15255.530100       0.809675
    15278.838800       0.809019
    15302.218800       0.808381
    15325.670500       0.807762
    15349.194200       0.807162
    15372.790200       0.806580
    15396.458800       0.806017
    15420.200500       0.805472
    15444.015400       0.804945
    15467.904100       0.804437
    15491.866800       0.803947
    15515.903800       0.803475
    15540.015500       0.803021
    15564.202300       0.802584
    15588.464500       0.802166
    15612.802500       0.801765
    15637.216600       0.801381
    15661.707100       0.801015
    15686.274500       0.800665
    15710.919100       0.800333
    15735.641200       0.800017
    15760.441300       0.799717
    15785.319700       0.799434
    15810.276700       0.799167
    15835.312700       0.798915
    15860.428200       0.798680
    15885.623500       0.798459
    15910.899000       0.798254
    15936.255000       0.798063
    15961.691900       0.797887
    15987.210200       0.797725
    16012.810200       0.797577
    16038.492400       0.797443
    16064.257000       0.797322
    16090.104600       0.797214
    16116.035500       0.797119
    16142.050000       0.797036
    16168.148700       0.796965
    16194.332000       0.796906
    16220.600200       0.796858
    16246.953700       0.796822
    16273.393000       0.796795
    16299.918500       0.796779
    16326.530600       0.796773
    16353.229800       0.796776
    16380.016400       0.796787
    16406.890900       0.796808
    16433.853700       0.796836
    16460.905300       0.796873
    16488.046200       0.796916
    16515.276600       0.796966
    16542.597200       0.797022
    16570.008300       0.797085
    16597.510400       0.797152
    16625.103900       0.797224
    16652.789300       0.797301
    16680.567100       0.797382
    16708.437800       0.797466
    16736.401700       0.797552
    16764.459300       0.797641
    16792.611300       0.797732
    16820.857900       0.797824
    16849.199700       0.797916
    16877.637100       0.798009
    16906.170800       0.798101
    16934.801000       0.798192
    16963.528400       0.798281
    16992.353400       0.798369
    17021.276600       0.798453
    17050.298400       0.798534
    17079.419300       0.798611
    17108.639900       0.798683
    17137.960600       0.798750
    17167.382000       0.798812
    17196.904600       0.798866
    17226.528900       0.798914
    17256.255400       0.798954
    17286.084700       0.798985
    17316.017300       0.799008
    17346.053800       0.799020
    17376.194600       0.799022
    17406.440400       0.799013
    17436.791600       0.798993
    17467.248900       0.798960
    17497.812800       0.798914
    17528.483800       0.798854
    17559.262500       0.798779
    17590.149500       0.798689
    17621.145400       0.798584
    17652.250700       0.798462
    17683.466000       0.798322
    17714.791900       0.798165
    17746.228900       0.797989
    17777.777800       0.797793
    17809.439000       0.797577
    17841.213200       0.797341
    17873.101000       0.797082
    17905.103000       0.796802
    17937.219700       0.796498
    17969.451900       0.796170
    18001.800200       0.795818
    18034.265100       0.795441
    18066.847300       0.795037
    18099.547500       0.794607
    18132.366300       0.794149
    18165.304300       0.793663
    18198.362100       0.793148
    18231.540600       0.792604
    18264.840200       0.792028
    18298.261700       0.791422
    18331.805700       0.790784
    18365.472900       0.790113
    18399.264000       0.789408
    18433.179700       0.788669
    18467.220700       0.787896
    18501.387600       0.787086
    18535.681200       0.786241
    18570.102100       0.785358
    18604.651200       0.784437
    18639.329000       0.783478
    18674.136300       0.782480
    18709.073900       0.781441
    18744.142500       0.780362
    18779.342700       0.779241
    18814.675400       0.778078
    18850.141400       0.776872
    18885.741300       0.775623
    18921.475900       0.774329
    18957.346000       0.772990
    18993.352300       0.771606
    19029.495700       0.770175
    19065.776900       0.768698
    19102.196800       0.767172
    19138.756000       0.765598
    19175.455400       0.763975
    19212.295900       0.762303
    19249.278200       0.760580
    19286.403100       0.758807
    19323.671500       0.756981
    19361.084200       0.755104
    19398.642100       0.753174
    19436.346000       0.751190
    19474.196700       0.749152
    19512.195100       0.747060
    19550.342100       0.744913
    19588.638600       0.742710
    19627.085400       0.740451
    19665.683400       0.738134
    19704.433500       0.735761
    19743.336600       0.733330
    19782.393700       0.730840
    19821.605600       0.728292
    19860.973200       0.725684
    19900.497500       0.723017
    19940.179500       0.720289
    19980.020000       0.717501
    20020.020000       0.714652
    20060.180500       0.711741
    20100.502500       0.708768
    20140.986900       0.705733
    20181.634700       0.702636
    20222.446900       0.699475
    20263.424500       0.696251
    20304.568500       0.692964
    20345.880000       0.689612
    20387.359800       0.686197
    20429.009200       0.682717
    20470.829100       0.679172
    20512.820500       0.675563
    20554.984600       0.671888
    20597.322300       0.668148
    20639.834900       0.664343
    20682.523300       0.660472
    20725.388600       0.656535
    20768.432000       0.652533
    20811.654500       0.648464
    20855.057400       0.644330
    20898.641600       0.640130
    20942.408400       0.635863
    20986.358900       0.631531
    21030.494200       0.627133
    21074.815600       0.622669
    21119.324200       0.618139
    21164.021200       0.613544
    21208.907700       0.608883
    21253.985100       0.604157
    21299.254500       0.599365
    21344.717200       0.594509
    21390.374300       0.589588
    21436.227200       0.584603
    21482.277100       0.579553
    21528.525300       0.574440
    21574.973000       0.569263
    21621.621600       0.564024
    21668.472400       0.558721
    21715.526600       0.553357
    21762.785600       0.547931
    21810.250800       0.542444
    21857.923500       0.536897
    21905.805000       0.531289
    21953.896800       0.525622
    22002.200200       0.519896
    22050.716600       0.514113
    22099.447500       0.508272
    22148.394200       0.502374
    22197.558300       0.496421
    22246.941000       0.490413
    22296.544000       0.484351
    22346.368700       0.478236
    22396.416600       0.472068
    22446.689100       0.465850
    22497.187900       0.459581
    22547.914300       0.453263
    22598.870100       0.446897
    22650.056600       0.440484
    22701.475600       0.434026
    22753.128600       0.427523
    22805.017100       0.420977
    22857.142900       0.414389
    22909.507400       0.407760
    22962.112500       0.401092
    23014.959700       0.394387
    23068.050700       0.387645
    23121.387300       0.380869
    23174.971000       0.374059
    23228.803700       0.367219
    23282.887100       0.360348
    23337.222900       0.353449
    23391.812900       0.346524
    23446.658900       0.339574
    23501.762600       0.332602
    23557.126000       0.325609
    23612.750900       0.318597
    23668.639100       0.311569
    23724.792400       0.304525
    23781.212800       0.297469
    23837.902300       0.290403
    23894.862600       0.283329
    23952.095800       0.276248
    24009.603800       0.269165
    24067.388700       0.262080
    24125.452400       0.254996
    24183.796900       0.247916
    24242.424200       0.240842
    24301.336600       0.233778
    24360.535900       0.226725
    24420.024400       0.219686
    24479.804200       0.212664
    24539.877300       0.205663
    24600.246000       0.198684
    24660.912500       0.191731
    24721.878900       0.184807
    24783.147500       0.177914
    24844.720500       0.171058
    24906.600200       0.164239
    24968.789000       0.157462
    25031.289100       0.150730
    25094.102900       0.144046
    25157.232700       0.137414
    25220.681000       0.130837
    25284.450100       0.124320
    25348.542500       0.117864
    25412.960600       0.111476
    25477.707000       0.105157
