9,   9, MVIRI VIS channel from srf_MET3_1989348_1989349_1801-Release_S10EE_10.dat
Number of data points:
743
Wavenumber (cm-1)   Filter response
     8814.455700       0.000000
     8822.232000       0.000000
     8830.022100       0.000704
     8837.825900       0.002954
     8845.643500       0.005223
     8853.475000       0.007511
     8861.320300       0.009816
     8869.179600       0.012137
     8877.052800       0.014473
     8884.940000       0.016823
     8892.841300       0.019186
     8900.756600       0.021561
     8908.686000       0.023948
     8916.629500       0.026345
     8924.587200       0.028752
     8932.559200       0.031167
     8940.545400       0.033592
     8948.545900       0.036024
     8956.560700       0.038462
     8964.589900       0.040908
     8972.633500       0.043360
     8980.691500       0.045817
     8988.764000       0.048280
     8996.851100       0.050748
     9004.952700       0.053220
     9013.068900       0.055697
     9021.199800       0.058177
     9029.345400       0.060662
     9037.505600       0.063149
     9045.680700       0.065640
     9053.870500       0.068135
     9062.075200       0.070632
     9070.294800       0.073133
     9078.529300       0.075636
     9086.778700       0.078142
     9095.043200       0.080651
     9103.322700       0.083163
     9111.617300       0.085678
     9119.927000       0.088195
     9128.251900       0.090716
     9136.592100       0.093239
     9144.947400       0.095766
     9153.318100       0.098296
     9161.704100       0.100829
     9170.105500       0.103366
     9178.522300       0.105907
     9186.954500       0.108451
     9195.402300       0.111000
     9203.865600       0.113552
     9212.344500       0.116109
     9220.839100       0.118671
     9229.349300       0.121238
     9237.875300       0.123810
     9246.417000       0.126387
     9254.974500       0.128969
     9263.547900       0.131558
     9272.137200       0.134153
     9280.742500       0.136754
     9289.363700       0.139362
     9298.000900       0.141977
     9306.654300       0.144599
     9315.323700       0.147229
     9324.009300       0.149866
     9332.711200       0.152512
     9341.429200       0.155166
     9350.163600       0.157829
     9358.914400       0.160501
     9367.681500       0.163183
     9376.465100       0.165874
     9385.265100       0.168575
     9394.081700       0.171286
     9402.914900       0.174008
     9411.764700       0.176740
     9420.631200       0.179484
     9429.514400       0.182239
     9438.414300       0.185007
     9447.331100       0.187786
     9456.264800       0.190577
     9465.215300       0.193381
     9474.182900       0.196198
     9483.167400       0.199028
     9492.169000       0.201872
     9501.187600       0.204729
     9510.223500       0.207600
     9519.276500       0.210485
     9528.346800       0.213385
     9537.434400       0.216300
     9546.539400       0.219229
     9555.661700       0.222174
     9564.801500       0.225134
     9573.958800       0.228110
     9583.133700       0.231102
     9592.326100       0.234109
     9601.536200       0.237133
     9610.764100       0.240173
     9620.009600       0.243230
     9629.273000       0.246304
     9638.554200       0.249394
     9647.853400       0.252502
     9657.170400       0.255626
     9666.505600       0.258769
     9675.858700       0.261929
     9685.230000       0.265106
     9694.619500       0.268302
     9704.027200       0.271515
     9713.453100       0.274746
     9722.897400       0.277995
     9732.360100       0.281262
     9741.841200       0.284548
     9751.340800       0.287852
     9760.859000       0.291174
     9770.395700       0.294515
     9779.951100       0.297874
     9789.525200       0.301252
     9799.118100       0.304648
     9808.729800       0.308062
     9818.360300       0.311495
     9828.009800       0.314946
     9837.678300       0.318417
     9847.365800       0.321905
     9857.072400       0.325412
     9866.798200       0.328937
     9876.543200       0.332480
     9886.307500       0.336042
     9896.091000       0.339622
     9905.894000       0.343220
     9915.716400       0.346836
     9925.558300       0.350470
     9935.419800       0.354122
     9945.300800       0.357791
     9955.201600       0.361478
     9965.122100       0.365182
     9975.062300       0.368904
     9985.022500       0.372643
     9995.002500       0.376399
    10005.002500       0.380171
    10015.022500       0.383960
    10025.062700       0.387766
    10035.122900       0.391587
    10045.203400       0.395425
    10055.304200       0.399279
    10065.425300       0.403149
    10075.566800       0.407033
    10085.728700       0.410933
    10095.911200       0.414848
    10106.114200       0.418778
    10116.337900       0.422722
    10126.582300       0.426680
    10136.847400       0.430652
    10147.133400       0.434637
    10157.440300       0.438636
    10167.768200       0.442648
    10178.117000       0.446673
    10188.487000       0.450710
    10198.878100       0.454760
    10209.290500       0.458821
    10219.724100       0.462893
    10230.179000       0.466977
    10240.655400       0.471072
    10251.153300       0.475177
    10261.672700       0.479292
    10272.213700       0.483417
    10282.776300       0.487552
    10293.360800       0.491695
    10303.967000       0.495848
    10314.595200       0.500008
    10325.245200       0.504177
    10335.917300       0.508353
    10346.611500       0.512536
    10357.327800       0.516726
    10368.066400       0.520923
    10378.827200       0.525125
    10389.610400       0.529334
    10400.416000       0.533547
    10411.244100       0.537765
    10422.094800       0.541988
    10432.968200       0.546214
    10443.864200       0.550444
    10454.783100       0.554677
    10465.724800       0.558913
    10476.689400       0.563151
    10487.677000       0.567390
    10498.687700       0.571632
    10509.721500       0.575874
    10520.778500       0.580116
    10531.858900       0.584358
    10542.962600       0.588601
    10554.089700       0.592842
    10565.240400       0.597082
    10576.414600       0.601320
    10587.612500       0.605556
    10598.834100       0.609790
    10610.079600       0.614020
    10621.348900       0.618246
    10632.642200       0.622469
    10643.959600       0.626687
    10655.301000       0.630900
    10666.666700       0.635108
    10678.056600       0.639310
    10689.470900       0.643506
    10700.909600       0.647695
    10712.372800       0.651876
    10723.860600       0.656050
    10735.373100       0.660215
    10746.910300       0.664373
    10758.472300       0.668520
    10770.059200       0.672659
    10781.671200       0.676787
    10793.308100       0.680905
    10804.970300       0.685012
    10816.657700       0.689108
    10828.370300       0.693192
    10840.108400       0.697263
    10851.871900       0.701322
    10863.661100       0.705368
    10875.475800       0.709400
    10887.316300       0.713417
    10899.182600       0.717421
    10911.074700       0.721409
    10922.992900       0.725383
    10934.937100       0.729340
    10946.907500       0.733281
    10958.904100       0.737205
    10970.927000       0.741112
    10982.976400       0.745002
    10995.052200       0.748874
    11007.154700       0.752727
    11019.283700       0.756561
    11031.439600       0.760377
    11043.622300       0.764172
    11055.832000       0.767948
    11068.068600       0.771703
    11080.332400       0.775438
    11092.623400       0.779151
    11104.941700       0.782842
    11117.287400       0.786512
    11129.660500       0.790159
    11142.061300       0.793783
    11154.489700       0.797384
    11166.945800       0.800962
    11179.429800       0.804516
    11191.941800       0.808045
    11204.481800       0.811550
    11217.049900       0.815030
    11229.646300       0.818484
    11242.270900       0.821913
    11254.924000       0.825316
    11267.605600       0.828693
    11280.315800       0.832042
    11293.054800       0.835365
    11305.822500       0.838661
    11318.619100       0.841929
    11331.444800       0.845169
    11344.299500       0.848380
    11357.183400       0.851563
    11370.096600       0.854717
    11383.039300       0.857842
    11396.011400       0.860938
    11409.013100       0.864004
    11422.044500       0.867040
    11435.105800       0.870045
    11448.196900       0.873021
    11461.318100       0.875965
    11474.469300       0.878878
    11487.650800       0.881760
    11500.862600       0.884611
    11514.104800       0.887429
    11527.377500       0.890216
    11540.680900       0.892970
    11554.015000       0.895693
    11567.380000       0.898382
    11580.775900       0.901039
    11594.202900       0.903662
    11607.661100       0.906252
    11621.150500       0.908809
    11634.671300       0.911333
    11648.223600       0.913822
    11661.807600       0.916277
    11675.423200       0.918699
    11689.070700       0.921086
    11702.750100       0.923438
    11716.461600       0.925756
    11730.205300       0.928040
    11743.981200       0.930288
    11757.789500       0.932502
    11771.630400       0.934680
    11785.503800       0.936823
    11799.410000       0.938931
    11813.349100       0.941003
    11827.321100       0.943040
    11841.326200       0.945041
    11855.364600       0.947006
    11869.436200       0.948936
    11883.541300       0.950830
    11897.680000       0.952688
    11911.852300       0.954509
    11926.058400       0.956295
    11940.298500       0.958045
    11954.572600       0.959758
    11968.880900       0.961435
    11983.223500       0.963076
    11997.600500       0.964681
    12012.012000       0.966249
    12026.458200       0.967781
    12040.939200       0.969277
    12055.455100       0.970737
    12070.006000       0.972160
    12084.592100       0.973547
    12099.213600       0.974898
    12113.870400       0.976212
    12128.562800       0.977490
    12143.290800       0.978732
    12158.054700       0.979938
    12172.854500       0.981107
    12187.690400       0.982241
    12202.562500       0.983338
    12217.471000       0.984400
    12232.415900       0.985425
    12247.397400       0.986415
    12262.415700       0.987369
    12277.470800       0.988287
    12292.563000       0.989169
    12307.692300       0.990016
    12322.858900       0.990828
    12338.062900       0.991604
    12353.304500       0.992345
    12368.583800       0.993051
    12383.900900       0.993722
    12399.256000       0.994358
    12414.649300       0.994959
    12430.080800       0.995526
    12445.550700       0.996058
    12461.059200       0.996556
    12476.606400       0.997019
    12492.192400       0.997448
    12507.817400       0.997844
    12523.481500       0.998205
    12539.185000       0.998533
    12554.927800       0.998828
    12570.710200       0.999089
    12586.532400       0.999317
    12602.394500       0.999512
    12618.296500       0.999674
    12634.238800       0.999804
    12650.221400       0.999901
    12666.244500       0.999966
    12682.308200       0.999999
    12698.412700       1.000000
    12714.558200       0.999969
    12730.744700       0.999908
    12746.972600       0.999814
    12763.241900       0.999690
    12779.552700       0.999535
    12795.905300       0.999349
    12812.299800       0.999133
    12828.736400       0.998887
    12845.215200       0.998611
    12861.736300       0.998305
    12878.300100       0.997970
    12894.906500       0.997606
    12911.555800       0.997212
    12928.248200       0.996790
    12944.983800       0.996339
    12961.762800       0.995860
    12978.585300       0.995353
    12995.451600       0.994818
    13012.361700       0.994256
    13029.316000       0.993666
    13046.314400       0.993050
    13063.357300       0.992406
    13080.444700       0.991736
    13097.576900       0.991040
    13114.754100       0.990318
    13131.976400       0.989570
    13149.243900       0.988796
    13166.556900       0.987997
    13183.915600       0.987174
    13201.320100       0.986325
    13218.770700       0.985453
    13236.267400       0.984556
    13253.810500       0.983635
    13271.400100       0.982691
    13289.036500       0.981723
    13306.719900       0.980733
    13324.450400       0.979719
    13342.228200       0.978683
    13360.053400       0.977625
    13377.926400       0.976545
    13395.847300       0.975444
    13413.816200       0.974321
    13431.833400       0.973176
    13449.899100       0.972011
    13468.013500       0.970826
    13486.176700       0.969620
    13504.388900       0.968394
    13522.650400       0.967148
    13540.961400       0.965883
    13559.322000       0.964599
    13577.732500       0.963296
    13596.193100       0.961974
    13614.703900       0.960634
    13633.265200       0.959276
    13651.877100       0.957900
    13670.540000       0.956507
    13689.253900       0.955096
    13708.019200       0.953668
    13726.836000       0.952224
    13745.704500       0.950763
    13764.624900       0.949286
    13783.597500       0.947793
    13802.622500       0.946285
    13821.700100       0.944761
    13840.830400       0.943222
    13860.013900       0.941668
    13879.250500       0.940100
    13898.540700       0.938517
    13917.884500       0.936921
    13937.282200       0.935310
    13956.734100       0.933686
    13976.240400       0.932049
    13995.801300       0.930399
    14015.417000       0.928735
    14035.087700       0.927060
    14054.813800       0.925372
    14074.595400       0.923672
    14094.432700       0.921960
    14114.326000       0.920236
    14134.275600       0.918501
    14154.281700       0.916756
    14174.344400       0.914999
    14194.464200       0.913232
    14214.641100       0.911454
    14234.875400       0.909666
    14255.167500       0.907868
    14275.517500       0.906060
    14295.925700       0.904243
    14316.392300       0.902416
    14336.917600       0.900581
    14357.501800       0.898736
    14378.145200       0.896883
    14398.848100       0.895021
    14419.610700       0.893151
    14440.433200       0.891273
    14461.316000       0.889387
    14482.259200       0.887494
    14503.263200       0.885593
    14524.328200       0.883684
    14545.454500       0.881769
    14566.642400       0.879846
    14587.892000       0.877917
    14609.203800       0.875981
    14630.577900       0.874038
    14652.014700       0.872090
    14673.514300       0.870135
    14695.077100       0.868174
    14716.703500       0.866208
    14738.393500       0.864236
    14760.147600       0.862258
    14781.966000       0.860275
    14803.849000       0.858287
    14825.796900       0.856294
    14847.809900       0.854296
    14869.888500       0.852293
    14892.032800       0.850285
    14914.243100       0.848273
    14936.519800       0.846256
    14958.863100       0.844236
    14981.273400       0.842211
    15003.750900       0.840181
    15026.296000       0.838148
    15048.909000       0.836112
    15071.590100       0.834071
    15094.339600       0.832027
    15117.158000       0.829979
    15140.045400       0.827927
    15163.002300       0.825873
    15186.028900       0.823815
    15209.125500       0.821753
    15232.292500       0.819689
    15255.530100       0.817621
    15278.838800       0.815551
    15302.218800       0.813478
    15325.670500       0.811401
    15349.194200       0.809322
    15372.790200       0.807240
    15396.458800       0.805156
    15420.200500       0.803068
    15444.015400       0.800978
    15467.904100       0.798886
    15491.866800       0.796791
    15515.903800       0.794694
    15540.015500       0.792593
    15564.202300       0.790491
    15588.464500       0.788386
    15612.802500       0.786279
    15637.216600       0.784169
    15661.707100       0.782057
    15686.274500       0.779943
    15710.919100       0.777826
    15735.641200       0.775707
    15760.441300       0.773585
    15785.319700       0.771461
    15810.276700       0.769335
    15835.312700       0.767206
    15860.428200       0.765075
    15885.623500       0.762942
    15910.899000       0.760806
    15936.255000       0.758668
    15961.691900       0.756527
    15987.210200       0.754384
    16012.810200       0.752238
    16038.492400       0.750089
    16064.257000       0.747938
    16090.104600       0.745785
    16116.035500       0.743629
    16142.050000       0.741470
    16168.148700       0.739308
    16194.332000       0.737144
    16220.600200       0.734976
    16246.953700       0.732806
    16273.393000       0.730633
    16299.918500       0.728456
    16326.530600       0.726277
    16353.229800       0.724095
    16380.016400       0.721909
    16406.890900       0.719720
    16433.853700       0.717528
    16460.905300       0.715332
    16488.046200       0.713133
    16515.276600       0.710930
    16542.597200       0.708724
    16570.008300       0.706514
    16597.510400       0.704300
    16625.103900       0.702082
    16652.789300       0.699860
    16680.567100       0.697634
    16708.437800       0.695405
    16736.401700       0.693171
    16764.459300       0.690932
    16792.611300       0.688689
    16820.857900       0.686442
    16849.199700       0.684190
    16877.637100       0.681934
    16906.170800       0.679673
    16934.801000       0.677406
    16963.528400       0.675135
    16992.353400       0.672859
    17021.276600       0.670578
    17050.298400       0.668292
    17079.419300       0.666000
    17108.639900       0.663703
    17137.960600       0.661400
    17167.382000       0.659092
    17196.904600       0.656778
    17226.528900       0.654458
    17256.255400       0.652132
    17286.084700       0.649800
    17316.017300       0.647462
    17346.053800       0.645118
    17376.194600       0.642768
    17406.440400       0.640411
    17436.791600       0.638047
    17467.248900       0.635677
    17497.812800       0.633301
    17528.483800       0.630917
    17559.262500       0.628527
    17590.149500       0.626130
    17621.145400       0.623725
    17652.250700       0.621314
    17683.466000       0.618895
    17714.791900       0.616469
    17746.228900       0.614035
    17777.777800       0.611594
    17809.439000       0.609145
    17841.213200       0.606689
    17873.101000       0.604224
    17905.103000       0.601752
    17937.219700       0.599272
    17969.451900       0.596784
    18001.800200       0.594288
    18034.265100       0.591784
    18066.847300       0.589272
    18099.547500       0.586751
    18132.366300       0.584222
    18165.304300       0.581684
    18198.362100       0.579138
    18231.540600       0.576583
    18264.840200       0.574020
    18298.261700       0.571448
    18331.805700       0.568867
    18365.472900       0.566278
    18399.264000       0.563679
    18433.179700       0.561072
    18467.220700       0.558456
    18501.387600       0.555831
    18535.681200       0.553197
    18570.102100       0.550554
    18604.651200       0.547902
    18639.329000       0.545241
    18674.136300       0.542570
    18709.073900       0.539891
    18744.142500       0.537203
    18779.342700       0.534505
    18814.675400       0.531798
    18850.141400       0.529082
    18885.741300       0.526357
    18921.475900       0.523623
    18957.346000       0.520879
    18993.352300       0.518127
    19029.495700       0.515365
    19065.776900       0.512594
    19102.196800       0.509815
    19138.756000       0.507026
    19175.455400       0.504228
    19212.295900       0.501421
    19249.278200       0.498605
    19286.403100       0.495780
    19323.671500       0.492946
    19361.084200       0.490104
    19398.642100       0.487253
    19436.346000       0.484393
    19474.196700       0.481524
    19512.195100       0.478647
    19550.342100       0.475761
    19588.638600       0.472867
    19627.085400       0.469965
    19665.683400       0.467054
    19704.433500       0.464135
    19743.336600       0.461209
    19782.393700       0.458274
    19821.605600       0.455331
    19860.973200       0.452381
    19900.497500       0.449423
    19940.179500       0.446458
    19980.020000       0.443485
    20020.020000       0.440505
    20060.180500       0.437518
    20100.502500       0.434524
    20140.986900       0.431523
    20181.634700       0.428516
    20222.446900       0.425502
    20263.424500       0.422481
    20304.568500       0.419455
    20345.880000       0.416422
    20387.359800       0.413384
    20429.009200       0.410340
    20470.829100       0.407291
    20512.820500       0.404236
    20554.984600       0.401176
    20597.322300       0.398112
    20639.834900       0.395042
    20682.523300       0.391969
    20725.388600       0.388891
    20768.432000       0.385809
    20811.654500       0.382723
    20855.057400       0.379633
    20898.641600       0.376541
    20942.408400       0.373445
    20986.358900       0.370346
    21030.494200       0.367245
    21074.815600       0.364141
    21119.324200       0.361035
    21164.021200       0.357927
    21208.907700       0.354818
    21253.985100       0.351707
    21299.254500       0.348595
    21344.717200       0.345483
    21390.374300       0.342370
    21436.227200       0.339257
    21482.277100       0.336143
    21528.525300       0.333030
    21574.973000       0.329918
    21621.621600       0.326807
    21668.472400       0.323697
    21715.526600       0.320588
    21762.785600       0.317481
    21810.250800       0.314377
    21857.923500       0.311275
    21905.805000       0.308175
    21953.896800       0.305079
    22002.200200       0.301986
    22050.716600       0.298897
    22099.447500       0.295812
    22148.394200       0.292731
    22197.558300       0.289655
    22246.941000       0.286584
    22296.544000       0.283518
    22346.368700       0.280458
    22396.416600       0.277405
    22446.689100       0.274357
    22497.187900       0.271316
    22547.914300       0.268283
    22598.870100       0.265256
    22650.056600       0.262238
    22701.475600       0.259227
    22753.128600       0.256225
    22805.017100       0.253231
    22857.142900       0.250247
    22909.507400       0.247272
    22962.112500       0.244307
    23014.959700       0.241352
    23068.050700       0.238407
    23121.387300       0.235473
    23174.971000       0.232550
    23228.803700       0.229639
    23282.887100       0.226739
    23337.222900       0.223852
    23391.812900       0.220977
    23446.658900       0.218114
    23501.762600       0.215265
    23557.126000       0.212429
    23612.750900       0.209607
    23668.639100       0.206798
    23724.792400       0.204004
    23781.212800       0.201225
    23837.902300       0.198460
    23894.862600       0.195711
    23952.095800       0.192977
    24009.603800       0.190259
    24067.388700       0.187557
    24125.452400       0.184871
    24183.796900       0.182202
    24242.424200       0.179549
    24301.336600       0.176914
    24360.535900       0.174295
    24420.024400       0.171695
    24479.804200       0.169112
    24539.877300       0.166547
    24600.246000       0.164000
    24660.912500       0.161472
    24721.878900       0.158962
    24783.147500       0.156471
    24844.720500       0.153999
    24906.600200       0.151546
    24968.789000       0.149113
    25031.289100       0.146698
    25094.102900       0.144303
    25157.232700       0.141928
    25220.681000       0.139573
    25284.450100       0.137237
    25348.542500       0.134921
    25412.960600       0.132625
    25477.707000       0.130349
