6,    channel 6 SRF extracted from SRF_FY-4A_AGRI.zip (2.1.txt) (received April 2018)
Number of data points:
152
Wavenumber (cm-1)   Filter response
     3757.985700       0.001274
     3765.060200       0.000571
     3772.161400       0.001146
     3779.289500       0.000432
     3786.444500       0.001869
     3793.626700       0.001656
     3800.836200       0.001082
     3808.073100       0.000911
     3815.337700       0.001036
     3822.630000       0.000253
     3829.950200       0.000634
     3837.298500       0.000764
     3844.675100       0.002316
     3852.080100       0.001819
     3859.513700       0.001434
     3866.976000       0.000818
     3874.467300       0.001723
     3881.987600       0.000657
     3889.537100       0.001211
     3897.116100       0.001948
     3904.724700       0.002043
     3912.363100       0.002835
     3920.031400       0.002534
     3927.729800       0.002910
     3935.458500       0.004384
     3943.217700       0.003862
     3951.007500       0.004581
     3958.828200       0.006396
     3966.679900       0.006612
     3974.562800       0.007328
     3982.477100       0.009721
     3990.423000       0.009834
     3998.400600       0.011705
     4006.410300       0.011796
     4014.452000       0.012346
     4022.526100       0.013845
     4030.632800       0.015390
     4038.772200       0.018022
     4046.944600       0.018211
     4055.150000       0.022908
     4063.388900       0.027917
     4071.661200       0.030235
     4079.967400       0.031203
     4088.307400       0.035326
     4096.681700       0.040431
     4105.090300       0.043095
     4113.533500       0.049688
     4122.011500       0.056924
     4130.524600       0.063306
     4139.072800       0.071649
     4147.656600       0.083417
     4156.276000       0.097444
     4164.931300       0.110406
     4173.622700       0.126794
     4182.350500       0.148222
     4191.114800       0.171252
     4199.916000       0.199901
     4208.754200       0.231745
     4217.629700       0.269267
     4226.542700       0.313159
     4235.493400       0.366234
     4244.482200       0.422161
     4253.509100       0.488902
     4262.574600       0.560377
     4271.678800       0.629108
     4280.821900       0.706243
     4290.004300       0.770406
     4299.226100       0.827733
     4308.487700       0.878890
     4317.789300       0.925812
     4327.131100       0.952486
     4336.513400       0.980428
     4345.936500       0.992506
     4355.400700       0.992764
     4364.906200       0.991897
     4374.453200       0.989892
     4384.042100       0.980477
     4393.673100       0.967089
     4403.346500       0.958071
     4413.062700       0.940701
     4422.821800       0.934882
     4432.624100       0.925603
     4442.470000       0.915385
     4452.359800       0.903956
     4462.293600       0.898401
     4472.271900       0.888479
     4482.294900       0.893219
     4492.363000       0.880426
     4502.476400       0.879516
     4512.635400       0.866183
     4522.840300       0.852915
     4533.091600       0.848043
     4543.389400       0.837744
     4553.734100       0.827902
     4564.126000       0.816534
     4574.565400       0.802782
     4585.052700       0.784642
     4595.588200       0.773962
     4606.172300       0.763373
     4616.805200       0.750170
     4627.487300       0.737439
     4638.218900       0.723924
     4649.000500       0.713831
     4659.832200       0.703778
     4670.714600       0.687312
     4681.647900       0.673786
     4692.632600       0.657453
     4703.668900       0.641372
     4714.757200       0.621662
     4725.897900       0.592980
     4737.091400       0.563388
     4748.338100       0.522673
     4759.638300       0.472448
     4770.992400       0.422780
     4782.400800       0.363443
     4793.863900       0.308539
     4805.382000       0.251671
     4816.955700       0.205950
     4828.585200       0.165174
     4840.271100       0.130879
     4852.013600       0.103576
     4863.813200       0.081280
     4875.670400       0.064395
     4887.585500       0.051323
     4899.559000       0.040680
     4911.591400       0.031592
     4923.682900       0.025396
     4935.834200       0.019356
     4948.045500       0.015283
     4960.317500       0.012871
     4972.650400       0.009787
     4985.044900       0.007822
     4997.501200       0.008212
     5010.020000       0.008081
     5022.601700       0.004570
     5035.246700       0.001595
     5047.955600       0.001394
     5060.728700       0.001471
     5073.566700       0.001123
     5086.470000       0.001676
     5099.439100       0.001000
     5112.474400       0.001517
     5125.576600       0.000987
     5138.746100       0.001668
     5151.983500       0.000461
     5165.289300       0.000562
     5178.663900       0.000932
     5192.108000       0.001830
     5205.622100       0.002701
     5219.206700       0.001274
     5232.862400       0.002513
     5246.589700       0.001131
