153,   153, MVIRI VIS channel from srf_MET7_2016258_2016259_1801-Release_S10EE_10.dat
Number of data points:
793
Wavenumber (cm-1)   Filter response
     8442.380800       0.000000
     8449.514200       0.000000
     8456.659600       0.000004
     8463.817200       0.000057
     8470.986900       0.000169
     8478.168700       0.000338
     8485.362700       0.000563
     8492.569000       0.000842
     8499.787500       0.001173
     8507.018300       0.001554
     8514.261400       0.001985
     8521.516800       0.002465
     8528.784600       0.002990
     8536.064900       0.003561
     8543.357500       0.004176
     8550.662700       0.004834
     8557.980300       0.005533
     8565.310500       0.006273
     8572.653200       0.007052
     8580.008600       0.007869
     8587.376600       0.008724
     8594.757200       0.009615
     8602.150500       0.010541
     8609.556600       0.011502
     8616.975400       0.012497
     8624.407100       0.013524
     8631.851500       0.014584
     8639.308900       0.015675
     8646.779100       0.016796
     8654.262200       0.017948
     8661.758300       0.019129
     8669.267400       0.020338
     8676.789600       0.021576
     8684.324800       0.022841
     8691.873100       0.024134
     8699.434500       0.025453
     8707.009100       0.026798
     8714.596900       0.028168
     8722.198000       0.029564
     8729.812300       0.030985
     8737.439900       0.032430
     8745.080900       0.033899
     8752.735200       0.035392
     8760.403000       0.036908
     8768.084200       0.038448
     8775.778900       0.040011
     8783.487000       0.041596
     8791.208800       0.043203
     8798.944100       0.044833
     8806.693100       0.046485
     8814.455700       0.048159
     8822.232000       0.049855
     8830.022100       0.051572
     8837.825900       0.053310
     8845.643500       0.055071
     8853.475000       0.056851
     8861.320300       0.058654
     8869.179600       0.060477
     8877.052800       0.062322
     8884.940000       0.064187
     8892.841300       0.066073
     8900.756600       0.067980
     8908.686000       0.069908
     8916.629500       0.071857
     8924.587200       0.073827
     8932.559200       0.075817
     8940.545400       0.077829
     8948.545900       0.079861
     8956.560700       0.081915
     8964.589900       0.083989
     8972.633500       0.086084
     8980.691500       0.088200
     8988.764000       0.090338
     8996.851100       0.092496
     9004.952700       0.094676
     9013.068900       0.096877
     9021.199800       0.099100
     9029.345400       0.101344
     9037.505600       0.103609
     9045.680700       0.105896
     9053.870500       0.108204
     9062.075200       0.110535
     9070.294800       0.112887
     9078.529300       0.115261
     9086.778700       0.117657
     9095.043200       0.120076
     9103.322700       0.122516
     9111.617300       0.124979
     9119.927000       0.127463
     9128.251900       0.129971
     9136.592100       0.132501
     9144.947400       0.135054
     9153.318100       0.137629
     9161.704100       0.140227
     9170.105500       0.142848
     9178.522300       0.145492
     9186.954500       0.148159
     9195.402300       0.150849
     9203.865600       0.153562
     9212.344500       0.156298
     9220.839100       0.159058
     9229.349300       0.161841
     9237.875300       0.164647
     9246.417000       0.167477
     9254.974500       0.170331
     9263.547900       0.173208
     9272.137200       0.176108
     9280.742500       0.179033
     9289.363700       0.181980
     9298.000900       0.184952
     9306.654300       0.187948
     9315.323700       0.190967
     9324.009300       0.194010
     9332.711200       0.197077
     9341.429200       0.200167
     9350.163600       0.203281
     9358.914400       0.206419
     9367.681500       0.209581
     9376.465100       0.212767
     9385.265100       0.215976
     9394.081700       0.219209
     9402.914900       0.222466
     9411.764700       0.225746
     9420.631200       0.229051
     9429.514400       0.232378
     9438.414300       0.235729
     9447.331100       0.239103
     9456.264800       0.242501
     9465.215300       0.245922
     9474.182900       0.249366
     9483.167400       0.252834
     9492.169000       0.256324
     9501.187600       0.259837
     9510.223500       0.263373
     9519.276500       0.266932
     9528.346800       0.270513
     9537.434400       0.274117
     9546.539400       0.277743
     9555.661700       0.281391
     9564.801500       0.285061
     9573.958800       0.288753
     9583.133700       0.292467
     9592.326100       0.296201
     9601.536200       0.299958
     9610.764100       0.303735
     9620.009600       0.307534
     9629.273000       0.311354
     9638.554200       0.315194
     9647.853400       0.319054
     9657.170400       0.322934
     9666.505600       0.326835
     9675.858700       0.330755
     9685.230000       0.334695
     9694.619500       0.338654
     9704.027200       0.342631
     9713.453100       0.346628
     9722.897400       0.350644
     9732.360100       0.354677
     9741.841200       0.358728
     9751.340800       0.362797
     9760.859000       0.366883
     9770.395700       0.370987
     9779.951100       0.375107
     9789.525200       0.379244
     9799.118100       0.383398
     9808.729800       0.387566
     9818.360300       0.391751
     9828.009800       0.395951
     9837.678300       0.400166
     9847.365800       0.404395
     9857.072400       0.408639
     9866.798200       0.412896
     9876.543200       0.417167
     9886.307500       0.421452
     9896.091000       0.425749
     9905.894000       0.430059
     9915.716400       0.434381
     9925.558300       0.438715
     9935.419800       0.443060
     9945.300800       0.447416
     9955.201600       0.451783
     9965.122100       0.456160
     9975.062300       0.460546
     9985.022500       0.464943
     9995.002500       0.469348
    10005.002500       0.473762
    10015.022500       0.478184
    10025.062700       0.482614
    10035.122900       0.487051
    10045.203400       0.491496
    10055.304200       0.495947
    10065.425300       0.500404
    10075.566800       0.504866
    10085.728700       0.509334
    10095.911200       0.513807
    10106.114200       0.518284
    10116.337900       0.522765
    10126.582300       0.527249
    10136.847400       0.531737
    10147.133400       0.536227
    10157.440300       0.540719
    10167.768200       0.545213
    10178.117000       0.549708
    10188.487000       0.554204
    10198.878100       0.558700
    10209.290500       0.563196
    10219.724100       0.567691
    10230.179000       0.572185
    10240.655400       0.576678
    10251.153300       0.581169
    10261.672700       0.585657
    10272.213700       0.590142
    10282.776300       0.594623
    10293.360800       0.599101
    10303.967000       0.603574
    10314.595200       0.608042
    10325.245200       0.612505
    10335.917300       0.616962
    10346.611500       0.621413
    10357.327800       0.625856
    10368.066400       0.630293
    10378.827200       0.634722
    10389.610400       0.639142
    10400.416000       0.643554
    10411.244100       0.647957
    10422.094800       0.652349
    10432.968200       0.656732
    10443.864200       0.661104
    10454.783100       0.665465
    10465.724800       0.669814
    10476.689400       0.674152
    10487.677000       0.678477
    10498.687700       0.682788
    10509.721500       0.687087
    10520.778500       0.691371
    10531.858900       0.695641
    10542.962600       0.699896
    10554.089700       0.704135
    10565.240400       0.708359
    10576.414600       0.712567
    10587.612500       0.716757
    10598.834100       0.720931
    10610.079600       0.725087
    10621.348900       0.729225
    10632.642200       0.733344
    10643.959600       0.737445
    10655.301000       0.741525
    10666.666700       0.745586
    10678.056600       0.749627
    10689.470900       0.753647
    10700.909600       0.757646
    10712.372800       0.761623
    10723.860600       0.765578
    10735.373100       0.769510
    10746.910300       0.773420
    10758.472300       0.777306
    10770.059200       0.781169
    10781.671200       0.785007
    10793.308100       0.788821
    10804.970300       0.792610
    10816.657700       0.796373
    10828.370300       0.800111
    10840.108400       0.803823
    10851.871900       0.807508
    10863.661100       0.811167
    10875.475800       0.814798
    10887.316300       0.818401
    10899.182600       0.821976
    10911.074700       0.825523
    10922.992900       0.829042
    10934.937100       0.832531
    10946.907500       0.835990
    10958.904100       0.839420
    10970.927000       0.842820
    10982.976400       0.846189
    10995.052200       0.849528
    11007.154700       0.852835
    11019.283700       0.856111
    11031.439600       0.859355
    11043.622300       0.862568
    11055.832000       0.865747
    11068.068600       0.868894
    11080.332400       0.872009
    11092.623400       0.875090
    11104.941700       0.878137
    11117.287400       0.881150
    11129.660500       0.884130
    11142.061300       0.887075
    11154.489700       0.889986
    11166.945800       0.892861
    11179.429800       0.895702
    11191.941800       0.898507
    11204.481800       0.901277
    11217.049900       0.904011
    11229.646300       0.906709
    11242.270900       0.909371
    11254.924000       0.911996
    11267.605600       0.914585
    11280.315800       0.917136
    11293.054800       0.919651
    11305.822500       0.922129
    11318.619100       0.924569
    11331.444800       0.926971
    11344.299500       0.929336
    11357.183400       0.931663
    11370.096600       0.933952
    11383.039300       0.936203
    11396.011400       0.938416
    11409.013100       0.940589
    11422.044500       0.942725
    11435.105800       0.944822
    11448.196900       0.946880
    11461.318100       0.948899
    11474.469300       0.950879
    11487.650800       0.952820
    11500.862600       0.954721
    11514.104800       0.956584
    11527.377500       0.958407
    11540.680900       0.960191
    11554.015000       0.961935
    11567.380000       0.963640
    11580.775900       0.965305
    11594.202900       0.966931
    11607.661100       0.968517
    11621.150500       0.970064
    11634.671300       0.971570
    11648.223600       0.973037
    11661.807600       0.974465
    11675.423200       0.975853
    11689.070700       0.977201
    11702.750100       0.978510
    11716.461600       0.979779
    11730.205300       0.981008
    11743.981200       0.982198
    11757.789500       0.983348
    11771.630400       0.984459
    11785.503800       0.985531
    11799.410000       0.986563
    11813.349100       0.987556
    11827.321100       0.988510
    11841.326200       0.989425
    11855.364600       0.990301
    11869.436200       0.991138
    11883.541300       0.991936
    11897.680000       0.992696
    11911.852300       0.993417
    11926.058400       0.994099
    11940.298500       0.994744
    11954.572600       0.995350
    11968.880900       0.995918
    11983.223500       0.996448
    11997.600500       0.996941
    12012.012000       0.997396
    12026.458200       0.997814
    12040.939200       0.998195
    12055.455100       0.998538
    12070.006000       0.998845
    12084.592100       0.999116
    12099.213600       0.999349
    12113.870400       0.999547
    12128.562800       0.999709
    12143.290800       0.999835
    12158.054700       0.999925
    12172.854500       0.999980
    12187.690400       1.000000
    12202.562500       0.999985
    12217.471000       0.999936
    12232.415900       0.999852
    12247.397400       0.999734
    12262.415700       0.999583
    12277.470800       0.999397
    12292.563000       0.999179
    12307.692300       0.998928
    12322.858900       0.998644
    12338.062900       0.998327
    12353.304500       0.997979
    12368.583800       0.997598
    12383.900900       0.997186
    12399.256000       0.996743
    12414.649300       0.996270
    12430.080800       0.995765
    12445.550700       0.995231
    12461.059200       0.994666
    12476.606400       0.994072
    12492.192400       0.993449
    12507.817400       0.992797
    12523.481500       0.992116
    12539.185000       0.991407
    12554.927800       0.990671
    12570.710200       0.989907
    12586.532400       0.989116
    12602.394500       0.988298
    12618.296500       0.987454
    12634.238800       0.986584
    12650.221400       0.985688
    12666.244500       0.984768
    12682.308200       0.983822
    12698.412700       0.982852
    12714.558200       0.981858
    12730.744700       0.980840
    12746.972600       0.979799
    12763.241900       0.978736
    12779.552700       0.977650
    12795.905300       0.976542
    12812.299800       0.975412
    12828.736400       0.974261
    12845.215200       0.973090
    12861.736300       0.971898
    12878.300100       0.970686
    12894.906500       0.969455
    12911.555800       0.968205
    12928.248200       0.966936
    12944.983800       0.965649
    12961.762800       0.964344
    12978.585300       0.963022
    12995.451600       0.961683
    13012.361700       0.960328
    13029.316000       0.958956
    13046.314400       0.957569
    13063.357300       0.956167
    13080.444700       0.954751
    13097.576900       0.953320
    13114.754100       0.951875
    13131.976400       0.950417
    13149.243900       0.948947
    13166.556900       0.947463
    13183.915600       0.945968
    13201.320100       0.944461
    13218.770700       0.942944
    13236.267400       0.941415
    13253.810500       0.939877
    13271.400100       0.938329
    13289.036500       0.936771
    13306.719900       0.935205
    13324.450400       0.933631
    13342.228200       0.932048
    13360.053400       0.930458
    13377.926400       0.928861
    13395.847300       0.927258
    13413.816200       0.925648
    13431.833400       0.924033
    13449.899100       0.922413
    13468.013500       0.920788
    13486.176700       0.919159
    13504.388900       0.917525
    13522.650400       0.915889
    13540.961400       0.914249
    13559.322000       0.912607
    13577.732500       0.910963
    13596.193100       0.909317
    13614.703900       0.907670
    13633.265200       0.906022
    13651.877100       0.904374
    13670.540000       0.902726
    13689.253900       0.901078
    13708.019200       0.899432
    13726.836000       0.897787
    13745.704500       0.896143
    13764.624900       0.894502
    13783.597500       0.892863
    13802.622500       0.891227
    13821.700100       0.889595
    13840.830400       0.887967
    13860.013900       0.886342
    13879.250500       0.884723
    13898.540700       0.883108
    13917.884500       0.881499
    13937.282200       0.879896
    13956.734100       0.878298
    13976.240400       0.876708
    13995.801300       0.875124
    14015.417000       0.873548
    14035.087700       0.871979
    14054.813800       0.870418
    14074.595400       0.868866
    14094.432700       0.867322
    14114.326000       0.865788
    14134.275600       0.864262
    14154.281700       0.862747
    14174.344400       0.861242
    14194.464200       0.859747
    14214.641100       0.858263
    14234.875400       0.856790
    14255.167500       0.855328
    14275.517500       0.853878
    14295.925700       0.852440
    14316.392300       0.851015
    14336.917600       0.849602
    14357.501800       0.848202
    14378.145200       0.846815
    14398.848100       0.845441
    14419.610700       0.844081
    14440.433200       0.842735
    14461.316000       0.841404
    14482.259200       0.840086
    14503.263200       0.838784
    14524.328200       0.837496
    14545.454500       0.836224
    14566.642400       0.834967
    14587.892000       0.833725
    14609.203800       0.832500
    14630.577900       0.831290
    14652.014700       0.830097
    14673.514300       0.828920
    14695.077100       0.827759
    14716.703500       0.826616
    14738.393500       0.825489
    14760.147600       0.824379
    14781.966000       0.823287
    14803.849000       0.822212
    14825.796900       0.821155
    14847.809900       0.820115
    14869.888500       0.819093
    14892.032800       0.818089
    14914.243100       0.817103
    14936.519800       0.816135
    14958.863100       0.815185
    14981.273400       0.814254
    15003.750900       0.813340
    15026.296000       0.812446
    15048.909000       0.811569
    15071.590100       0.810712
    15094.339600       0.809873
    15117.158000       0.809052
    15140.045400       0.808250
    15163.002300       0.807467
    15186.028900       0.806702
    15209.125500       0.805957
    15232.292500       0.805229
    15255.530100       0.804521
    15278.838800       0.803831
    15302.218800       0.803159
    15325.670500       0.802506
    15349.194200       0.801872
    15372.790200       0.801256
    15396.458800       0.800658
    15420.200500       0.800079
    15444.015400       0.799518
    15467.904100       0.798975
    15491.866800       0.798450
    15515.903800       0.797943
    15540.015500       0.797454
    15564.202300       0.796982
    15588.464500       0.796528
    15612.802500       0.796091
    15637.216600       0.795671
    15661.707100       0.795269
    15686.274500       0.794883
    15710.919100       0.794514
    15735.641200       0.794162
    15760.441300       0.793825
    15785.319700       0.793505
    15810.276700       0.793201
    15835.312700       0.792912
    15860.428200       0.792639
    15885.623500       0.792380
    15910.899000       0.792137
    15936.255000       0.791908
    15961.691900       0.791694
    15987.210200       0.791494
    16012.810200       0.791307
    16038.492400       0.791134
    16064.257000       0.790974
    16090.104600       0.790827
    16116.035500       0.790693
    16142.050000       0.790570
    16168.148700       0.790460
    16194.332000       0.790361
    16220.600200       0.790273
    16246.953700       0.790195
    16273.393000       0.790129
    16299.918500       0.790072
    16326.530600       0.790025
    16353.229800       0.789987
    16380.016400       0.789957
    16406.890900       0.789936
    16433.853700       0.789923
    16460.905300       0.789918
    16488.046200       0.789919
    16515.276600       0.789928
    16542.597200       0.789942
    16570.008300       0.789962
    16597.510400       0.789987
    16625.103900       0.790017
    16652.789300       0.790051
    16680.567100       0.790088
    16708.437800       0.790129
    16736.401700       0.790173
    16764.459300       0.790218
    16792.611300       0.790265
    16820.857900       0.790314
    16849.199700       0.790363
    16877.637100       0.790412
    16906.170800       0.790460
    16934.801000       0.790507
    16963.528400       0.790552
    16992.353400       0.790595
    17021.276600       0.790636
    17050.298400       0.790672
    17079.419300       0.790705
    17108.639900       0.790733
    17137.960600       0.790756
    17167.382000       0.790772
    17196.904600       0.790783
    17226.528900       0.790786
    17256.255400       0.790781
    17286.084700       0.790768
    17316.017300       0.790745
    17346.053800       0.790713
    17376.194600       0.790671
    17406.440400       0.790617
    17436.791600       0.790552
    17467.248900       0.790474
    17497.812800       0.790384
    17528.483800       0.790279
    17559.262500       0.790160
    17590.149500       0.790026
    17621.145400       0.789877
    17652.250700       0.789710
    17683.466000       0.789527
    17714.791900       0.789325
    17746.228900       0.789105
    17777.777800       0.788866
    17809.439000       0.788606
    17841.213200       0.788326
    17873.101000       0.788025
    17905.103000       0.787701
    17937.219700       0.787354
    17969.451900       0.786984
    18001.800200       0.786590
    18034.265100       0.786170
    18066.847300       0.785724
    18099.547500       0.785252
    18132.366300       0.784753
    18165.304300       0.784226
    18198.362100       0.783670
    18231.540600       0.783085
    18264.840200       0.782470
    18298.261700       0.781823
    18331.805700       0.781145
    18365.472900       0.780435
    18399.264000       0.779692
    18433.179700       0.778915
    18467.220700       0.778103
    18501.387600       0.777256
    18535.681200       0.776374
    18570.102100       0.775454
    18604.651200       0.774497
    18639.329000       0.773502
    18674.136300       0.772469
    18709.073900       0.771395
    18744.142500       0.770282
    18779.342700       0.769128
    18814.675400       0.767932
    18850.141400       0.766694
    18885.741300       0.765412
    18921.475900       0.764088
    18957.346000       0.762718
    18993.352300       0.761304
    19029.495700       0.759844
    19065.776900       0.758338
    19102.196800       0.756785
    19138.756000       0.755184
    19175.455400       0.753535
    19212.295900       0.751838
    19249.278200       0.750090
    19286.403100       0.748293
    19323.671500       0.746444
    19361.084200       0.744545
    19398.642100       0.742593
    19436.346000       0.740589
    19474.196700       0.738532
    19512.195100       0.736421
    19550.342100       0.734257
    19588.638600       0.732037
    19627.085400       0.729762
    19665.683400       0.727431
    19704.433500       0.725045
    19743.336600       0.722601
    19782.393700       0.720100
    19821.605600       0.717541
    19860.973200       0.714924
    19900.497500       0.712249
    19940.179500       0.709514
    19980.020000       0.706720
    20020.020000       0.703866
    20060.180500       0.700951
    20100.502500       0.697977
    20140.986900       0.694941
    20181.634700       0.691843
    20222.446900       0.688684
    20263.424500       0.685463
    20304.568500       0.682180
    20345.880000       0.678834
    20387.359800       0.675425
    20429.009200       0.671954
    20470.829100       0.668419
    20512.820500       0.664820
    20554.984600       0.661158
    20597.322300       0.657432
    20639.834900       0.653642
    20682.523300       0.649788
    20725.388600       0.645869
    20768.432000       0.641887
    20811.654500       0.637840
    20855.057400       0.633728
    20898.641600       0.629553
    20942.408400       0.625312
    20986.358900       0.621008
    21030.494200       0.616639
    21074.815600       0.612206
    21119.324200       0.607709
    21164.021200       0.603147
    21208.907700       0.598522
    21253.985100       0.593834
    21299.254500       0.589082
    21344.717200       0.584266
    21390.374300       0.579388
    21436.227200       0.574447
    21482.277100       0.569443
    21528.525300       0.564378
    21574.973000       0.559251
    21621.621600       0.554063
    21668.472400       0.548814
    21715.526600       0.543504
    21762.785600       0.538135
    21810.250800       0.532707
    21857.923500       0.527219
    21905.805000       0.521674
    21953.896800       0.516071
    22002.200200       0.510411
    22050.716600       0.504695
    22099.447500       0.498923
    22148.394200       0.493097
    22197.558300       0.487217
    22246.941000       0.481284
    22296.544000       0.475299
    22346.368700       0.469262
    22396.416600       0.463175
    22446.689100       0.457038
    22497.187900       0.450854
    22547.914300       0.444622
    22598.870100       0.438343
    22650.056600       0.432020
    22701.475600       0.425652
    22753.128600       0.419242
    22805.017100       0.412791
    22857.142900       0.406299
    22909.507400       0.399769
    22962.112500       0.393201
    23014.959700       0.386597
    23068.050700       0.379958
    23121.387300       0.373287
    23174.971000       0.366584
    23228.803700       0.359851
    23282.887100       0.353090
    23337.222900       0.346303
    23391.812900       0.339491
    23446.658900       0.332655
    23501.762600       0.325799
    23557.126000       0.318923
    23612.750900       0.312030
    23668.639100       0.305122
    23724.792400       0.298200
    23781.212800       0.291267
    23837.902300       0.284325
    23894.862600       0.277376
    23952.095800       0.270423
    24009.603800       0.263467
    24067.388700       0.256510
    24125.452400       0.249557
    24183.796900       0.242608
    24242.424200       0.235666
    24301.336600       0.228734
    24360.535900       0.221815
    24420.024400       0.214911
    24479.804200       0.208024
    24539.877300       0.201159
    24600.246000       0.194316
    24660.912500       0.187500
    24721.878900       0.180714
    24783.147500       0.173960
    24844.720500       0.167241
    24906.600200       0.160561
    24968.789000       0.153922
    25031.289100       0.147329
    25094.102900       0.140784
    25157.232700       0.134291
    25220.681000       0.127852
    25284.450100       0.121473
    25348.542500       0.115156
    25412.960600       0.108904
    25477.707000       0.102723
