   4  ,noaa_11_hirs_04.flt
Number of data points:
101
Wavenumber (cm-1)   Filter response
      649.570000       0.000000
      650.570000       0.000132
      651.580000       0.000148
      652.600000       0.000165
      653.600000       0.000182
      654.610000       0.000200
      655.610000       0.000218
      656.620000       0.000236
      657.640000       0.000255
      658.640000       0.000273
      659.650000       0.000292
      660.660000       0.000311
      661.660000       0.000331
      662.680000       0.000351
      663.690000       0.000376
      664.690000       0.000403
      665.700000       0.000432
      666.700000       0.000462
      667.720000       0.000493
      668.730000       0.000526
      669.720000       0.000436
      670.730000       0.000446
      671.740000       0.000457
      672.760000       0.000468
      673.770000       0.000480
      674.780000       0.000491
      675.790000       0.000503
      676.800000       0.000511
      677.820000       0.000519
      678.830000       0.000527
      679.840000       0.000535
      680.850000       0.000630
      681.860000       0.001251
      682.880000       0.001269
      683.890000       0.003816
      684.900000       0.005571
      685.910000       0.008949
      686.920000       0.011536
      687.950000       0.020321
      688.950000       0.033301
      689.950000       0.054047
      690.960000       0.090516
      691.880000       0.142250
      692.810000       0.237560
      693.820000       0.378890
      694.830000       0.529510
      695.770000       0.682660
      696.720000       0.803330
      697.660000       0.881280
      698.650000       0.914680
      699.630000       0.928620
      700.620000       0.930520
      701.610000       0.934770
      702.610000       0.951620
      703.590000       0.975280
      704.580000       0.990450
      705.570000       1.000000
      706.560000       0.994890
      707.560000       0.975760
      708.640000       0.924050
      709.640000       0.826130
      710.650000       0.671330
      711.700000       0.511770
      712.750000       0.367330
      713.790000       0.240410
      714.820000       0.159110
      715.850000       0.102020
      716.870000       0.065161
      717.900000       0.042573
      718.910000       0.027803
      719.920000       0.020535
      720.920000       0.012374
      721.930000       0.006669
      722.950000       0.005622
      723.960000       0.002543
      724.960000       0.000616
      725.970000       0.000700
      726.970000       0.000780
      727.990000       0.000867
      729.000000       0.000950
      729.960000       0.000000
      730.940000       0.000000
      731.920000       0.000000
      732.910000       0.000000
      733.890000       0.000000
      734.870000       0.000000
      735.850000       0.000000
      736.830000       0.000000
      737.820000       0.000000
      738.800000       0.000000
      739.780000       0.000000
      740.760000       0.000000
      741.740000       0.000000
      742.730000       0.000000
      743.710000       0.000000
      744.690000       0.000000
      745.670000       0.000000
      746.650000       0.000000
      747.640000       0.000000
      748.620000       0.000000
      749.600000       0.000000
