35,   35, MVIRI VIS channel from srf_MET5_1995213_1995214_1801-Release_S10EL_10.dat
Number of data points:
806
Wavenumber (cm-1)   Filter response
     8350.730700       0.000000
     8357.710000       0.000000
     8364.701000       0.000000
     8371.703600       0.000001
     8378.718100       0.000004
     8385.744200       0.000009
     8392.782200       0.000016
     8399.832000       0.000027
     8406.893700       0.000041
     8413.967200       0.000059
     8421.052600       0.000081
     8428.150000       0.000109
     8435.259400       0.000142
     8442.380800       0.000182
     8449.514200       0.000227
     8456.659600       0.000280
     8463.817200       0.000339
     8470.986900       0.000406
     8478.168700       0.000481
     8485.362700       0.000564
     8492.569000       0.000656
     8499.787500       0.000756
     8507.018300       0.000866
     8514.261400       0.000985
     8521.516800       0.001114
     8528.784600       0.001254
     8536.064900       0.001403
     8543.357500       0.001563
     8550.662700       0.001734
     8557.980300       0.001917
     8565.310500       0.002110
     8572.653200       0.002316
     8580.008600       0.002533
     8587.376600       0.002762
     8594.757200       0.003003
     8602.150500       0.003257
     8609.556600       0.003524
     8616.975400       0.003803
     8624.407100       0.004096
     8631.851500       0.004402
     8639.308900       0.004721
     8646.779100       0.005054
     8654.262200       0.005401
     8661.758300       0.005761
     8669.267400       0.006136
     8676.789600       0.006525
     8684.324800       0.006929
     8691.873100       0.007347
     8699.434500       0.007780
     8707.009100       0.008227
     8714.596900       0.008690
     8722.198000       0.009168
     8729.812300       0.009661
     8737.439900       0.010170
     8745.080900       0.010694
     8752.735200       0.011234
     8760.403000       0.011789
     8768.084200       0.012361
     8775.778900       0.012949
     8783.487000       0.013553
     8791.208800       0.014173
     8798.944100       0.014809
     8806.693100       0.015462
     8814.455700       0.016132
     8822.232000       0.016819
     8830.022100       0.017522
     8837.825900       0.018243
     8845.643500       0.018980
     8853.475000       0.019735
     8861.320300       0.020507
     8869.179600       0.021296
     8877.052800       0.022104
     8884.940000       0.022928
     8892.841300       0.023771
     8900.756600       0.024631
     8908.686000       0.025510
     8916.629500       0.026406
     8924.587200       0.027321
     8932.559200       0.028254
     8940.545400       0.029205
     8948.545900       0.030175
     8956.560700       0.031163
     8964.589900       0.032170
     8972.633500       0.033196
     8980.691500       0.034241
     8988.764000       0.035305
     8996.851100       0.036388
     9004.952700       0.037490
     9013.068900       0.038611
     9021.199800       0.039752
     9029.345400       0.040913
     9037.505600       0.042093
     9045.680700       0.043292
     9053.870500       0.044512
     9062.075200       0.045752
     9070.294800       0.047011
     9078.529300       0.048291
     9086.778700       0.049590
     9095.043200       0.050911
     9103.322700       0.052251
     9111.617300       0.053612
     9119.927000       0.054994
     9128.251900       0.056396
     9136.592100       0.057819
     9144.947400       0.059263
     9153.318100       0.060728
     9161.704100       0.062214
     9170.105500       0.063721
     9178.522300       0.065249
     9186.954500       0.066799
     9195.402300       0.068370
     9203.865600       0.069962
     9212.344500       0.071577
     9220.839100       0.073212
     9229.349300       0.074870
     9237.875300       0.076550
     9246.417000       0.078251
     9254.974500       0.079974
     9263.547900       0.081720
     9272.137200       0.083487
     9280.742500       0.085277
     9289.363700       0.087089
     9298.000900       0.088923
     9306.654300       0.090780
     9315.323700       0.092659
     9324.009300       0.094562
     9332.711200       0.096486
     9341.429200       0.098433
     9350.163600       0.100403
     9358.914400       0.102396
     9367.681500       0.104412
     9376.465100       0.106451
     9385.265100       0.108513
     9394.081700       0.110597
     9402.914900       0.112705
     9411.764700       0.114836
     9420.631200       0.116991
     9429.514400       0.119168
     9438.414300       0.121369
     9447.331100       0.123593
     9456.264800       0.125840
     9465.215300       0.128111
     9474.182900       0.130405
     9483.167400       0.132723
     9492.169000       0.135064
     9501.187600       0.137428
     9510.223500       0.139816
     9519.276500       0.142228
     9528.346800       0.144663
     9537.434400       0.147122
     9546.539400       0.149604
     9555.661700       0.152110
     9564.801500       0.154639
     9573.958800       0.157192
     9583.133700       0.159768
     9592.326100       0.162368
     9601.536200       0.164991
     9610.764100       0.167638
     9620.009600       0.170308
     9629.273000       0.173002
     9638.554200       0.175719
     9647.853400       0.178460
     9657.170400       0.181224
     9666.505600       0.184011
     9675.858700       0.186822
     9685.230000       0.189656
     9694.619500       0.192513
     9704.027200       0.195393
     9713.453100       0.198297
     9722.897400       0.201223
     9732.360100       0.204172
     9741.841200       0.207145
     9751.340800       0.210140
     9760.859000       0.213158
     9770.395700       0.216198
     9779.951100       0.219261
     9789.525200       0.222347
     9799.118100       0.225455
     9808.729800       0.228585
     9818.360300       0.231738
     9828.009800       0.234913
     9837.678300       0.238110
     9847.365800       0.241328
     9857.072400       0.244569
     9866.798200       0.247831
     9876.543200       0.251114
     9886.307500       0.254420
     9896.091000       0.257746
     9905.894000       0.261093
     9915.716400       0.264462
     9925.558300       0.267851
     9935.419800       0.271262
     9945.300800       0.274693
     9955.201600       0.278143
     9965.122100       0.281615
     9975.062300       0.285106
     9985.022500       0.288618
     9995.002500       0.292149
    10005.002500       0.295700
    10015.022500       0.299270
    10025.062700       0.302859
    10035.122900       0.306467
    10045.203400       0.310094
    10055.304200       0.313740
    10065.425300       0.317404
    10075.566800       0.321087
    10085.728700       0.324787
    10095.911200       0.328505
    10106.114200       0.332241
    10116.337900       0.335994
    10126.582300       0.339764
    10136.847400       0.343551
    10147.133400       0.347355
    10157.440300       0.351175
    10167.768200       0.355011
    10178.117000       0.358863
    10188.487000       0.362731
    10198.878100       0.366614
    10209.290500       0.370512
    10219.724100       0.374425
    10230.179000       0.378353
    10240.655400       0.382296
    10251.153300       0.386252
    10261.672700       0.390222
    10272.213700       0.394205
    10282.776300       0.398202
    10293.360800       0.402212
    10303.967000       0.406234
    10314.595200       0.410269
    10325.245200       0.414316
    10335.917300       0.418375
    10346.611500       0.422445
    10357.327800       0.426526
    10368.066400       0.430618
    10378.827200       0.434720
    10389.610400       0.438833
    10400.416000       0.442955
    10411.244100       0.447087
    10422.094800       0.451229
    10432.968200       0.455379
    10443.864200       0.459538
    10454.783100       0.463705
    10465.724800       0.467879
    10476.689400       0.472062
    10487.677000       0.476251
    10498.687700       0.480448
    10509.721500       0.484651
    10520.778500       0.488860
    10531.858900       0.493074
    10542.962600       0.497295
    10554.089700       0.501520
    10565.240400       0.505750
    10576.414600       0.509984
    10587.612500       0.514222
    10598.834100       0.518464
    10610.079600       0.522709
    10621.348900       0.526957
    10632.642200       0.531207
    10643.959600       0.535460
    10655.301000       0.539714
    10666.666700       0.543970
    10678.056600       0.548226
    10689.470900       0.552483
    10700.909600       0.556741
    10712.372800       0.560998
    10723.860600       0.565254
    10735.373100       0.569509
    10746.910300       0.573764
    10758.472300       0.578016
    10770.059200       0.582266
    10781.671200       0.586514
    10793.308100       0.590758
    10804.970300       0.595000
    10816.657700       0.599237
    10828.370300       0.603471
    10840.108400       0.607699
    10851.871900       0.611923
    10863.661100       0.616142
    10875.475800       0.620355
    10887.316300       0.624562
    10899.182600       0.628762
    10911.074700       0.632955
    10922.992900       0.637141
    10934.937100       0.641319
    10946.907500       0.645489
    10958.904100       0.649651
    10970.927000       0.653804
    10982.976400       0.657947
    10995.052200       0.662080
    11007.154700       0.666203
    11019.283700       0.670316
    11031.439600       0.674418
    11043.622300       0.678509
    11055.832000       0.682588
    11068.068600       0.686654
    11080.332400       0.690709
    11092.623400       0.694750
    11104.941700       0.698778
    11117.287400       0.702792
    11129.660500       0.706792
    11142.061300       0.710778
    11154.489700       0.714749
    11166.945800       0.718704
    11179.429800       0.722644
    11191.941800       0.726568
    11204.481800       0.730476
    11217.049900       0.734366
    11229.646300       0.738240
    11242.270900       0.742096
    11254.924000       0.745934
    11267.605600       0.749754
    11280.315800       0.753555
    11293.054800       0.757338
    11305.822500       0.761100
    11318.619100       0.764844
    11331.444800       0.768567
    11344.299500       0.772269
    11357.183400       0.775951
    11370.096600       0.779612
    11383.039300       0.783251
    11396.011400       0.786868
    11409.013100       0.790463
    11422.044500       0.794035
    11435.105800       0.797585
    11448.196900       0.801111
    11461.318100       0.804614
    11474.469300       0.808093
    11487.650800       0.811547
    11500.862600       0.814978
    11514.104800       0.818383
    11527.377500       0.821763
    11540.680900       0.825118
    11554.015000       0.828447
    11567.380000       0.831750
    11580.775900       0.835027
    11594.202900       0.838277
    11607.661100       0.841500
    11621.150500       0.844696
    11634.671300       0.847864
    11648.223600       0.851004
    11661.807600       0.854116
    11675.423200       0.857200
    11689.070700       0.860256
    11702.750100       0.863283
    11716.461600       0.866280
    11730.205300       0.869248
    11743.981200       0.872186
    11757.789500       0.875095
    11771.630400       0.877973
    11785.503800       0.880822
    11799.410000       0.883639
    11813.349100       0.886426
    11827.321100       0.889182
    11841.326200       0.891906
    11855.364600       0.894599
    11869.436200       0.897261
    11883.541300       0.899890
    11897.680000       0.902488
    11911.852300       0.905053
    11926.058400       0.907586
    11940.298500       0.910087
    11954.572600       0.912555
    11968.880900       0.914989
    11983.223500       0.917391
    11997.600500       0.919759
    12012.012000       0.922095
    12026.458200       0.924396
    12040.939200       0.926664
    12055.455100       0.928898
    12070.006000       0.931098
    12084.592100       0.933264
    12099.213600       0.935396
    12113.870400       0.937494
    12128.562800       0.939557
    12143.290800       0.941586
    12158.054700       0.943580
    12172.854500       0.945540
    12187.690400       0.947464
    12202.562500       0.949354
    12217.471000       0.951209
    12232.415900       0.953030
    12247.397400       0.954815
    12262.415700       0.956565
    12277.470800       0.958280
    12292.563000       0.959959
    12307.692300       0.961604
    12322.858900       0.963213
    12338.062900       0.964787
    12353.304500       0.966326
    12368.583800       0.967830
    12383.900900       0.969298
    12399.256000       0.970731
    12414.649300       0.972129
    12430.080800       0.973491
    12445.550700       0.974818
    12461.059200       0.976111
    12476.606400       0.977367
    12492.192400       0.978589
    12507.817400       0.979776
    12523.481500       0.980928
    12539.185000       0.982044
    12554.927800       0.983126
    12570.710200       0.984173
    12586.532400       0.985185
    12602.394500       0.986163
    12618.296500       0.987105
    12634.238800       0.988014
    12650.221400       0.988888
    12666.244500       0.989727
    12682.308200       0.990533
    12698.412700       0.991304
    12714.558200       0.992041
    12730.744700       0.992745
    12746.972600       0.993415
    12763.241900       0.994051
    12779.552700       0.994654
    12795.905300       0.995224
    12812.299800       0.995760
    12828.736400       0.996264
    12845.215200       0.996735
    12861.736300       0.997173
    12878.300100       0.997579
    12894.906500       0.997953
    12911.555800       0.998295
    12928.248200       0.998604
    12944.983800       0.998883
    12961.762800       0.999129
    12978.585300       0.999345
    12995.451600       0.999530
    13012.361700       0.999684
    13029.316000       0.999807
    13046.314400       0.999900
    13063.357300       0.999963
    13080.444700       0.999996
    13097.576900       1.000000
    13114.754100       0.999974
    13131.976400       0.999920
    13149.243900       0.999836
    13166.556900       0.999724
    13183.915600       0.999584
    13201.320100       0.999416
    13218.770700       0.999221
    13236.267400       0.998998
    13253.810500       0.998747
    13271.400100       0.998470
    13289.036500       0.998167
    13306.719900       0.997838
    13324.450400       0.997482
    13342.228200       0.997101
    13360.053400       0.996695
    13377.926400       0.996264
    13395.847300       0.995809
    13413.816200       0.995329
    13431.833400       0.994825
    13449.899100       0.994298
    13468.013500       0.993748
    13486.176700       0.993175
    13504.388900       0.992579
    13522.650400       0.991961
    13540.961400       0.991321
    13559.322000       0.990660
    13577.732500       0.989978
    13596.193100       0.989275
    13614.703900       0.988552
    13633.265200       0.987809
    13651.877100       0.987046
    13670.540000       0.986264
    13689.253900       0.985464
    13708.019200       0.984645
    13726.836000       0.983808
    13745.704500       0.982953
    13764.624900       0.982081
    13783.597500       0.981192
    13802.622500       0.980287
    13821.700100       0.979365
    13840.830400       0.978429
    13860.013900       0.977476
    13879.250500       0.976509
    13898.540700       0.975528
    13917.884500       0.974532
    13937.282200       0.973523
    13956.734100       0.972500
    13976.240400       0.971465
    13995.801300       0.970418
    14015.417000       0.969358
    14035.087700       0.968287
    14054.813800       0.967205
    14074.595400       0.966112
    14094.432700       0.965009
    14114.326000       0.963896
    14134.275600       0.962773
    14154.281700       0.961641
    14174.344400       0.960501
    14194.464200       0.959352
    14214.641100       0.958196
    14234.875400       0.957032
    14255.167500       0.955862
    14275.517500       0.954685
    14295.925700       0.953501
    14316.392300       0.952312
    14336.917600       0.951118
    14357.501800       0.949919
    14378.145200       0.948715
    14398.848100       0.947508
    14419.610700       0.946296
    14440.433200       0.945082
    14461.316000       0.943865
    14482.259200       0.942645
    14503.263200       0.941423
    14524.328200       0.940200
    14545.454500       0.938975
    14566.642400       0.937750
    14587.892000       0.936524
    14609.203800       0.935299
    14630.577900       0.934073
    14652.014700       0.932849
    14673.514300       0.931626
    14695.077100       0.930404
    14716.703500       0.929184
    14738.393500       0.927967
    14760.147600       0.926752
    14781.966000       0.925540
    14803.849000       0.924332
    14825.796900       0.923127
    14847.809900       0.921927
    14869.888500       0.920731
    14892.032800       0.919540
    14914.243100       0.918355
    14936.519800       0.917175
    14958.863100       0.916001
    14981.273400       0.914833
    15003.750900       0.913671
    15026.296000       0.912517
    15048.909000       0.911370
    15071.590100       0.910231
    15094.339600       0.909099
    15117.158000       0.907976
    15140.045400       0.906861
    15163.002300       0.905755
    15186.028900       0.904658
    15209.125500       0.903570
    15232.292500       0.902492
    15255.530100       0.901424
    15278.838800       0.900366
    15302.218800       0.899319
    15325.670500       0.898283
    15349.194200       0.897257
    15372.790200       0.896243
    15396.458800       0.895240
    15420.200500       0.894249
    15444.015400       0.893270
    15467.904100       0.892303
    15491.866800       0.891349
    15515.903800       0.890407
    15540.015500       0.889478
    15564.202300       0.888561
    15588.464500       0.887658
    15612.802500       0.886769
    15637.216600       0.885893
    15661.707100       0.885030
    15686.274500       0.884182
    15710.919100       0.883347
    15735.641200       0.882527
    15760.441300       0.881720
    15785.319700       0.880929
    15810.276700       0.880151
    15835.312700       0.879389
    15860.428200       0.878641
    15885.623500       0.877907
    15910.899000       0.877189
    15936.255000       0.876486
    15961.691900       0.875797
    15987.210200       0.875124
    16012.810200       0.874466
    16038.492400       0.873823
    16064.257000       0.873195
    16090.104600       0.872583
    16116.035500       0.871985
    16142.050000       0.871403
    16168.148700       0.870836
    16194.332000       0.870284
    16220.600200       0.869748
    16246.953700       0.869226
    16273.393000       0.868720
    16299.918500       0.868229
    16326.530600       0.867752
    16353.229800       0.867291
    16380.016400       0.866844
    16406.890900       0.866412
    16433.853700       0.865995
    16460.905300       0.865592
    16488.046200       0.865203
    16515.276600       0.864829
    16542.597200       0.864469
    16570.008300       0.864123
    16597.510400       0.863790
    16625.103900       0.863471
    16652.789300       0.863166
    16680.567100       0.862874
    16708.437800       0.862594
    16736.401700       0.862328
    16764.459300       0.862074
    16792.611300       0.861832
    16820.857900       0.861603
    16849.199700       0.861385
    16877.637100       0.861179
    16906.170800       0.860984
    16934.801000       0.860800
    16963.528400       0.860626
    16992.353400       0.860463
    17021.276600       0.860310
    17050.298400       0.860167
    17079.419300       0.860033
    17108.639900       0.859908
    17137.960600       0.859791
    17167.382000       0.859683
    17196.904600       0.859583
    17226.528900       0.859490
    17256.255400       0.859404
    17286.084700       0.859325
    17316.017300       0.859252
    17346.053800       0.859184
    17376.194600       0.859122
    17406.440400       0.859065
    17436.791600       0.859012
    17467.248900       0.858963
    17497.812800       0.858917
    17528.483800       0.858875
    17559.262500       0.858834
    17590.149500       0.858796
    17621.145400       0.858758
    17652.250700       0.858722
    17683.466000       0.858685
    17714.791900       0.858649
    17746.228900       0.858611
    17777.777800       0.858572
    17809.439000       0.858530
    17841.213200       0.858486
    17873.101000       0.858438
    17905.103000       0.858387
    17937.219700       0.858331
    17969.451900       0.858269
    18001.800200       0.858202
    18034.265100       0.858128
    18066.847300       0.858047
    18099.547500       0.857958
    18132.366300       0.857860
    18165.304300       0.857753
    18198.362100       0.857636
    18231.540600       0.857508
    18264.840200       0.857368
    18298.261700       0.857216
    18331.805700       0.857052
    18365.472900       0.856873
    18399.264000       0.856680
    18433.179700       0.856472
    18467.220700       0.856248
    18501.387600       0.856007
    18535.681200       0.855748
    18570.102100       0.855471
    18604.651200       0.855175
    18639.329000       0.854858
    18674.136300       0.854521
    18709.073900       0.854162
    18744.142500       0.853781
    18779.342700       0.853376
    18814.675400       0.852947
    18850.141400       0.852492
    18885.741300       0.852012
    18921.475900       0.851505
    18957.346000       0.850971
    18993.352300       0.850408
    19029.495700       0.849815
    19065.776900       0.849192
    19102.196800       0.848538
    19138.756000       0.847852
    19175.455400       0.847133
    19212.295900       0.846379
    19249.278200       0.845591
    19286.403100       0.844768
    19323.671500       0.843907
    19361.084200       0.843009
    19398.642100       0.842073
    19436.346000       0.841097
    19474.196700       0.840080
    19512.195100       0.839023
    19550.342100       0.837923
    19588.638600       0.836780
    19627.085400       0.835593
    19665.683400       0.834361
    19704.433500       0.833082
    19743.336600       0.831757
    19782.393700       0.830385
    19821.605600       0.828963
    19860.973200       0.827491
    19900.497500       0.825969
    19940.179500       0.824396
    19980.020000       0.822770
    20020.020000       0.821090
    20060.180500       0.819356
    20100.502500       0.817566
    20140.986900       0.815720
    20181.634700       0.813817
    20222.446900       0.811856
    20263.424500       0.809836
    20304.568500       0.807756
    20345.880000       0.805615
    20387.359800       0.803412
    20429.009200       0.801146
    20470.829100       0.798817
    20512.820500       0.796424
    20554.984600       0.793965
    20597.322300       0.791439
    20639.834900       0.788847
    20682.523300       0.786186
    20725.388600       0.783457
    20768.432000       0.780658
    20811.654500       0.777788
    20855.057400       0.774847
    20898.641600       0.771834
    20942.408400       0.768748
    20986.358900       0.765587
    21030.494200       0.762352
    21074.815600       0.759042
    21119.324200       0.755656
    21164.021200       0.752192
    21208.907700       0.748650
    21253.985100       0.745030
    21299.254500       0.741331
    21344.717200       0.737552
    21390.374300       0.733692
    21436.227200       0.729751
    21482.277100       0.725728
    21528.525300       0.721622
    21574.973000       0.717432
    21621.621600       0.713159
    21668.472400       0.708801
    21715.526600       0.704358
    21762.785600       0.699829
    21810.250800       0.695214
    21857.923500       0.690512
    21905.805000       0.685722
    21953.896800       0.680845
    22002.200200       0.675879
    22050.716600       0.670824
    22099.447500       0.665680
    22148.394200       0.660446
    22197.558300       0.655122
    22246.941000       0.649707
    22296.544000       0.644202
    22346.368700       0.638605
    22396.416600       0.632917
    22446.689100       0.627136
    22497.187900       0.621264
    22547.914300       0.615299
    22598.870100       0.609242
    22650.056600       0.603092
    22701.475600       0.596848
    22753.128600       0.590512
    22805.017100       0.584083
    22857.142900       0.577560
    22909.507400       0.570945
    22962.112500       0.564235
    23014.959700       0.557433
    23068.050700       0.550537
    23121.387300       0.543548
    23174.971000       0.536465
    23228.803700       0.529290
    23282.887100       0.522022
    23337.222900       0.514662
    23391.812900       0.507209
    23446.658900       0.499664
    23501.762600       0.492027
    23557.126000       0.484299
    23612.750900       0.476480
    23668.639100       0.468570
    23724.792400       0.460570
    23781.212800       0.452480
    23837.902300       0.444301
    23894.862600       0.436034
    23952.095800       0.427678
    24009.603800       0.419235
    24067.388700       0.410706
    24125.452400       0.402091
    24183.796900       0.393390
    24242.424200       0.384606
    24301.336600       0.375738
    24360.535900       0.366787
    24420.024400       0.357755
    24479.804200       0.348642
    24539.877300       0.339450
    24600.246000       0.330179
    24660.912500       0.320831
    24721.878900       0.311408
    24783.147500       0.301909
    24844.720500       0.292337
    24906.600200       0.282692
    24968.789000       0.272977
    25031.289100       0.263193
    25094.102900       0.253340
    25157.232700       0.243421
    25220.681000       0.233438
    25284.450100       0.223391
    25348.542500       0.213284
    25412.960600       0.203116
    25477.707000       0.192891
