68,   68, MVIRI VIS channel from srf_MET2_1990213_1990214_1801-Release_S10EL_10.dat
Number of data points:
730
Wavenumber (cm-1)   Filter response
     8916.629500       0.000000
     8924.587200       0.000000
     8932.559200       0.000002
     8940.545400       0.000012
     8948.545900       0.000033
     8956.560700       0.000070
     8964.589900       0.000128
     8972.633500       0.000211
     8980.691500       0.000323
     8988.764000       0.000467
     8996.851100       0.000648
     9004.952700       0.000869
     9013.068900       0.001134
     9021.199800       0.001445
     9029.345400       0.001807
     9037.505600       0.002220
     9045.680700       0.002690
     9053.870500       0.003217
     9062.075200       0.003805
     9070.294800       0.004456
     9078.529300       0.005173
     9086.778700       0.005957
     9095.043200       0.006810
     9103.322700       0.007735
     9111.617300       0.008732
     9119.927000       0.009805
     9128.251900       0.010953
     9136.592100       0.012180
     9144.947400       0.013485
     9153.318100       0.014870
     9161.704100       0.016337
     9170.105500       0.017886
     9178.522300       0.019518
     9186.954500       0.021234
     9195.402300       0.023036
     9203.865600       0.024922
     9212.344500       0.026894
     9220.839100       0.028953
     9229.349300       0.031099
     9237.875300       0.033332
     9246.417000       0.035652
     9254.974500       0.038059
     9263.547900       0.040555
     9272.137200       0.043137
     9280.742500       0.045808
     9289.363700       0.048565
     9298.000900       0.051411
     9306.654300       0.054343
     9315.323700       0.057361
     9324.009300       0.060467
     9332.711200       0.063658
     9341.429200       0.066934
     9350.163600       0.070295
     9358.914400       0.073741
     9367.681500       0.077271
     9376.465100       0.080883
     9385.265100       0.084578
     9394.081700       0.088354
     9402.914900       0.092211
     9411.764700       0.096148
     9420.631200       0.100164
     9429.514400       0.104258
     9438.414300       0.108429
     9447.331100       0.112677
     9456.264800       0.116999
     9465.215300       0.121396
     9474.182900       0.125865
     9483.167400       0.130407
     9492.169000       0.135019
     9501.187600       0.139701
     9510.223500       0.144452
     9519.276500       0.149269
     9528.346800       0.154152
     9537.434400       0.159101
     9546.539400       0.164112
     9555.661700       0.169186
     9564.801500       0.174320
     9573.958800       0.179514
     9583.133700       0.184766
     9592.326100       0.190074
     9601.536200       0.195439
     9610.764100       0.200857
     9620.009600       0.206328
     9629.273000       0.211850
     9638.554200       0.217422
     9647.853400       0.223043
     9657.170400       0.228710
     9666.505600       0.234423
     9675.858700       0.240180
     9685.230000       0.245979
     9694.619500       0.251821
     9704.027200       0.257701
     9713.453100       0.263620
     9722.897400       0.269577
     9732.360100       0.275568
     9741.841200       0.281593
     9751.340800       0.287651
     9760.859000       0.293740
     9770.395700       0.299859
     9779.951100       0.306005
     9789.525200       0.312179
     9799.118100       0.318378
     9808.729800       0.324600
     9818.360300       0.330846
     9828.009800       0.337112
     9837.678300       0.343398
     9847.365800       0.349702
     9857.072400       0.356022
     9866.798200       0.362358
     9876.543200       0.368708
     9886.307500       0.375071
     9896.091000       0.381445
     9905.894000       0.387829
     9915.716400       0.394221
     9925.558300       0.400620
     9935.419800       0.407026
     9945.300800       0.413437
     9955.201600       0.419849
     9965.122100       0.426265
     9975.062300       0.432680
     9985.022500       0.439096
     9995.002500       0.445510
    10005.002500       0.451920
    10015.022500       0.458326
    10025.062700       0.464727
    10035.122900       0.471120
    10045.203400       0.477506
    10055.304200       0.483883
    10065.425300       0.490250
    10075.566800       0.496605
    10085.728700       0.502947
    10095.911200       0.509276
    10106.114200       0.515590
    10116.337900       0.521889
    10126.582300       0.528170
    10136.847400       0.534433
    10147.133400       0.540678
    10157.440300       0.546903
    10167.768200       0.553106
    10178.117000       0.559287
    10188.487000       0.565446
    10198.878100       0.571580
    10209.290500       0.577690
    10219.724100       0.583774
    10230.179000       0.589831
    10240.655400       0.595861
    10251.153300       0.601862
    10261.672700       0.607834
    10272.213700       0.613775
    10282.776300       0.619686
    10293.360800       0.625565
    10303.967000       0.631412
    10314.595200       0.637225
    10325.245200       0.643004
    10335.917300       0.648748
    10346.611500       0.654457
    10357.327800       0.660129
    10368.066400       0.665764
    10378.827200       0.671362
    10389.610400       0.676922
    10400.416000       0.682443
    10411.244100       0.687924
    10422.094800       0.693365
    10432.968200       0.698765
    10443.864200       0.704125
    10454.783100       0.709442
    10465.724800       0.714717
    10476.689400       0.719949
    10487.677000       0.725138
    10498.687700       0.730283
    10509.721500       0.735384
    10520.778500       0.740440
    10531.858900       0.745450
    10542.962600       0.750415
    10554.089700       0.755334
    10565.240400       0.760207
    10576.414600       0.765032
    10587.612500       0.769811
    10598.834100       0.774542
    10610.079600       0.779225
    10621.348900       0.783859
    10632.642200       0.788446
    10643.959600       0.792984
    10655.301000       0.797472
    10666.666700       0.801911
    10678.056600       0.806301
    10689.470900       0.810641
    10700.909600       0.814931
    10712.372800       0.819170
    10723.860600       0.823359
    10735.373100       0.827498
    10746.910300       0.831586
    10758.472300       0.835623
    10770.059200       0.839609
    10781.671200       0.843544
    10793.308100       0.847427
    10804.970300       0.851260
    10816.657700       0.855040
    10828.370300       0.858769
    10840.108400       0.862447
    10851.871900       0.866073
    10863.661100       0.869647
    10875.475800       0.873169
    10887.316300       0.876640
    10899.182600       0.880059
    10911.074700       0.883426
    10922.992900       0.886742
    10934.937100       0.890005
    10946.907500       0.893217
    10958.904100       0.896378
    10970.927000       0.899487
    10982.976400       0.902544
    10995.052200       0.905550
    11007.154700       0.908504
    11019.283700       0.911407
    11031.439600       0.914259
    11043.622300       0.917060
    11055.832000       0.919810
    11068.068600       0.922509
    11080.332400       0.925158
    11092.623400       0.927755
    11104.941700       0.930303
    11117.287400       0.932800
    11129.660500       0.935247
    11142.061300       0.937645
    11154.489700       0.939992
    11166.945800       0.942290
    11179.429800       0.944539
    11191.941800       0.946738
    11204.481800       0.948889
    11217.049900       0.950991
    11229.646300       0.953044
    11242.270900       0.955049
    11254.924000       0.957006
    11267.605600       0.958915
    11280.315800       0.960777
    11293.054800       0.962591
    11305.822500       0.964359
    11318.619100       0.966079
    11331.444800       0.967753
    11344.299500       0.969381
    11357.183400       0.970963
    11370.096600       0.972499
    11383.039300       0.973989
    11396.011400       0.975434
    11409.013100       0.976835
    11422.044500       0.978190
    11435.105800       0.979502
    11448.196900       0.980770
    11461.318100       0.981993
    11474.469300       0.983174
    11487.650800       0.984311
    11500.862600       0.985406
    11514.104800       0.986458
    11527.377500       0.987468
    11540.680900       0.988436
    11554.015000       0.989363
    11567.380000       0.990248
    11580.775900       0.991093
    11594.202900       0.991897
    11607.661100       0.992660
    11621.150500       0.993384
    11634.671300       0.994069
    11648.223600       0.994714
    11661.807600       0.995320
    11675.423200       0.995888
    11689.070700       0.996417
    11702.750100       0.996908
    11716.461600       0.997362
    11730.205300       0.997779
    11743.981200       0.998159
    11757.789500       0.998502
    11771.630400       0.998809
    11785.503800       0.999080
    11799.410000       0.999315
    11813.349100       0.999516
    11827.321100       0.999681
    11841.326200       0.999812
    11855.364600       0.999908
    11869.436200       0.999971
    11883.541300       1.000000
    11897.680000       0.999996
    11911.852300       0.999959
    11926.058400       0.999889
    11940.298500       0.999787
    11954.572600       0.999654
    11968.880900       0.999488
    11983.223500       0.999292
    11997.600500       0.999064
    12012.012000       0.998806
    12026.458200       0.998518
    12040.939200       0.998199
    12055.455100       0.997851
    12070.006000       0.997474
    12084.592100       0.997067
    12099.213600       0.996632
    12113.870400       0.996168
    12128.562800       0.995677
    12143.290800       0.995157
    12158.054700       0.994610
    12172.854500       0.994036
    12187.690400       0.993435
    12202.562500       0.992807
    12217.471000       0.992153
    12232.415900       0.991473
    12247.397400       0.990768
    12262.415700       0.990037
    12277.470800       0.989280
    12292.563000       0.988499
    12307.692300       0.987693
    12322.858900       0.986863
    12338.062900       0.986009
    12353.304500       0.985131
    12368.583800       0.984230
    12383.900900       0.983305
    12399.256000       0.982358
    12414.649300       0.981387
    12430.080800       0.980395
    12445.550700       0.979380
    12461.059200       0.978343
    12476.606400       0.977284
    12492.192400       0.976204
    12507.817400       0.975103
    12523.481500       0.973981
    12539.185000       0.972838
    12554.927800       0.971674
    12570.710200       0.970491
    12586.532400       0.969287
    12602.394500       0.968063
    12618.296500       0.966820
    12634.238800       0.965557
    12650.221400       0.964276
    12666.244500       0.962975
    12682.308200       0.961656
    12698.412700       0.960318
    12714.558200       0.958961
    12730.744700       0.957587
    12746.972600       0.956195
    12763.241900       0.954785
    12779.552700       0.953357
    12795.905300       0.951912
    12812.299800       0.950450
    12828.736400       0.948971
    12845.215200       0.947475
    12861.736300       0.945962
    12878.300100       0.944433
    12894.906500       0.942888
    12911.555800       0.941327
    12928.248200       0.939749
    12944.983800       0.938156
    12961.762800       0.936547
    12978.585300       0.934923
    12995.451600       0.933284
    13012.361700       0.931629
    13029.316000       0.929959
    13046.314400       0.928275
    13063.357300       0.926575
    13080.444700       0.924862
    13097.576900       0.923133
    13114.754100       0.921391
    13131.976400       0.919634
    13149.243900       0.917863
    13166.556900       0.916079
    13183.915600       0.914280
    13201.320100       0.912468
    13218.770700       0.910642
    13236.267400       0.908803
    13253.810500       0.906951
    13271.400100       0.905085
    13289.036500       0.903207
    13306.719900       0.901315
    13324.450400       0.899411
    13342.228200       0.897494
    13360.053400       0.895564
    13377.926400       0.893622
    13395.847300       0.891667
    13413.816200       0.889700
    13431.833400       0.887721
    13449.899100       0.885729
    13468.013500       0.883726
    13486.176700       0.881711
    13504.388900       0.879684
    13522.650400       0.877645
    13540.961400       0.875594
    13559.322000       0.873532
    13577.732500       0.871458
    13596.193100       0.869373
    13614.703900       0.867277
    13633.265200       0.865169
    13651.877100       0.863051
    13670.540000       0.860921
    13689.253900       0.858780
    13708.019200       0.856628
    13726.836000       0.854466
    13745.704500       0.852293
    13764.624900       0.850108
    13783.597500       0.847914
    13802.622500       0.845709
    13821.700100       0.843493
    13840.830400       0.841267
    13860.013900       0.839031
    13879.250500       0.836784
    13898.540700       0.834527
    13917.884500       0.832260
    13937.282200       0.829983
    13956.734100       0.827696
    13976.240400       0.825399
    13995.801300       0.823093
    14015.417000       0.820776
    14035.087700       0.818450
    14054.813800       0.816114
    14074.595400       0.813768
    14094.432700       0.811414
    14114.326000       0.809049
    14134.275600       0.806675
    14154.281700       0.804292
    14174.344400       0.801900
    14194.464200       0.799499
    14214.641100       0.797088
    14234.875400       0.794668
    14255.167500       0.792240
    14275.517500       0.789802
    14295.925700       0.787356
    14316.392300       0.784901
    14336.917600       0.782437
    14357.501800       0.779965
    14378.145200       0.777484
    14398.848100       0.774995
    14419.610700       0.772497
    14440.433200       0.769990
    14461.316000       0.767476
    14482.259200       0.764953
    14503.263200       0.762423
    14524.328200       0.759884
    14545.454500       0.757337
    14566.642400       0.754782
    14587.892000       0.752220
    14609.203800       0.749650
    14630.577900       0.747072
    14652.014700       0.744486
    14673.514300       0.741894
    14695.077100       0.739293
    14716.703500       0.736685
    14738.393500       0.734071
    14760.147600       0.731448
    14781.966000       0.728819
    14803.849000       0.726183
    14825.796900       0.723540
    14847.809900       0.720890
    14869.888500       0.718234
    14892.032800       0.715570
    14914.243100       0.712900
    14936.519800       0.710224
    14958.863100       0.707542
    14981.273400       0.704853
    15003.750900       0.702158
    15026.296000       0.699457
    15048.909000       0.696750
    15071.590100       0.694037
    15094.339600       0.691318
    15117.158000       0.688594
    15140.045400       0.685864
    15163.002300       0.683129
    15186.028900       0.680388
    15209.125500       0.677642
    15232.292500       0.674891
    15255.530100       0.672135
    15278.838800       0.669374
    15302.218800       0.666609
    15325.670500       0.663838
    15349.194200       0.661063
    15372.790200       0.658284
    15396.458800       0.655501
    15420.200500       0.652713
    15444.015400       0.649921
    15467.904100       0.647125
    15491.866800       0.644325
    15515.903800       0.641522
    15540.015500       0.638715
    15564.202300       0.635905
    15588.464500       0.633091
    15612.802500       0.630274
    15637.216600       0.627454
    15661.707100       0.624631
    15686.274500       0.621806
    15710.919100       0.618977
    15735.641200       0.616146
    15760.441300       0.613313
    15785.319700       0.610477
    15810.276700       0.607640
    15835.312700       0.604800
    15860.428200       0.601959
    15885.623500       0.599116
    15910.899000       0.596271
    15936.255000       0.593425
    15961.691900       0.590578
    15987.210200       0.587729
    16012.810200       0.584879
    16038.492400       0.582029
    16064.257000       0.579178
    16090.104600       0.576327
    16116.035500       0.573475
    16142.050000       0.570622
    16168.148700       0.567770
    16194.332000       0.564918
    16220.600200       0.562066
    16246.953700       0.559214
    16273.393000       0.556362
    16299.918500       0.553512
    16326.530600       0.550662
    16353.229800       0.547813
    16380.016400       0.544965
    16406.890900       0.542119
    16433.853700       0.539273
    16460.905300       0.536430
    16488.046200       0.533588
    16515.276600       0.530748
    16542.597200       0.527910
    16570.008300       0.525074
    16597.510400       0.522240
    16625.103900       0.519409
    16652.789300       0.516580
    16680.567100       0.513754
    16708.437800       0.510931
    16736.401700       0.508111
    16764.459300       0.505294
    16792.611300       0.502480
    16820.857900       0.499670
    16849.199700       0.496864
    16877.637100       0.494061
    16906.170800       0.491262
    16934.801000       0.488468
    16963.528400       0.485677
    16992.353400       0.482891
    17021.276600       0.480109
    17050.298400       0.477332
    17079.419300       0.474559
    17108.639900       0.471791
    17137.960600       0.469029
    17167.382000       0.466271
    17196.904600       0.463519
    17226.528900       0.460772
    17256.255400       0.458031
    17286.084700       0.455295
    17316.017300       0.452565
    17346.053800       0.449841
    17376.194600       0.447123
    17406.440400       0.444411
    17436.791600       0.441705
    17467.248900       0.439006
    17497.812800       0.436313
    17528.483800       0.433626
    17559.262500       0.430947
    17590.149500       0.428274
    17621.145400       0.425608
    17652.250700       0.422949
    17683.466000       0.420297
    17714.791900       0.417652
    17746.228900       0.415015
    17777.777800       0.412384
    17809.439000       0.409762
    17841.213200       0.407147
    17873.101000       0.404539
    17905.103000       0.401939
    17937.219700       0.399347
    17969.451900       0.396763
    18001.800200       0.394187
    18034.265100       0.391618
    18066.847300       0.389058
    18099.547500       0.386506
    18132.366300       0.383962
    18165.304300       0.381426
    18198.362100       0.378898
    18231.540600       0.376379
    18264.840200       0.373868
    18298.261700       0.371366
    18331.805700       0.368872
    18365.472900       0.366386
    18399.264000       0.363909
    18433.179700       0.361441
    18467.220700       0.358980
    18501.387600       0.356529
    18535.681200       0.354086
    18570.102100       0.351652
    18604.651200       0.349226
    18639.329000       0.346809
    18674.136300       0.344400
    18709.073900       0.342000
    18744.142500       0.339609
    18779.342700       0.337226
    18814.675400       0.334852
    18850.141400       0.332486
    18885.741300       0.330129
    18921.475900       0.327780
    18957.346000       0.325440
    18993.352300       0.323108
    19029.495700       0.320785
    19065.776900       0.318470
    19102.196800       0.316163
    19138.756000       0.313864
    19175.455400       0.311573
    19212.295900       0.309291
    19249.278200       0.307017
    19286.403100       0.304750
    19323.671500       0.302492
    19361.084200       0.300241
    19398.642100       0.297999
    19436.346000       0.295763
    19474.196700       0.293536
    19512.195100       0.291316
    19550.342100       0.289103
    19588.638600       0.286897
    19627.085400       0.284699
    19665.683400       0.282508
    19704.433500       0.280324
    19743.336600       0.278146
    19782.393700       0.275976
    19821.605600       0.273812
    19860.973200       0.271654
    19900.497500       0.269503
    19940.179500       0.267358
    19980.020000       0.265219
    20020.020000       0.263086
    20060.180500       0.260959
    20100.502500       0.258837
    20140.986900       0.256721
    20181.634700       0.254610
    20222.446900       0.252505
    20263.424500       0.250404
    20304.568500       0.248308
    20345.880000       0.246217
    20387.359800       0.244131
    20429.009200       0.242049
    20470.829100       0.239971
    20512.820500       0.237897
    20554.984600       0.235827
    20597.322300       0.233760
    20639.834900       0.231697
    20682.523300       0.229638
    20725.388600       0.227581
    20768.432000       0.225527
    20811.654500       0.223476
    20855.057400       0.221428
    20898.641600       0.219382
    20942.408400       0.217338
    20986.358900       0.215296
    21030.494200       0.213256
    21074.815600       0.211217
    21119.324200       0.209180
    21164.021200       0.207143
    21208.907700       0.205108
    21253.985100       0.203074
    21299.254500       0.201040
    21344.717200       0.199006
    21390.374300       0.196973
    21436.227200       0.194939
    21482.277100       0.192906
    21528.525300       0.190872
    21574.973000       0.188837
    21621.621600       0.186801
    21668.472400       0.184765
    21715.526600       0.182727
    21762.785600       0.180688
    21810.250800       0.178648
    21857.923500       0.176605
    21905.805000       0.174561
    21953.896800       0.172515
    22002.200200       0.170466
    22050.716600       0.168415
    22099.447500       0.166361
    22148.394200       0.164305
    22197.558300       0.162245
    22246.941000       0.160183
    22296.544000       0.158117
    22346.368700       0.156048
    22396.416600       0.153975
    22446.689100       0.151898
    22497.187900       0.149818
    22547.914300       0.147734
    22598.870100       0.145646
    22650.056600       0.143553
    22701.475600       0.141457
    22753.128600       0.139356
    22805.017100       0.137250
    22857.142900       0.135140
    22909.507400       0.133026
    22962.112500       0.130906
    23014.959700       0.128782
    23068.050700       0.126653
    23121.387300       0.124520
    23174.971000       0.122381
    23228.803700       0.120238
    23282.887100       0.118089
    23337.222900       0.115936
    23391.812900       0.113778
    23446.658900       0.111615
    23501.762600       0.109447
    23557.126000       0.107275
    23612.750900       0.105097
    23668.639100       0.102916
    23724.792400       0.100729
    23781.212800       0.098538
    23837.902300       0.096342
    23894.862600       0.094143
    23952.095800       0.091939
    24009.603800       0.089731
    24067.388700       0.087520
    24125.452400       0.085305
    24183.796900       0.083086
    24242.424200       0.080865
    24301.336600       0.078640
    24360.535900       0.076412
    24420.024400       0.074183
    24479.804200       0.071951
    24539.877300       0.069717
    24600.246000       0.067482
    24660.912500       0.065245
    24721.878900       0.063008
    24783.147500       0.060770
    24844.720500       0.058533
    24906.600200       0.056295
    24968.789000       0.054059
    25031.289100       0.051823
    25094.102900       0.049590
    25157.232700       0.047359
    25220.681000       0.045130
    25284.450100       0.042906
    25348.542500       0.040685
    25412.960600       0.038468
    25477.707000       0.036257
