3,    channel 3 SRF extracted from SRF_FY-3F_MERSI-III.zip(FY3F_MERSI_SRF_CH03_Pub.txt) (received Nov 2023)
Number of data points:
209
Wavenumber (cm-1)   Filter response
    14204.559600       0.000177
    14214.659300       0.000295
    14224.732900       0.000413
    14234.865300       0.000530
    14245.012200       0.000765
    14255.175600       0.000882
    14265.314900       0.001057
    14275.513400       0.001350
    14285.724500       0.001700
    14295.911400       0.001991
    14306.155700       0.002398
    14316.373800       0.002805
    14326.651700       0.003269
    14336.903200       0.003731
    14347.214600       0.004252
    14357.499700       0.004829
    14367.801600       0.005580
    14378.159700       0.006329
    14388.495400       0.007135
    14398.846000       0.008170
    14409.215700       0.009435
    14419.598200       0.010698
    14429.997800       0.012132
    14440.414400       0.013910
    14450.848300       0.015915
    14461.301300       0.018147
    14471.769600       0.020778
    14482.250800       0.023980
    14492.753600       0.027694
    14503.271600       0.031977
    14513.805000       0.036885
    14524.315600       0.042702
    14534.885800       0.049370
    14545.469400       0.057115
    14556.030200       0.065936
    14566.648800       0.075888
    14577.242500       0.087082
    14587.896300       0.099741
    14598.525200       0.113637
    14609.214500       0.129278
    14619.878800       0.146662
    14630.556500       0.165673
    14641.299200       0.186197
    14652.012500       0.208630
    14662.743700       0.232741
    14673.492800       0.258305
    14684.305100       0.285659
    14695.087900       0.314238
    14705.891000       0.344380
    14716.710000       0.375689
    14727.547000       0.408902
    14738.402200       0.442547
    14749.273400       0.476853
    14760.162900       0.511932
    14771.070600       0.547503
    14781.952900       0.582609
    14792.895000       0.617873
    14803.855600       0.652562
    14814.834600       0.685605
    14825.785900       0.718303
    14836.799700       0.749252
    14847.790100       0.778849
    14858.841000       0.806933
    14869.910600       0.834185
    14880.952400       0.858465
    14892.012800       0.880735
    14903.136300       0.900997
    14914.232000       0.920379
    14925.391000       0.936628
    14936.526500       0.951156
    14947.678600       0.964360
    14958.847500       0.975225
    14970.082300       0.983981
    14981.286900       0.990741
    14992.512700       0.995674
    15003.757700       0.998159
    15015.019500       1.000000
    15026.298300       0.999906
    15037.598500       0.998494
    15048.918000       0.995422
    15060.254600       0.990518
    15071.610500       0.984966
    15082.935800       0.977966
    15094.330500       0.970645
    15105.742500       0.963342
    15117.174000       0.956055
    15128.579300       0.946748
    15140.045400       0.937482
    15151.533500       0.926436
    15162.997700       0.916895
    15174.520600       0.906349
    15186.019600       0.895360
    15197.584600       0.884917
    15209.120800       0.876212
    15220.677000       0.866354
    15232.301700       0.856527
    15243.893100       0.848902
    15255.509200       0.842015
    15267.191900       0.834808
    15278.841100       0.827482
    15290.515200       0.822805
    15302.207100       0.817211
    15313.919300       0.813412
    15325.654100       0.811062
    15337.399800       0.810455
    15349.170600       0.810732
    15360.961900       0.813100
    15372.773600       0.814174
    15384.603600       0.815026
    15396.454100       0.815861
    15408.322900       0.818433
    15420.212400       0.821003
    15432.075000       0.824580
    15444.003500       0.830249
    15455.955300       0.836178
    15467.925600       0.842132
    15479.866600       0.849594
    15491.878800       0.857228
    15503.864000       0.865765
    15515.911000       0.874801
    15527.935800       0.881840
    15540.027600       0.888292
    15552.092300       0.894920
    15564.226600       0.900140
    15576.331300       0.904521
    15588.454800       0.908971
    15600.602100       0.911345
    15612.817100       0.912938
    15625.002400       0.914316
    15637.214100       0.914751
    15649.442500       0.915257
    15661.690000       0.913924
    15673.964000       0.911204
    15686.257300       0.906256
    15698.567400       0.901048
    15710.901800       0.893391
    15723.258100       0.886882
    15735.633800       0.876754
    15748.029000       0.865420
    15760.446300       0.851925
    15772.885600       0.839689
    15785.297200       0.826692
    15797.778300       0.813327
    15810.281700       0.799536
    15822.809800       0.785430
    15835.307700       0.766476
    15847.873100       0.744969
    15860.413100       0.723824
    15873.026000       0.700915
    15885.605800       0.675120
    15898.261300       0.650913
    15910.886300       0.624824
    15923.587200       0.597296
    15936.257500       0.569835
    15948.948100       0.541325
    15961.712300       0.512157
    15974.446000       0.482943
    15987.207700       0.453010
    15999.987200       0.422693
    16012.787200       0.393166
    16025.664100       0.364036
    16038.510400       0.335529
    16051.377200       0.307648
    16064.269900       0.280615
    16077.183300       0.254539
    16090.117500       0.228079
    16103.077700       0.203243
    16116.058800       0.180254
    16129.008800       0.157827
    16142.037000       0.137411
    16155.086200       0.119116
    16168.159200       0.102384
    16181.253300       0.087601
    16194.318900       0.075049
    16207.458100       0.064002
    16220.621200       0.054571
    16233.755700       0.046647
    16246.966900       0.039726
    16260.146700       0.033808
    16273.403600       0.028895
    16286.629000       0.024540
    16299.931800       0.020854
    16313.203100       0.017894
    16326.557300       0.015156
    16339.877300       0.012922
    16353.219100       0.010966
    16366.585300       0.009233
    16380.032500       0.007724
    16393.445300       0.006550
    16406.882800       0.005488
    16420.345100       0.004705
    16433.829400       0.003978
    16447.395500       0.003363
    16460.929700       0.002859
    16474.486300       0.002411
    16488.067900       0.002019
    16501.674700       0.001627
    16515.303900       0.001347
    16528.901000       0.001067
    16542.583500       0.000786
    16556.283200       0.000618
    16570.011000       0.000506
    16583.764400       0.000394
    16597.482800       0.000281
    16611.284600       0.000281
    16625.109400       0.000225
    16638.962800       0.000169
    16652.781000       0.000169
    16666.680600       0.000225
