2,   SBG channel 2 from srf_082024.csv
Number of data points:
355
Wavenumber (cm-1)   Filter response
     2004.008100       0.000154
     2004.409800       0.000163
     2004.811500       0.000173
     2005.213500       0.000183
     2005.615700       0.000194
     2006.017900       0.000205
     2006.420400       0.000218
     2006.823200       0.000231
     2007.226100       0.000245
     2007.629000       0.000260
     2008.032100       0.000277
     2008.435400       0.000294
     2008.838900       0.000313
     2009.242400       0.000333
     2009.646400       0.000354
     2010.050300       0.000377
     2010.454300       0.000402
     2010.858600       0.000429
     2011.263100       0.000458
     2011.667600       0.000489
     2012.072500       0.000522
     2012.477400       0.000559
     2012.882400       0.000597
     2013.287700       0.000639
     2013.693100       0.000685
     2014.098600       0.000734
     2014.504400       0.000787
     2014.910400       0.000845
     2015.316400       0.000907
     2015.722700       0.000975
     2016.129000       0.001049
     2016.535500       0.001129
     2016.942300       0.001216
     2017.349200       0.001311
     2017.756300       0.001414
     2018.163500       0.001526
     2018.570800       0.001649
     2018.978400       0.001783
     2019.386100       0.001930
     2019.793900       0.002090
     2020.202100       0.002266
     2020.610200       0.002459
     2021.018600       0.002671
     2021.427100       0.002904
     2021.835800       0.003160
     2022.244600       0.003442
     2022.653800       0.003753
     2023.063000       0.004096
     2023.472300       0.004475
     2023.881800       0.004895
     2024.291500       0.005360
     2024.701300       0.005875
     2025.111300       0.006448
     2025.521600       0.007085
     2025.932000       0.007793
     2026.342500       0.008584
     2026.753200       0.009466
     2027.163900       0.010452
     2027.575000       0.011555
     2027.986100       0.012791
     2028.397600       0.014179
     2028.809100       0.015737
     2029.220800       0.017490
     2029.632600       0.019465
     2030.044600       0.021692
     2030.456800       0.024206
     2030.869300       0.027046
     2031.281700       0.030258
     2031.694500       0.033894
     2032.107300       0.038010
     2032.520300       0.042674
     2032.933500       0.047956
     2033.346800       0.053939
     2033.760500       0.060710
     2034.174200       0.068366
     2034.588000       0.077007
     2035.002100       0.086741
     2035.416100       0.097675
     2035.830600       0.109915
     2036.245200       0.123561
     2036.659900       0.138700
     2037.074800       0.155403
     2037.489900       0.173715
     2037.905000       0.193655
     2038.320300       0.215208
     2038.735800       0.238324
     2039.151700       0.262921
     2039.567600       0.288886
     2039.983600       0.316079
     2040.399900       0.345726
     2040.816300       0.376331
     2041.232800       0.407685
     2041.649800       0.439581
     2042.066700       0.471821
     2042.483600       0.504211
     2042.900900       0.536570
     2043.318400       0.568725
     2043.735800       0.600513
     2044.153700       0.631773
     2044.571800       0.662350
     2044.989900       0.692092
     2045.408100       0.720844
     2045.826500       0.748453
     2046.245100       0.774770
     2046.663800       0.799646
     2047.082800       0.822944
     2047.502100       0.844544
     2047.921400       0.864345
     2048.340800       0.882278
     2048.760500       0.898308
     2049.180200       0.912443
     2049.600300       0.924735
     2050.020500       0.935277
     2050.440900       0.944198
     2050.861300       0.951658
     2051.282000       0.957834
     2051.702900       0.962912
     2052.123800       0.967076
     2052.545200       0.970500
     2052.966600       0.973340
     2053.388200       0.975734
     2053.809800       0.977795
     2054.231700       0.979616
     2054.653800       0.981269
     2055.075900       0.982809
     2055.498500       0.984272
     2055.921100       0.985683
     2056.343800       0.987056
     2056.766800       0.988396
     2057.189900       0.989703
     2057.613000       0.990969
     2058.036600       0.992188
     2058.460400       0.993349
     2058.884000       0.994442
     2059.308100       0.995456
     2059.732200       0.996382
     2060.156500       0.997210
     2060.581100       0.997936
     2061.005600       0.998554
     2061.430700       0.999061
     2061.855700       0.999457
     2062.281000       0.999743
     2062.706300       0.999922
     2063.131800       1.000000
     2063.557400       0.999983
     2063.983600       0.999879
     2064.409700       0.999697
     2064.835900       0.999448
     2065.262200       0.999141
     2065.689000       0.998788
     2066.115700       0.998399
     2066.542500       0.997986
     2066.970000       0.997560
     2067.397200       0.997129
     2067.824700       0.996703
     2068.252200       0.996292
     2068.680200       0.995901
     2069.108200       0.995537
     2069.536600       0.995205
     2069.964800       0.994910
     2070.393300       0.994653
     2070.822000       0.994437
     2071.251000       0.994261
     2071.680200       0.994126
     2072.109400       0.994028
     2072.539100       0.993967
     2072.968500       0.993938
     2073.398400       0.993938
     2073.828400       0.993962
     2074.258300       0.994005
     2074.688700       0.994062
     2075.119400       0.994128
     2075.550000       0.994197
     2075.981000       0.994265
     2076.411900       0.994326
     2076.843300       0.994377
     2077.274700       0.994413
     2077.706100       0.994430
     2078.138200       0.994427
     2078.570100       0.994399
     2079.002200       0.994348
     2079.434300       0.994271
     2079.866900       0.994168
     2080.299600       0.994042
     2080.732400       0.993892
     2081.165500       0.993722
     2081.598600       0.993534
     2082.032000       0.993333
     2082.465600       0.993121
     2082.899400       0.992904
     2083.333300       0.992687
     2083.767600       0.992473
     2084.201900       0.992269
     2084.636200       0.992079
     2085.070800       0.991909
     2085.505600       0.991761
     2085.940700       0.991641
     2086.376000       0.991552
     2086.811500       0.991497
     2087.247100       0.991477
     2087.682600       0.991493
     2088.118700       0.991545
     2088.554700       0.991633
     2088.991000       0.991753
     2089.427500       0.991902
     2089.864300       0.992076
     2090.301000       0.992268
     2090.738000       0.992471
     2091.175300       0.992678
     2091.612500       0.992880
     2092.050000       0.993066
     2092.488000       0.993226
     2092.926000       0.993349
     2093.364000       0.993424
     2093.802200       0.993440
     2094.240700       0.993385
     2094.679400       0.993250
     2095.118400       0.993025
     2095.557400       0.992700
     2095.996600       0.992269
     2096.436000       0.991725
     2096.875700       0.991063
     2097.315400       0.990282
     2097.755400       0.989381
     2098.195600       0.988362
     2098.636000       0.987227
     2099.076400       0.985984
     2099.517100       0.984639
     2099.958000       0.983202
     2100.398900       0.981683
     2100.840300       0.980095
     2101.281700       0.978448
     2101.723400       0.976752
     2102.165300       0.975017
     2102.607200       0.973249
     2103.049300       0.971448
     2103.491700       0.969608
     2103.934600       0.967715
     2104.377200       0.965744
     2104.820100       0.963655
     2105.263200       0.961394
     2105.706500       0.958887
     2106.149900       0.956041
     2106.593500       0.952742
     2107.037600       0.948854
     2107.481700       0.944223
     2107.925800       0.938681
     2108.370100       0.932050
     2108.814700       0.924155
     2109.259500       0.914828
     2109.704800       0.903920
     2110.149900       0.891313
     2110.595200       0.876923
     2111.040800       0.860703
     2111.486600       0.842648
     2111.932400       0.822789
     2112.378400       0.801189
     2112.825000       0.777937
     2113.271500       0.753141
     2113.718000       0.726923
     2114.164800       0.699414
     2114.611800       0.670752
     2115.059100       0.641079
     2115.506600       0.610541
     2115.954300       0.579290
     2116.402100       0.547485
     2116.850100       0.515297
     2117.298300       0.482906
     2117.746600       0.450507
     2118.195300       0.418307
     2118.644000       0.386527
     2119.093000       0.355396
     2119.542200       0.325144
     2119.991500       0.295996
     2120.440900       0.268162
     2120.890600       0.241826
     2121.340600       0.217137
     2121.790800       0.194202
     2122.241200       0.173083
     2122.691700       0.153797
     2123.142300       0.136318
     2123.593000       0.120587
     2124.044200       0.106512
     2124.495600       0.093985
     2124.947000       0.082882
     2125.398400       0.073075
     2125.850300       0.064438
     2126.302200       0.056844
     2126.754400       0.050179
     2127.206800       0.044333
     2127.659700       0.039208
     2128.112300       0.034716
     2128.565400       0.030776
     2129.018600       0.027320
     2129.471900       0.024285
     2129.925300       0.021618
     2130.379400       0.019271
     2130.833300       0.017204
     2131.287400       0.015381
     2131.741700       0.013772
     2132.196000       0.012348
     2132.650900       0.011087
     2133.105700       0.009969
     2133.561000       0.008977
     2134.016400       0.008094
     2134.471700       0.007307
     2134.927500       0.006606
     2135.383300       0.005980
     2135.839400       0.005419
     2136.295700       0.004918
     2136.752200       0.004468
     2137.208700       0.004064
     2137.665800       0.003701
     2138.122800       0.003374
     2138.579800       0.003079
     2139.037400       0.002813
     2139.495100       0.002573
     2139.952900       0.002355
     2140.410900       0.002158
     2140.869100       0.001980
     2141.327600       0.001818
     2141.786100       0.001671
     2142.244900       0.001537
     2142.704100       0.001415
     2143.163300       0.001304
     2143.622800       0.001202
     2144.082300       0.001110
     2144.542000       0.001025
     2145.002000       0.000948
     2145.462400       0.000877
     2145.922900       0.000812
     2146.383300       0.000753
     2146.844200       0.000698
     2147.305200       0.000648
     2147.766400       0.000602
     2148.227500       0.000559
     2148.689500       0.000520
     2149.151100       0.000484
     2149.613000       0.000451
     2150.075200       0.000420
     2150.537600       0.000391
     2151.000200       0.000365
     2151.463100       0.000341
     2151.926000       0.000319
     2152.389200       0.000298
     2152.852500       0.000278
     2153.316200       0.000260
     2153.779800       0.000244
     2154.243700       0.000228
     2154.708300       0.000214
     2155.172400       0.000201
     2155.637000       0.000188
     2156.101800       0.000177
     2156.566700       0.000166
     2157.031700       0.000156
