47,   47, MVIRI VIS channel from srf_MET2_1987348_1987349_1801-Release_S10EL_10.dat
Number of data points:
730
Wavenumber (cm-1)   Filter response
     8916.629500       0.000000
     8924.587200       0.000000
     8932.559200       0.000002
     8940.545400       0.000011
     8948.545900       0.000032
     8956.560700       0.000069
     8964.589900       0.000127
     8972.633500       0.000209
     8980.691500       0.000320
     8988.764000       0.000463
     8996.851100       0.000642
     9004.952700       0.000861
     9013.068900       0.001124
     9021.199800       0.001432
     9029.345400       0.001790
     9037.505600       0.002200
     9045.680700       0.002665
     9053.870500       0.003188
     9062.075200       0.003771
     9070.294800       0.004416
     9078.529300       0.005126
     9086.778700       0.005903
     9095.043200       0.006749
     9103.322700       0.007665
     9111.617300       0.008654
     9119.927000       0.009717
     9128.251900       0.010856
     9136.592100       0.012071
     9144.947400       0.013365
     9153.318100       0.014738
     9161.704100       0.016192
     9170.105500       0.017728
     9178.522300       0.019346
     9186.954500       0.021048
     9195.402300       0.022833
     9203.865600       0.024704
     9212.344500       0.026659
     9220.839100       0.028701
     9229.349300       0.030828
     9237.875300       0.033042
     9246.417000       0.035343
     9254.974500       0.037730
     9263.547900       0.040205
     9272.137200       0.042766
     9280.742500       0.045414
     9289.363700       0.048149
     9298.000900       0.050971
     9306.654300       0.053879
     9315.323700       0.056873
     9324.009300       0.059953
     9332.711200       0.063119
     9341.429200       0.066368
     9350.163600       0.069703
     9358.914400       0.073121
     9367.681500       0.076622
     9376.465100       0.080206
     9385.265100       0.083872
     9394.081700       0.087619
     9402.914900       0.091445
     9411.764700       0.095352
     9420.631200       0.099337
     9429.514400       0.103399
     9438.414300       0.107538
     9447.331100       0.111753
     9456.264800       0.116043
     9465.215300       0.120406
     9474.182900       0.124842
     9483.167400       0.129349
     9492.169000       0.133927
     9501.187600       0.138574
     9510.223500       0.143289
     9519.276500       0.148071
     9528.346800       0.152919
     9537.434400       0.157831
     9546.539400       0.162806
     9555.661700       0.167843
     9564.801500       0.172940
     9573.958800       0.178097
     9583.133700       0.183312
     9592.326100       0.188583
     9601.536200       0.193910
     9610.764100       0.199290
     9620.009600       0.204724
     9629.273000       0.210208
     9638.554200       0.215741
     9647.853400       0.221324
     9657.170400       0.226953
     9666.505600       0.232628
     9675.858700       0.238347
     9685.230000       0.244108
     9694.619500       0.249910
     9704.027200       0.255752
     9713.453100       0.261633
     9722.897400       0.267551
     9732.360100       0.273504
     9741.841200       0.279492
     9751.340800       0.285511
     9760.859000       0.291562
     9770.395700       0.297643
     9779.951100       0.303752
     9789.525200       0.309888
     9799.118100       0.316050
     9808.729800       0.322235
     9818.360300       0.328444
     9828.009800       0.334672
     9837.678300       0.340922
     9847.365800       0.347190
     9857.072400       0.353474
     9866.798200       0.359774
     9876.543200       0.366089
     9886.307500       0.372416
     9896.091000       0.378756
     9905.894000       0.385104
     9915.716400       0.391463
     9925.558300       0.397828
     9935.419800       0.404200
     9945.300800       0.410577
     9955.201600       0.416957
     9965.122100       0.423341
     9975.062300       0.429724
     9985.022500       0.436108
     9995.002500       0.442491
    10005.002500       0.448870
    10015.022500       0.455246
    10025.062700       0.461617
    10035.122900       0.467981
    10045.203400       0.474338
    10055.304200       0.480687
    10065.425300       0.487025
    10075.566800       0.493353
    10085.728700       0.499669
    10095.911200       0.505972
    10106.114200       0.512260
    10116.337900       0.518533
    10126.582300       0.524790
    10136.847400       0.531029
    10147.133400       0.537250
    10157.440300       0.543452
    10167.768200       0.549633
    10178.117000       0.555792
    10188.487000       0.561930
    10198.878100       0.568044
    10209.290500       0.574134
    10219.724100       0.580198
    10230.179000       0.586237
    10240.655400       0.592249
    10251.153300       0.598232
    10261.672700       0.604187
    10272.213700       0.610113
    10282.776300       0.616008
    10293.360800       0.621873
    10303.967000       0.627705
    10314.595200       0.633504
    10325.245200       0.639271
    10335.917300       0.645003
    10346.611500       0.650700
    10357.327800       0.656362
    10368.066400       0.661987
    10378.827200       0.667576
    10389.610400       0.673127
    10400.416000       0.678640
    10411.244100       0.684114
    10422.094800       0.689548
    10432.968200       0.694943
    10443.864200       0.700297
    10454.783100       0.705610
    10465.724800       0.710882
    10476.689400       0.716111
    10487.677000       0.721298
    10498.687700       0.726441
    10509.721500       0.731541
    10520.778500       0.736597
    10531.858900       0.741608
    10542.962600       0.746574
    10554.089700       0.751495
    10565.240400       0.756371
    10576.414600       0.761200
    10587.612500       0.765982
    10598.834100       0.770719
    10610.079600       0.775407
    10621.348900       0.780048
    10632.642200       0.784642
    10643.959600       0.789188
    10655.301000       0.793685
    10666.666700       0.798133
    10678.056600       0.802533
    10689.470900       0.806883
    10700.909600       0.811185
    10712.372800       0.815436
    10723.860600       0.819639
    10735.373100       0.823791
    10746.910300       0.827893
    10758.472300       0.831945
    10770.059200       0.835947
    10781.671200       0.839898
    10793.308100       0.843798
    10804.970300       0.847648
    10816.657700       0.851447
    10828.370300       0.855196
    10840.108400       0.858893
    10851.871900       0.862539
    10863.661100       0.866135
    10875.475800       0.869679
    10887.316300       0.873172
    10899.182600       0.876614
    10911.074700       0.880005
    10922.992900       0.883345
    10934.937100       0.886634
    10946.907500       0.889872
    10958.904100       0.893059
    10970.927000       0.896195
    10982.976400       0.899280
    10995.052200       0.902314
    11007.154700       0.905297
    11019.283700       0.908230
    11031.439600       0.911112
    11043.622300       0.913944
    11055.832000       0.916725
    11068.068600       0.919457
    11080.332400       0.922138
    11092.623400       0.924769
    11104.941700       0.927350
    11117.287400       0.929882
    11129.660500       0.932364
    11142.061300       0.934797
    11154.489700       0.937181
    11166.945800       0.939516
    11179.429800       0.941802
    11191.941800       0.944039
    11204.481800       0.946228
    11217.049900       0.948369
    11229.646300       0.950462
    11242.270900       0.952507
    11254.924000       0.954505
    11267.605600       0.956455
    11280.315800       0.958359
    11293.054800       0.960215
    11305.822500       0.962025
    11318.619100       0.963789
    11331.444800       0.965507
    11344.299500       0.967179
    11357.183400       0.968805
    11370.096600       0.970387
    11383.039300       0.971923
    11396.011400       0.973414
    11409.013100       0.974861
    11422.044500       0.976264
    11435.105800       0.977624
    11448.196900       0.978939
    11461.318100       0.980212
    11474.469300       0.981441
    11487.650800       0.982628
    11500.862600       0.983772
    11514.104800       0.984875
    11527.377500       0.985935
    11540.680900       0.986955
    11554.015000       0.987933
    11567.380000       0.988870
    11580.775900       0.989767
    11594.202900       0.990624
    11607.661100       0.991441
    11621.150500       0.992219
    11634.671300       0.992957
    11648.223600       0.993656
    11661.807600       0.994317
    11675.423200       0.994940
    11689.070700       0.995525
    11702.750100       0.996072
    11716.461600       0.996582
    11730.205300       0.997055
    11743.981200       0.997492
    11757.789500       0.997892
    11771.630400       0.998257
    11785.503800       0.998586
    11799.410000       0.998879
    11813.349100       0.999138
    11827.321100       0.999362
    11841.326200       0.999552
    11855.364600       0.999708
    11869.436200       0.999831
    11883.541300       0.999920
    11897.680000       0.999976
    11911.852300       1.000000
    11926.058400       0.999991
    11940.298500       0.999951
    11954.572600       0.999879
    11968.880900       0.999775
    11983.223500       0.999640
    11997.600500       0.999475
    12012.012000       0.999280
    12026.458200       0.999054
    12040.939200       0.998799
    12055.455100       0.998514
    12070.006000       0.998200
    12084.592100       0.997857
    12099.213600       0.997486
    12113.870400       0.997087
    12128.562800       0.996660
    12143.290800       0.996205
    12158.054700       0.995723
    12172.854500       0.995214
    12187.690400       0.994678
    12202.562500       0.994116
    12217.471000       0.993528
    12232.415900       0.992914
    12247.397400       0.992274
    12262.415700       0.991609
    12277.470800       0.990919
    12292.563000       0.990205
    12307.692300       0.989466
    12322.858900       0.988703
    12338.062900       0.987916
    12353.304500       0.987106
    12368.583800       0.986272
    12383.900900       0.985415
    12399.256000       0.984535
    12414.649300       0.983633
    12430.080800       0.982708
    12445.550700       0.981762
    12461.059200       0.980793
    12476.606400       0.979803
    12492.192400       0.978792
    12507.817400       0.977759
    12523.481500       0.976706
    12539.185000       0.975632
    12554.927800       0.974538
    12570.710200       0.973423
    12586.532400       0.972289
    12602.394500       0.971135
    12618.296500       0.969961
    12634.238800       0.968769
    12650.221400       0.967557
    12666.244500       0.966326
    12682.308200       0.965077
    12698.412700       0.963809
    12714.558200       0.962523
    12730.744700       0.961219
    12746.972600       0.959897
    12763.241900       0.958557
    12779.552700       0.957200
    12795.905300       0.955826
    12812.299800       0.954434
    12828.736400       0.953026
    12845.215200       0.951601
    12861.736300       0.950159
    12878.300100       0.948701
    12894.906500       0.947226
    12911.555800       0.945736
    12928.248200       0.944230
    12944.983800       0.942707
    12961.762800       0.941170
    12978.585300       0.939617
    12995.451600       0.938048
    13012.361700       0.936465
    13029.316000       0.934866
    13046.314400       0.933253
    13063.357300       0.931625
    13080.444700       0.929982
    13097.576900       0.928325
    13114.754100       0.926654
    13131.976400       0.924969
    13149.243900       0.923269
    13166.556900       0.921556
    13183.915600       0.919828
    13201.320100       0.918088
    13218.770700       0.916333
    13236.267400       0.914565
    13253.810500       0.912784
    13271.400100       0.910990
    13289.036500       0.909182
    13306.719900       0.907362
    13324.450400       0.905529
    13342.228200       0.903683
    13360.053400       0.901824
    13377.926400       0.899953
    13395.847300       0.898069
    13413.816200       0.896173
    13431.833400       0.894264
    13449.899100       0.892344
    13468.013500       0.890411
    13486.176700       0.888467
    13504.388900       0.886510
    13522.650400       0.884542
    13540.961400       0.882562
    13559.322000       0.880570
    13577.732500       0.878567
    13596.193100       0.876552
    13614.703900       0.874525
    13633.265200       0.872488
    13651.877100       0.870439
    13670.540000       0.868379
    13689.253900       0.866308
    13708.019200       0.864226
    13726.836000       0.862133
    13745.704500       0.860029
    13764.624900       0.857914
    13783.597500       0.855789
    13802.622500       0.853652
    13821.700100       0.851506
    13840.830400       0.849348
    13860.013900       0.847180
    13879.250500       0.845002
    13898.540700       0.842814
    13917.884500       0.840615
    13937.282200       0.838406
    13956.734100       0.836187
    13976.240400       0.833958
    13995.801300       0.831718
    14015.417000       0.829469
    14035.087700       0.827210
    14054.813800       0.824941
    14074.595400       0.822663
    14094.432700       0.820374
    14114.326000       0.818076
    14134.275600       0.815769
    14154.281700       0.813452
    14174.344400       0.811125
    14194.464200       0.808790
    14214.641100       0.806444
    14234.875400       0.804090
    14255.167500       0.801726
    14275.517500       0.799354
    14295.925700       0.796972
    14316.392300       0.794581
    14336.917600       0.792181
    14357.501800       0.789773
    14378.145200       0.787355
    14398.848100       0.784929
    14419.610700       0.782494
    14440.433200       0.780051
    14461.316000       0.777599
    14482.259200       0.775139
    14503.263200       0.772670
    14524.328200       0.770193
    14545.454500       0.767707
    14566.642400       0.765214
    14587.892000       0.762712
    14609.203800       0.760203
    14630.577900       0.757685
    14652.014700       0.755159
    14673.514300       0.752626
    14695.077100       0.750085
    14716.703500       0.747536
    14738.393500       0.744980
    14760.147600       0.742416
    14781.966000       0.739845
    14803.849000       0.737267
    14825.796900       0.734681
    14847.809900       0.732088
    14869.888500       0.729488
    14892.032800       0.726881
    14914.243100       0.724267
    14936.519800       0.721647
    14958.863100       0.719019
    14981.273400       0.716385
    15003.750900       0.713745
    15026.296000       0.711098
    15048.909000       0.708445
    15071.590100       0.705785
    15094.339600       0.703119
    15117.158000       0.700448
    15140.045400       0.697770
    15163.002300       0.695086
    15186.028900       0.692397
    15209.125500       0.689702
    15232.292500       0.687002
    15255.530100       0.684296
    15278.838800       0.681585
    15302.218800       0.678868
    15325.670500       0.676147
    15349.194200       0.673421
    15372.790200       0.670689
    15396.458800       0.667953
    15420.200500       0.665213
    15444.015400       0.662467
    15467.904100       0.659718
    15491.866800       0.656964
    15515.903800       0.654206
    15540.015500       0.651444
    15564.202300       0.648678
    15588.464500       0.645908
    15612.802500       0.643135
    15637.216600       0.640358
    15661.707100       0.637577
    15686.274500       0.634794
    15710.919100       0.632007
    15735.641200       0.629217
    15760.441300       0.626425
    15785.319700       0.623629
    15810.276700       0.620831
    15835.312700       0.618031
    15860.428200       0.615228
    15885.623500       0.612423
    15910.899000       0.609616
    15936.255000       0.606807
    15961.691900       0.603997
    15987.210200       0.601184
    16012.810200       0.598370
    16038.492400       0.595555
    16064.257000       0.592739
    16090.104600       0.589921
    16116.035500       0.587103
    16142.050000       0.584284
    16168.148700       0.581464
    16194.332000       0.578644
    16220.600200       0.575824
    16246.953700       0.573003
    16273.393000       0.570182
    16299.918500       0.567361
    16326.530600       0.564541
    16353.229800       0.561721
    16380.016400       0.558902
    16406.890900       0.556083
    16433.853700       0.553265
    16460.905300       0.550449
    16488.046200       0.547633
    16515.276600       0.544819
    16542.597200       0.542006
    16570.008300       0.539195
    16597.510400       0.536385
    16625.103900       0.533577
    16652.789300       0.530772
    16680.567100       0.527969
    16708.437800       0.525168
    16736.401700       0.522369
    16764.459300       0.519573
    16792.611300       0.516780
    16820.857900       0.513990
    16849.199700       0.511203
    16877.637100       0.508419
    16906.170800       0.505639
    16934.801000       0.502862
    16963.528400       0.500089
    16992.353400       0.497320
    17021.276600       0.494554
    17050.298400       0.491793
    17079.419300       0.489035
    17108.639900       0.486283
    17137.960600       0.483534
    17167.382000       0.480790
    17196.904600       0.478051
    17226.528900       0.475317
    17256.255400       0.472588
    17286.084700       0.469864
    17316.017300       0.467145
    17346.053800       0.464432
    17376.194600       0.461724
    17406.440400       0.459021
    17436.791600       0.456325
    17467.248900       0.453634
    17497.812800       0.450949
    17528.483800       0.448270
    17559.262500       0.445598
    17590.149500       0.442931
    17621.145400       0.440272
    17652.250700       0.437618
    17683.466000       0.434972
    17714.791900       0.432331
    17746.228900       0.429698
    17777.777800       0.427072
    17809.439000       0.424452
    17841.213200       0.421840
    17873.101000       0.419234
    17905.103000       0.416636
    17937.219700       0.414045
    17969.451900       0.411462
    18001.800200       0.408886
    18034.265100       0.406317
    18066.847300       0.403757
    18099.547500       0.401203
    18132.366300       0.398658
    18165.304300       0.396120
    18198.362100       0.393590
    18231.540600       0.391067
    18264.840200       0.388553
    18298.261700       0.386047
    18331.805700       0.383548
    18365.472900       0.381058
    18399.264000       0.378575
    18433.179700       0.376101
    18467.220700       0.373634
    18501.387600       0.371176
    18535.681200       0.368726
    18570.102100       0.366284
    18604.651200       0.363850
    18639.329000       0.361424
    18674.136300       0.359007
    18709.073900       0.356597
    18744.142500       0.354196
    18779.342700       0.351803
    18814.675400       0.349418
    18850.141400       0.347041
    18885.741300       0.344671
    18921.475900       0.342310
    18957.346000       0.339957
    18993.352300       0.337612
    19029.495700       0.335275
    19065.776900       0.332946
    19102.196800       0.330624
    19138.756000       0.328310
    19175.455400       0.326004
    19212.295900       0.323705
    19249.278200       0.321414
    19286.403100       0.319131
    19323.671500       0.316855
    19361.084200       0.314586
    19398.642100       0.312324
    19436.346000       0.310070
    19474.196700       0.307823
    19512.195100       0.305582
    19550.342100       0.303349
    19588.638600       0.301122
    19627.085400       0.298902
    19665.683400       0.296688
    19704.433500       0.294481
    19743.336600       0.292280
    19782.393700       0.290085
    19821.605600       0.287896
    19860.973200       0.285713
    19900.497500       0.283536
    19940.179500       0.281365
    19980.020000       0.279199
    20020.020000       0.277038
    20060.180500       0.274882
    20100.502500       0.272732
    20140.986900       0.270586
    20181.634700       0.268445
    20222.446900       0.266308
    20263.424500       0.264176
    20304.568500       0.262047
    20345.880000       0.259923
    20387.359800       0.257803
    20429.009200       0.255686
    20470.829100       0.253573
    20512.820500       0.251463
    20554.984600       0.249356
    20597.322300       0.247251
    20639.834900       0.245150
    20682.523300       0.243051
    20725.388600       0.240954
    20768.432000       0.238859
    20811.654500       0.236766
    20855.057400       0.234675
    20898.641600       0.232585
    20942.408400       0.230496
    20986.358900       0.228408
    21030.494200       0.226321
    21074.815600       0.224235
    21119.324200       0.222148
    21164.021200       0.220062
    21208.907700       0.217976
    21253.985100       0.215890
    21299.254500       0.213803
    21344.717200       0.211715
    21390.374300       0.209627
    21436.227200       0.207537
    21482.277100       0.205446
    21528.525300       0.203353
    21574.973000       0.201258
    21621.621600       0.199161
    21668.472400       0.197062
    21715.526600       0.194961
    21762.785600       0.192856
    21810.250800       0.190749
    21857.923500       0.188639
    21905.805000       0.186525
    21953.896800       0.184408
    22002.200200       0.182287
    22050.716600       0.180162
    22099.447500       0.178033
    22148.394200       0.175900
    22197.558300       0.173762
    22246.941000       0.171620
    22296.544000       0.169472
    22346.368700       0.167320
    22396.416600       0.165163
    22446.689100       0.163000
    22497.187900       0.160831
    22547.914300       0.158657
    22598.870100       0.156477
    22650.056600       0.154291
    22701.475600       0.152099
    22753.128600       0.149901
    22805.017100       0.147697
    22857.142900       0.145486
    22909.507400       0.143268
    22962.112500       0.141044
    23014.959700       0.138814
    23068.050700       0.136576
    23121.387300       0.134332
    23174.971000       0.132080
    23228.803700       0.129822
    23282.887100       0.127557
    23337.222900       0.125285
    23391.812900       0.123006
    23446.658900       0.120719
    23501.762600       0.118426
    23557.126000       0.116126
    23612.750900       0.113819
    23668.639100       0.111505
    23724.792400       0.109185
    23781.212800       0.106857
    23837.902300       0.104523
    23894.862600       0.102183
    23952.095800       0.099836
    24009.603800       0.097482
    24067.388700       0.095123
    24125.452400       0.092758
    24183.796900       0.090387
    24242.424200       0.088011
    24301.336600       0.085630
    24360.535900       0.083243
    24420.024400       0.080852
    24479.804200       0.078456
    24539.877300       0.076057
    24600.246000       0.073653
    24660.912500       0.071246
    24721.878900       0.068836
    24783.147500       0.066423
    24844.720500       0.064008
    24906.600200       0.061592
    24968.789000       0.059174
    25031.289100       0.056755
    25094.102900       0.054336
    25157.232700       0.051917
    25220.681000       0.049499
    25284.450100       0.047082
    25348.542500       0.044668
    25412.960600       0.042256
    25477.707000       0.039847
