5,   channel 5 SRF from file SRF_SSH-1_Delivery_220520/SRF_DMSP-F3_SSH_Chan05.asc received June 2022 from SPASCIA
Number of data points:
1296
Wavenumber (cm-1)   Filter response
      370.400000       0.002000
      370.500000       0.002000
      370.600000       0.002100
      370.700000       0.002100
      370.800000       0.002100
      370.900000       0.002200
      371.000000       0.002200
      371.100000       0.002200
      371.200000       0.002200
      371.300000       0.002200
      371.400000       0.002200
      371.500000       0.002200
      371.600000       0.002300
      371.700000       0.002300
      371.800000       0.002300
      371.900000       0.002400
      372.000000       0.002400
      372.100000       0.002500
      372.200000       0.002500
      372.300000       0.002500
      372.400000       0.002600
      372.500000       0.002600
      372.600000       0.002600
      372.700000       0.002700
      372.800000       0.002700
      372.900000       0.002800
      373.000000       0.002800
      373.100000       0.002800
      373.200000       0.002900
      373.300000       0.002900
      373.400000       0.003000
      373.500000       0.003000
      373.600000       0.003000
      373.700000       0.003100
      373.800000       0.003100
      373.900000       0.003200
      374.000000       0.003200
      374.100000       0.003200
      374.200000       0.003300
      374.300000       0.003300
      374.400000       0.003400
      374.500000       0.003400
      374.600000       0.003400
      374.700000       0.003500
      374.800000       0.003500
      374.900000       0.003600
      375.000000       0.003600
      375.100000       0.003600
      375.200000       0.003700
      375.300000       0.003700
      375.400000       0.003800
      375.500000       0.003800
      375.600000       0.003800
      375.700000       0.003900
      375.800000       0.003900
      375.900000       0.004000
      376.000000       0.004000
      376.100000       0.004000
      376.200000       0.004100
      376.300000       0.004100
      376.400000       0.004200
      376.500000       0.004200
      376.600000       0.004300
      376.700000       0.004400
      376.800000       0.004500
      376.900000       0.004500
      377.000000       0.004600
      377.100000       0.004600
      377.200000       0.004700
      377.300000       0.004700
      377.400000       0.004700
      377.500000       0.004800
      377.600000       0.004900
      377.700000       0.005000
      377.800000       0.005100
      377.900000       0.005100
      378.000000       0.005200
      378.100000       0.005200
      378.200000       0.005300
      378.300000       0.005300
      378.400000       0.005300
      378.500000       0.005400
      378.600000       0.005500
      378.700000       0.005600
      378.800000       0.005700
      378.900000       0.005700
      379.000000       0.005800
      379.100000       0.005900
      379.200000       0.006000
      379.300000       0.006000
      379.400000       0.006100
      379.500000       0.006200
      379.600000       0.006300
      379.700000       0.006400
      379.800000       0.006400
      379.900000       0.006500
      380.000000       0.006600
      380.100000       0.006700
      380.200000       0.006800
      380.300000       0.006800
      380.400000       0.006900
      380.500000       0.007000
      380.600000       0.007200
      380.700000       0.007300
      380.800000       0.007400
      380.900000       0.007500
      381.000000       0.007600
      381.100000       0.007700
      381.200000       0.007900
      381.300000       0.008000
      381.400000       0.008100
      381.500000       0.008200
      381.600000       0.008300
      381.700000       0.008500
      381.800000       0.008600
      381.900000       0.008700
      382.000000       0.008800
      382.100000       0.008900
      382.200000       0.009100
      382.300000       0.009200
      382.400000       0.009300
      382.500000       0.009400
      382.600000       0.009600
      382.700000       0.009800
      382.800000       0.009900
      382.900000       0.010100
      383.000000       0.010200
      383.100000       0.010400
      383.200000       0.010600
      383.300000       0.010700
      383.400000       0.010900
      383.500000       0.011000
      383.600000       0.011200
      383.700000       0.011300
      383.800000       0.011500
      383.900000       0.011700
      384.000000       0.011900
      384.100000       0.012100
      384.200000       0.012300
      384.300000       0.012500
      384.400000       0.012600
      384.500000       0.012800
      384.600000       0.013000
      384.700000       0.013200
      384.800000       0.013400
      384.900000       0.013600
      385.000000       0.013900
      385.100000       0.014100
      385.200000       0.014300
      385.300000       0.014600
      385.400000       0.014800
      385.500000       0.015000
      385.600000       0.015200
      385.700000       0.015400
      385.800000       0.015600
      385.900000       0.015800
      386.000000       0.014900
      386.100000       0.014000
      386.200000       0.013100
      386.300000       0.012200
      386.400000       0.011300
      386.500000       0.012700
      386.600000       0.014100
      386.700000       0.015500
      386.800000       0.017000
      386.900000       0.018400
      387.000000       0.018700
      387.100000       0.018900
      387.200000       0.019200
      387.300000       0.019500
      387.400000       0.019800
      387.500000       0.020200
      387.600000       0.020600
      387.700000       0.020900
      387.800000       0.021300
      387.900000       0.021700
      388.000000       0.022100
      388.100000       0.022500
      388.200000       0.022900
      388.300000       0.023300
      388.400000       0.023700
      388.500000       0.024100
      388.600000       0.024500
      388.700000       0.024900
      388.800000       0.025300
      388.900000       0.025700
      389.000000       0.026100
      389.100000       0.026500
      389.200000       0.026900
      389.300000       0.027300
      389.400000       0.027700
      389.500000       0.028100
      389.600000       0.028500
      389.700000       0.028900
      389.800000       0.029200
      389.900000       0.029600
      390.000000       0.030000
      390.100000       0.030400
      390.200000       0.030800
      390.300000       0.031200
      390.400000       0.031600
      390.500000       0.032000
      390.600000       0.032400
      390.700000       0.032800
      390.800000       0.033200
      390.900000       0.033600
      391.000000       0.034000
      391.100000       0.034400
      391.200000       0.034800
      391.300000       0.035200
      391.400000       0.035600
      391.500000       0.036400
      391.600000       0.037200
      391.700000       0.037900
      391.800000       0.038700
      391.900000       0.039500
      392.000000       0.039900
      392.100000       0.040300
      392.200000       0.040700
      392.300000       0.041100
      392.400000       0.041500
      392.500000       0.042300
      392.600000       0.043100
      392.700000       0.043900
      392.800000       0.044700
      392.900000       0.045500
      393.000000       0.046200
      393.100000       0.047000
      393.200000       0.047800
      393.300000       0.048600
      393.400000       0.049400
      393.500000       0.050200
      393.600000       0.051000
      393.700000       0.051800
      393.800000       0.052600
      393.900000       0.053400
      394.000000       0.054200
      394.100000       0.054900
      394.200000       0.055700
      394.300000       0.056500
      394.400000       0.057300
      394.500000       0.058500
      394.600000       0.059700
      394.700000       0.060900
      394.800000       0.062100
      394.900000       0.063200
      395.000000       0.064400
      395.100000       0.065600
      395.200000       0.066800
      395.300000       0.068000
      395.400000       0.069200
      395.500000       0.070000
      395.600000       0.070800
      395.700000       0.071500
      395.800000       0.072300
      395.900000       0.073100
      396.000000       0.074700
      396.100000       0.076300
      396.200000       0.077900
      396.300000       0.079400
      396.400000       0.081000
      396.500000       0.083400
      396.600000       0.085800
      396.700000       0.088100
      396.800000       0.090500
      396.900000       0.092900
      397.000000       0.095300
      397.100000       0.097600
      397.200000       0.100000
      397.300000       0.102400
      397.400000       0.104700
      397.500000       0.107500
      397.600000       0.110300
      397.700000       0.113000
      397.800000       0.115800
      397.900000       0.118600
      398.000000       0.122500
      398.100000       0.126500
      398.200000       0.130400
      398.300000       0.134400
      398.400000       0.138300
      398.500000       0.141100
      398.600000       0.143900
      398.700000       0.146600
      398.800000       0.149400
      398.900000       0.152200
      399.000000       0.156500
      399.100000       0.160900
      399.200000       0.165200
      399.300000       0.169600
      399.400000       0.173900
      399.500000       0.179400
      399.600000       0.185000
      399.700000       0.190500
      399.800000       0.196000
      399.900000       0.201600
      400.000000       0.209900
      400.100000       0.218200
      400.200000       0.226500
      400.300000       0.234800
      400.400000       0.243100
      400.500000       0.249000
      400.600000       0.254900
      400.700000       0.260900
      400.800000       0.266800
      400.900000       0.272700
      401.000000       0.281400
      401.100000       0.290100
      401.200000       0.298800
      401.300000       0.307500
      401.400000       0.316200
      401.500000       0.326100
      401.600000       0.336000
      401.700000       0.345800
      401.800000       0.355700
      401.900000       0.365600
      402.000000       0.375100
      402.100000       0.384600
      402.200000       0.394100
      402.300000       0.403600
      402.400000       0.413000
      402.500000       0.422500
      402.600000       0.432000
      402.700000       0.441500
      402.800000       0.451000
      402.900000       0.460500
      403.000000       0.473500
      403.100000       0.486600
      403.200000       0.499600
      403.300000       0.512600
      403.400000       0.525700
      403.500000       0.537200
      403.600000       0.548600
      403.700000       0.560100
      403.800000       0.571500
      403.900000       0.583000
      404.000000       0.594900
      404.100000       0.606700
      404.200000       0.618600
      404.300000       0.630400
      404.400000       0.642300
      404.500000       0.654200
      404.600000       0.666000
      404.700000       0.677900
      404.800000       0.689700
      404.900000       0.701600
      405.000000       0.712600
      405.100000       0.723700
      405.200000       0.734800
      405.300000       0.745800
      405.400000       0.756900
      405.500000       0.766800
      405.600000       0.776700
      405.700000       0.786600
      405.800000       0.796400
      405.900000       0.806300
      406.000000       0.815800
      406.100000       0.825300
      406.200000       0.834800
      406.300000       0.844300
      406.400000       0.853800
      406.500000       0.861700
      406.600000       0.869600
      406.700000       0.877500
      406.800000       0.885400
      406.900000       0.893300
      407.000000       0.900000
      407.100000       0.906700
      407.200000       0.913400
      407.300000       0.920200
      407.400000       0.926900
      407.500000       0.933600
      407.600000       0.940300
      407.700000       0.947000
      407.800000       0.953800
      407.900000       0.960500
      408.000000       0.964000
      408.100000       0.967600
      408.200000       0.971100
      408.300000       0.974700
      408.400000       0.978300
      408.500000       0.981800
      408.600000       0.985400
      408.700000       0.988900
      408.800000       0.992500
      408.900000       0.996000
      409.000000       0.996800
      409.100000       0.997600
      409.200000       0.998400
      409.300000       0.999200
      409.400000       1.000000
      409.500000       0.999200
      409.600000       0.998400
      409.700000       0.997600
      409.800000       0.996800
      409.900000       0.996000
      410.000000       0.994100
      410.100000       0.992100
      410.200000       0.990100
      410.300000       0.988100
      410.400000       0.986200
      410.500000       0.983400
      410.600000       0.980600
      410.700000       0.977900
      410.800000       0.975100
      410.900000       0.972300
      411.000000       0.968400
      411.100000       0.964400
      411.200000       0.960500
      411.300000       0.956500
      411.400000       0.952600
      411.500000       0.947000
      411.600000       0.941500
      411.700000       0.936000
      411.800000       0.930400
      411.900000       0.924900
      412.000000       0.917800
      412.100000       0.910700
      412.200000       0.903600
      412.300000       0.896400
      412.400000       0.889300
      412.500000       0.880200
      412.600000       0.871100
      412.700000       0.862100
      412.800000       0.853000
      412.900000       0.843900
      413.000000       0.836000
      413.100000       0.828100
      413.200000       0.820200
      413.300000       0.812300
      413.400000       0.804300
      413.500000       0.796800
      413.600000       0.789300
      413.700000       0.781800
      413.800000       0.774300
      413.900000       0.766800
      414.000000       0.752200
      414.100000       0.737500
      414.200000       0.722900
      414.300000       0.708300
      414.400000       0.693700
      414.500000       0.681400
      414.600000       0.669200
      414.700000       0.656900
      414.800000       0.644700
      414.900000       0.632400
      415.000000       0.622500
      415.100000       0.612600
      415.200000       0.602800
      415.300000       0.592900
      415.400000       0.583000
      415.500000       0.573100
      415.600000       0.563200
      415.700000       0.553400
      415.800000       0.543500
      415.900000       0.533600
      416.000000       0.517800
      416.100000       0.502000
      416.200000       0.486200
      416.300000       0.470400
      416.400000       0.454500
      416.500000       0.444700
      416.600000       0.434800
      416.700000       0.424900
      416.800000       0.415000
      416.900000       0.405100
      417.000000       0.393700
      417.100000       0.382200
      417.200000       0.370800
      417.300000       0.359300
      417.400000       0.347800
      417.500000       0.340300
      417.600000       0.332800
      417.700000       0.325300
      417.800000       0.317800
      417.900000       0.310300
      418.000000       0.302000
      418.100000       0.293700
      418.200000       0.285400
      418.300000       0.277100
      418.400000       0.268800
      418.500000       0.261700
      418.600000       0.254500
      418.700000       0.247400
      418.800000       0.240300
      418.900000       0.233200
      419.000000       0.228100
      419.100000       0.222900
      419.200000       0.217800
      419.300000       0.212600
      419.400000       0.207500
      419.500000       0.202800
      419.600000       0.198000
      419.700000       0.193300
      419.800000       0.188500
      419.900000       0.183800
      420.000000       0.178700
      420.100000       0.173500
      420.200000       0.168400
      420.300000       0.163200
      420.400000       0.158100
      420.500000       0.154200
      420.600000       0.150200
      420.700000       0.146200
      420.800000       0.142300
      420.900000       0.138300
      421.000000       0.134800
      421.100000       0.131200
      421.200000       0.127700
      421.300000       0.124100
      421.400000       0.120600
      421.500000       0.117000
      421.600000       0.113400
      421.700000       0.109900
      421.800000       0.106300
      421.900000       0.102800
      422.000000       0.100000
      422.100000       0.097200
      422.200000       0.094500
      422.300000       0.091700
      422.400000       0.088900
      422.500000       0.087000
      422.600000       0.085000
      422.700000       0.083000
      422.800000       0.081000
      422.900000       0.079100
      423.000000       0.077900
      423.100000       0.076700
      423.200000       0.075500
      423.300000       0.074300
      423.400000       0.073100
      423.500000       0.071900
      423.600000       0.070800
      423.700000       0.069600
      423.800000       0.068400
      423.900000       0.067200
      424.000000       0.065600
      424.100000       0.064000
      424.200000       0.062500
      424.300000       0.060900
      424.400000       0.059300
      424.500000       0.058100
      424.600000       0.056900
      424.700000       0.055700
      424.800000       0.054500
      424.900000       0.053400
      425.000000       0.052600
      425.100000       0.051800
      425.200000       0.051000
      425.300000       0.050200
      425.400000       0.049400
      425.500000       0.048200
      425.600000       0.047000
      425.700000       0.045800
      425.800000       0.044700
      425.900000       0.043500
      426.000000       0.042700
      426.100000       0.041900
      426.200000       0.041100
      426.300000       0.040300
      426.400000       0.039500
      426.500000       0.039100
      426.600000       0.038700
      426.700000       0.038300
      426.800000       0.037900
      426.900000       0.037500
      427.000000       0.037200
      427.100000       0.036800
      427.200000       0.036400
      427.300000       0.036000
      427.400000       0.035600
      427.500000       0.034800
      427.600000       0.034000
      427.700000       0.033200
      427.800000       0.032400
      427.900000       0.031600
      428.000000       0.031200
      428.100000       0.030800
      428.200000       0.030400
      428.300000       0.030000
      428.400000       0.029600
      428.500000       0.029200
      428.600000       0.028900
      428.700000       0.028500
      428.800000       0.028100
      428.900000       0.027700
      429.000000       0.027300
      429.100000       0.026900
      429.200000       0.026500
      429.300000       0.026100
      429.400000       0.025700
      429.500000       0.025700
      429.600000       0.025700
      429.700000       0.025700
      429.800000       0.025700
      429.900000       0.025700
      430.000000       0.025300
      430.100000       0.024900
      430.200000       0.024500
      430.300000       0.024100
      430.400000       0.023700
      430.500000       0.023300
      430.600000       0.022900
      430.700000       0.022500
      430.800000       0.022100
      430.900000       0.021700
      431.000000       0.021300
      431.100000       0.020900
      431.200000       0.020600
      431.300000       0.020200
      431.400000       0.019800
      431.500000       0.019600
      431.600000       0.019400
      431.700000       0.019200
      431.800000       0.019000
      431.900000       0.018800
      432.000000       0.018500
      432.100000       0.018300
      432.200000       0.018100
      432.300000       0.017800
      432.400000       0.017600
      432.500000       0.017400
      432.600000       0.017100
      432.700000       0.016900
      432.800000       0.016600
      432.900000       0.016400
      433.000000       0.016200
      433.100000       0.016000
      433.200000       0.015800
      433.300000       0.015600
      433.400000       0.015400
      433.500000       0.015200
      433.600000       0.015000
      433.700000       0.014800
      433.800000       0.014600
      433.900000       0.014400
      434.000000       0.014200
      434.100000       0.014000
      434.200000       0.013800
      434.300000       0.013600
      434.400000       0.013400
      434.500000       0.013300
      434.600000       0.013100
      434.700000       0.013000
      434.800000       0.012800
      434.900000       0.012600
      435.000000       0.012500
      435.100000       0.012300
      435.200000       0.012200
      435.300000       0.012000
      435.400000       0.011900
      435.500000       0.011700
      435.600000       0.011500
      435.700000       0.011400
      435.800000       0.011200
      435.900000       0.011100
      436.000000       0.010900
      436.100000       0.010800
      436.200000       0.010600
      436.300000       0.010400
      436.400000       0.010300
      436.500000       0.010200
      436.600000       0.010000
      436.700000       0.009900
      436.800000       0.009800
      436.900000       0.009700
      437.000000       0.009500
      437.100000       0.009400
      437.200000       0.009200
      437.300000       0.009100
      437.400000       0.008900
      437.500000       0.008800
      437.600000       0.008700
      437.700000       0.008700
      437.800000       0.008600
      437.900000       0.008500
      438.000000       0.008400
      438.100000       0.008300
      438.200000       0.008100
      438.300000       0.008000
      438.400000       0.007900
      438.500000       0.007800
      438.600000       0.007700
      438.700000       0.007700
      438.800000       0.007600
      438.900000       0.007500
      439.000000       0.007400
      439.100000       0.007400
      439.200000       0.007300
      439.300000       0.007200
      439.400000       0.007100
      439.500000       0.007000
      439.600000       0.007000
      439.700000       0.006900
      439.800000       0.006800
      439.900000       0.006700
      440.000000       0.006600
      440.100000       0.006500
      440.200000       0.006400
      440.300000       0.006200
      440.400000       0.006100
      440.500000       0.006100
      440.600000       0.006000
      440.700000       0.006000
      440.800000       0.006000
      440.900000       0.005900
      441.000000       0.005900
      441.100000       0.005800
      441.200000       0.005800
      441.300000       0.005800
      441.400000       0.005700
      441.500000       0.005700
      441.600000       0.005600
      441.700000       0.005500
      441.800000       0.005400
      441.900000       0.005300
      442.000000       0.005300
      442.100000       0.005200
      442.200000       0.005100
      442.300000       0.005000
      442.400000       0.004900
      442.500000       0.004900
      442.600000       0.004900
      442.700000       0.004800
      442.800000       0.004800
      442.900000       0.004700
      443.000000       0.004700
      443.100000       0.004700
      443.200000       0.004600
      443.300000       0.004600
      443.400000       0.004500
      443.500000       0.004500
      443.600000       0.004500
      443.700000       0.004400
      443.800000       0.004400
      443.900000       0.004300
      444.000000       0.004300
      444.100000       0.004200
      444.200000       0.004100
      444.300000       0.004000
      444.400000       0.004000
      444.500000       0.004000
      444.600000       0.004000
      444.700000       0.004000
      444.800000       0.004000
      444.900000       0.004000
      445.000000       0.003900
      445.100000       0.003900
      445.200000       0.003800
      445.300000       0.003800
      445.400000       0.003800
      445.500000       0.003800
      445.600000       0.003800
      445.700000       0.003800
      445.800000       0.003800
      445.900000       0.003800
      446.000000       0.003800
      446.100000       0.003800
      446.200000       0.003800
      446.300000       0.003800
      446.400000       0.003800
      446.500000       0.003800
      446.600000       0.003800
      446.700000       0.003800
      446.800000       0.003800
      446.900000       0.003800
      447.000000       0.003700
      447.100000       0.003700
      447.200000       0.003600
      447.300000       0.003600
      447.400000       0.003600
      447.500000       0.003600
      447.600000       0.003600
      447.700000       0.003600
      447.800000       0.003600
      447.900000       0.003600
      448.000000       0.003500
      448.100000       0.003500
      448.200000       0.003400
      448.300000       0.003400
      448.400000       0.003400
      448.500000       0.003400
      448.600000       0.003400
      448.700000       0.003400
      448.800000       0.003400
      448.900000       0.003400
      449.000000       0.003400
      449.100000       0.003400
      449.200000       0.003400
      449.300000       0.003400
      449.400000       0.003400
      449.500000       0.003300
      449.600000       0.003300
      449.700000       0.003200
      449.800000       0.003200
      449.900000       0.003200
      450.000000       0.003200
      450.100000       0.003200
      450.200000       0.003200
      450.300000       0.003200
      450.400000       0.003200
      450.500000       0.003200
      450.600000       0.003200
      450.700000       0.003200
      450.800000       0.003200
      450.900000       0.003200
      451.000000       0.003100
      451.100000       0.003100
      451.200000       0.003000
      451.300000       0.003000
      451.400000       0.003000
      451.500000       0.002900
      451.600000       0.002900
      451.700000       0.002800
      451.800000       0.002800
      451.900000       0.002800
      452.000000       0.002800
      452.100000       0.002800
      452.200000       0.002800
      452.300000       0.002800
      452.400000       0.002800
      452.500000       0.002700
      452.600000       0.002700
      452.700000       0.002600
      452.800000       0.002600
      452.900000       0.002600
      453.000000       0.002500
      453.100000       0.002500
      453.200000       0.002500
      453.300000       0.002400
      453.400000       0.002400
      453.500000       0.002400
      453.600000       0.002400
      453.700000       0.002400
      453.800000       0.002400
      453.900000       0.002400
      454.000000       0.002300
      454.100000       0.002300
      454.200000       0.002300
      454.300000       0.002200
      454.400000       0.002200
      454.500000       0.002200
      454.600000       0.002200
      454.700000       0.002200
      454.800000       0.002200
      454.900000       0.002200
      455.000000       0.002100
      455.100000       0.002100
      455.200000       0.002100
      455.300000       0.002000
      455.400000       0.002000
      455.500000       0.002000
      455.600000       0.002000
      455.700000       0.002000
      455.800000       0.002000
      455.900000       0.002000
      456.000000       0.002000
      456.100000       0.002000
      456.200000       0.002000
      456.300000       0.002000
      456.400000       0.002000
      456.500000       0.002000
      456.600000       0.002000
      456.700000       0.002000
      456.800000       0.002000
      456.900000       0.002000
      457.000000       0.002000
      457.100000       0.002100
      457.200000       0.002100
      457.300000       0.002100
      457.400000       0.002200
      457.500000       0.002200
      457.600000       0.002200
      457.700000       0.002200
      457.800000       0.002200
      457.900000       0.002200
      458.000000       0.002200
      458.100000       0.002200
      458.200000       0.002200
      458.300000       0.002200
      458.400000       0.002200
      458.500000       0.002200
      458.600000       0.002200
      458.700000       0.002200
      458.800000       0.002200
      458.900000       0.002200
      459.000000       0.002200
      459.100000       0.002200
      459.200000       0.002200
      459.300000       0.002200
      459.400000       0.002200
      459.500000       0.002200
      459.600000       0.002200
      459.700000       0.002200
      459.800000       0.002200
      459.900000       0.002200
      460.000000       0.002200
      460.100000       0.002200
      460.200000       0.002200
      460.300000       0.002200
      460.400000       0.002200
      460.500000       0.002200
      460.600000       0.002200
      460.700000       0.002200
      460.800000       0.002200
      460.900000       0.002200
      461.000000       0.002200
      461.100000       0.002200
      461.200000       0.002200
      461.300000       0.002200
      461.400000       0.002200
      461.500000       0.002200
      461.600000       0.002200
      461.700000       0.002200
      461.800000       0.002200
      461.900000       0.002200
      462.000000       0.002200
      462.100000       0.002200
      462.200000       0.002200
      462.300000       0.002200
      462.400000       0.002200
      462.500000       0.002200
      462.600000       0.002200
      462.700000       0.002200
      462.800000       0.002200
      462.900000       0.002200
      463.000000       0.002200
      463.100000       0.002300
      463.200000       0.002300
      463.300000       0.002300
      463.400000       0.002400
      463.500000       0.002400
      463.600000       0.002400
      463.700000       0.002400
      463.800000       0.002400
      463.900000       0.002400
      464.000000       0.002400
      464.100000       0.002400
      464.200000       0.002400
      464.300000       0.002400
      464.400000       0.002400
      464.500000       0.002400
      464.600000       0.002400
      464.700000       0.002400
      464.800000       0.002400
      464.900000       0.002400
      465.000000       0.002400
      465.100000       0.002400
      465.200000       0.002400
      465.300000       0.002400
      465.400000       0.002400
      465.500000       0.002400
      465.600000       0.002400
      465.700000       0.002400
      465.800000       0.002400
      465.900000       0.002400
      466.000000       0.002400
      466.100000       0.002400
      466.200000       0.002400
      466.300000       0.002400
      466.400000       0.002400
      466.500000       0.002400
      466.600000       0.002400
      466.700000       0.002400
      466.800000       0.002400
      466.900000       0.002400
      467.000000       0.002400
      467.100000       0.002400
      467.200000       0.002400
      467.300000       0.002400
      467.400000       0.002400
      467.500000       0.002400
      467.600000       0.002400
      467.700000       0.002400
      467.800000       0.002400
      467.900000       0.002400
      468.000000       0.002400
      468.100000       0.002400
      468.200000       0.002400
      468.300000       0.002400
      468.400000       0.002400
      468.500000       0.002400
      468.600000       0.002400
      468.700000       0.002400
      468.800000       0.002400
      468.900000       0.002400
      469.000000       0.002400
      469.100000       0.002500
      469.200000       0.002500
      469.300000       0.002500
      469.400000       0.002600
      469.500000       0.002600
      469.600000       0.002600
      469.700000       0.002600
      469.800000       0.002600
      469.900000       0.002600
      470.000000       0.002600
      470.100000       0.002600
      470.200000       0.002600
      470.300000       0.002600
      470.400000       0.002600
      470.500000       0.002600
      470.600000       0.002600
      470.700000       0.002600
      470.800000       0.002600
      470.900000       0.002600
      471.000000       0.002600
      471.100000       0.002600
      471.200000       0.002600
      471.300000       0.002600
      471.400000       0.002600
      471.500000       0.002600
      471.600000       0.002600
      471.700000       0.002600
      471.800000       0.002600
      471.900000       0.002600
      472.000000       0.002600
      472.100000       0.002600
      472.200000       0.002600
      472.300000       0.002600
      472.400000       0.002600
      472.500000       0.002600
      472.600000       0.002600
      472.700000       0.002600
      472.800000       0.002600
      472.900000       0.002600
      473.000000       0.002600
      473.100000       0.002600
      473.200000       0.002600
      473.300000       0.002600
      473.400000       0.002600
      473.500000       0.002600
      473.600000       0.002600
      473.700000       0.002600
      473.800000       0.002600
      473.900000       0.002600
      474.000000       0.002600
      474.100000       0.002600
      474.200000       0.002600
      474.300000       0.002600
      474.400000       0.002600
      474.500000       0.002600
      474.600000       0.002600
      474.700000       0.002700
      474.800000       0.002700
      474.900000       0.002800
      475.000000       0.002800
      475.100000       0.002800
      475.200000       0.002800
      475.300000       0.002800
      475.400000       0.002800
      475.500000       0.002800
      475.600000       0.002800
      475.700000       0.002900
      475.800000       0.002900
      475.900000       0.003000
      476.000000       0.003000
      476.100000       0.003000
      476.200000       0.003000
      476.300000       0.003000
      476.400000       0.003000
      476.500000       0.003000
      476.600000       0.003000
      476.700000       0.003100
      476.800000       0.003100
      476.900000       0.003200
      477.000000       0.003200
      477.100000       0.003200
      477.200000       0.003200
      477.300000       0.003200
      477.400000       0.003200
      477.500000       0.003200
      477.600000       0.003200
      477.700000       0.003300
      477.800000       0.003300
      477.900000       0.003400
      478.000000       0.003400
      478.100000       0.003400
      478.200000       0.003400
      478.300000       0.003400
      478.400000       0.003400
      478.500000       0.003400
      478.600000       0.003400
      478.700000       0.003400
      478.800000       0.003400
      478.900000       0.003400
      479.000000       0.003400
      479.100000       0.003400
      479.200000       0.003500
      479.300000       0.003500
      479.400000       0.003600
      479.500000       0.003600
      479.600000       0.003600
      479.700000       0.003600
      479.800000       0.003600
      479.900000       0.003600
      480.000000       0.003600
      480.100000       0.003600
      480.200000       0.003600
      480.300000       0.003600
      480.400000       0.003600
      480.500000       0.003600
      480.600000       0.003600
      480.700000       0.003600
      480.800000       0.003600
      480.900000       0.003600
      481.000000       0.003600
      481.100000       0.003600
      481.200000       0.003700
      481.300000       0.003700
      481.400000       0.003800
      481.500000       0.003800
      481.600000       0.003800
      481.700000       0.003800
      481.800000       0.003800
      481.900000       0.003800
      482.000000       0.003800
      482.100000       0.003800
      482.200000       0.003800
      482.300000       0.003800
      482.400000       0.003800
      482.500000       0.003800
      482.600000       0.003800
      482.700000       0.003900
      482.800000       0.003900
      482.900000       0.004000
      483.000000       0.004000
      483.100000       0.004000
      483.200000       0.004100
      483.300000       0.004100
      483.400000       0.004200
      483.500000       0.004200
      483.600000       0.004200
      483.700000       0.004300
      483.800000       0.004300
      483.900000       0.004300
      484.000000       0.004400
      484.100000       0.004400
      484.200000       0.004500
      484.300000       0.004500
      484.400000       0.004500
      484.500000       0.004600
      484.600000       0.004700
      484.700000       0.004800
      484.800000       0.004900
      484.900000       0.004900
      485.000000       0.005000
      485.100000       0.005000
      485.200000       0.005100
      485.300000       0.005100
      485.400000       0.005100
      485.500000       0.005200
      485.600000       0.005300
      485.700000       0.005400
      485.800000       0.005500
      485.900000       0.005500
      486.000000       0.005600
      486.100000       0.005600
      486.200000       0.005700
      486.300000       0.005700
      486.400000       0.005700
      486.500000       0.005800
      486.600000       0.005800
      486.700000       0.005800
      486.800000       0.005900
      486.900000       0.005900
      487.000000       0.006000
      487.100000       0.006000
      487.200000       0.006000
      487.300000       0.006100
      487.400000       0.006100
      487.500000       0.006200
      487.600000       0.006200
      487.700000       0.006200
      487.800000       0.006300
      487.900000       0.006300
      488.000000       0.006300
      488.100000       0.006300
      488.200000       0.006300
      488.300000       0.006300
      488.400000       0.006300
      488.500000       0.006400
      488.600000       0.006400
      488.700000       0.006400
      488.800000       0.006500
      488.900000       0.006500
      489.000000       0.006600
      489.100000       0.006700
      489.200000       0.006800
      489.300000       0.006800
      489.400000       0.006900
      489.500000       0.007000
      489.600000       0.007000
      489.700000       0.007000
      489.800000       0.007100
      489.900000       0.007100
      490.000000       0.007200
      490.100000       0.007200
      490.200000       0.007200
      490.300000       0.007300
      490.400000       0.007300
      490.500000       0.007400
      490.600000       0.007400
      490.700000       0.007400
      490.800000       0.007500
      490.900000       0.007500
      491.000000       0.007500
      491.100000       0.007600
      491.200000       0.007600
      491.300000       0.007700
      491.400000       0.007700
      491.500000       0.007700
      491.600000       0.007800
      491.700000       0.007800
      491.800000       0.007900
      491.900000       0.007900
      492.000000       0.007900
      492.100000       0.008000
      492.200000       0.008000
      492.300000       0.008100
      492.400000       0.008100
      492.500000       0.008200
      492.600000       0.008300
      492.700000       0.008300
      492.800000       0.008400
      492.900000       0.008500
      493.000000       0.008600
      493.100000       0.008700
      493.200000       0.008900
      493.300000       0.009000
      493.400000       0.009100
      493.500000       0.009200
      493.600000       0.009200
      493.700000       0.009300
      493.800000       0.009400
      493.900000       0.009500
      494.000000       0.009600
      494.100000       0.009600
      494.200000       0.009700
      494.300000       0.009800
      494.400000       0.009900
      494.500000       0.010000
      494.600000       0.010100
      494.700000       0.010200
      494.800000       0.010400
      494.900000       0.010500
      495.000000       0.010600
      495.100000       0.010600
      495.200000       0.010700
      495.300000       0.010800
      495.400000       0.010900
      495.500000       0.011000
      495.600000       0.011100
      495.700000       0.011200
      495.800000       0.011300
      495.900000       0.011500
      496.000000       0.011500
      496.100000       0.011600
      496.200000       0.011700
      496.300000       0.011800
      496.400000       0.011900
      496.500000       0.011900
      496.600000       0.012000
      496.700000       0.012100
      496.800000       0.012200
      496.900000       0.012300
      497.000000       0.012300
      497.100000       0.012300
      497.200000       0.012400
      497.300000       0.012400
      497.400000       0.012500
      497.500000       0.012500
      497.600000       0.012600
      497.700000       0.012700
      497.800000       0.012800
      497.900000       0.012800
      498.000000       0.012900
      498.100000       0.012900
      498.200000       0.013000
      498.300000       0.013000
      498.400000       0.013000
      498.500000       0.013100
      498.600000       0.013200
      498.700000       0.013300
      498.800000       0.013400
      498.900000       0.013400
      499.000000       0.013600
      499.100000       0.013700
      499.200000       0.013800
      499.300000       0.013900
      499.400000       0.014000
      499.500000       0.014100
      499.600000       0.014200
      499.700000       0.014300
      499.800000       0.014300
      499.900000       0.014400
