64,   64, MVIRI VIS channel from srf_MET2_1990033_1990034_1801-Release_S10EL_10.dat
Number of data points:
730
Wavenumber (cm-1)   Filter response
     8916.629500       0.000000
     8924.587200       0.000000
     8932.559200       0.000002
     8940.545400       0.000012
     8948.545900       0.000033
     8956.560700       0.000070
     8964.589900       0.000128
     8972.633500       0.000210
     8980.691500       0.000322
     8988.764000       0.000466
     8996.851100       0.000647
     9004.952700       0.000868
     9013.068900       0.001132
     9021.199800       0.001443
     9029.345400       0.001803
     9037.505600       0.002217
     9045.680700       0.002685
     9053.870500       0.003212
     9062.075200       0.003799
     9070.294800       0.004449
     9078.529300       0.005164
     9086.778700       0.005947
     9095.043200       0.006799
     9103.322700       0.007722
     9111.617300       0.008718
     9119.927000       0.009788
     9128.251900       0.010935
     9136.592100       0.012159
     9144.947400       0.013462
     9153.318100       0.014846
     9161.704100       0.016310
     9170.105500       0.017857
     9178.522300       0.019486
     9186.954500       0.021200
     9195.402300       0.022998
     9203.865600       0.024881
     9212.344500       0.026850
     9220.839100       0.028906
     9229.349300       0.031048
     9237.875300       0.033278
     9246.417000       0.035594
     9254.974500       0.037998
     9263.547900       0.040489
     9272.137200       0.043068
     9280.742500       0.045734
     9289.363700       0.048488
     9298.000900       0.051328
     9306.654300       0.054256
     9315.323700       0.057270
     9324.009300       0.060371
     9332.711200       0.063557
     9341.429200       0.066828
     9350.163600       0.070185
     9358.914400       0.073625
     9367.681500       0.077149
     9376.465100       0.080757
     9385.265100       0.084446
     9394.081700       0.088217
     9402.914900       0.092068
     9411.764700       0.095999
     9420.631200       0.100009
     9429.514400       0.104097
     9438.414300       0.108263
     9447.331100       0.112504
     9456.264800       0.116820
     9465.215300       0.121211
     9474.182900       0.125674
     9483.167400       0.130209
     9492.169000       0.134815
     9501.187600       0.139490
     9510.223500       0.144234
     9519.276500       0.149045
     9528.346800       0.153922
     9537.434400       0.158863
     9546.539400       0.163868
     9555.661700       0.168935
     9564.801500       0.174062
     9573.958800       0.179249
     9583.133700       0.184494
     9592.326100       0.189796
     9601.536200       0.195153
     9610.764100       0.200564
     9620.009600       0.206028
     9629.273000       0.211543
     9638.554200       0.217108
     9647.853400       0.222721
     9657.170400       0.228381
     9666.505600       0.234087
     9675.858700       0.239838
     9685.230000       0.245630
     9694.619500       0.251464
     9704.027200       0.257337
     9713.453100       0.263249
     9722.897400       0.269198
     9732.360100       0.275182
     9741.841200       0.281201
     9751.340800       0.287251
     9760.859000       0.293333
     9770.395700       0.299445
     9779.951100       0.305584
     9789.525200       0.311751
     9799.118100       0.317943
     9808.729800       0.324159
     9818.360300       0.330397
     9828.009800       0.336656
     9837.678300       0.342935
     9847.365800       0.349233
     9857.072400       0.355546
     9866.798200       0.361876
     9876.543200       0.368219
     9886.307500       0.374575
     9896.091000       0.380943
     9905.894000       0.387320
     9915.716400       0.393706
     9925.558300       0.400099
     9935.419800       0.406499
     9945.300800       0.412903
     9955.201600       0.419309
     9965.122100       0.425719
     9975.062300       0.432128
     9985.022500       0.438538
     9995.002500       0.444946
    10005.002500       0.451351
    10015.022500       0.457751
    10025.062700       0.464146
    10035.122900       0.470534
    10045.203400       0.476915
    10055.304200       0.483287
    10065.425300       0.489648
    10075.566800       0.495998
    10085.728700       0.502335
    10095.911200       0.508660
    10106.114200       0.514969
    10116.337900       0.521262
    10126.582300       0.527539
    10136.847400       0.533798
    10147.133400       0.540039
    10157.440300       0.546259
    10167.768200       0.552458
    10178.117000       0.558635
    10188.487000       0.564790
    10198.878100       0.570921
    10209.290500       0.577027
    10219.724100       0.583107
    10230.179000       0.589161
    10240.655400       0.595187
    10251.153300       0.601185
    10261.672700       0.607154
    10272.213700       0.613093
    10282.776300       0.619000
    10293.360800       0.624877
    10303.967000       0.630721
    10314.595200       0.636531
    10325.245200       0.642308
    10335.917300       0.648050
    10346.611500       0.653756
    10357.327800       0.659427
    10368.066400       0.665060
    10378.827200       0.670656
    10389.610400       0.676215
    10400.416000       0.681734
    10411.244100       0.687214
    10422.094800       0.692654
    10432.968200       0.698053
    10443.864200       0.703412
    10454.783100       0.708728
    10465.724800       0.714003
    10476.689400       0.719234
    10487.677000       0.724423
    10498.687700       0.729568
    10509.721500       0.734668
    10520.778500       0.739724
    10531.858900       0.744735
    10542.962600       0.749700
    10554.089700       0.754619
    10565.240400       0.759492
    10576.414600       0.764319
    10587.612500       0.769098
    10598.834100       0.773830
    10610.079600       0.778514
    10621.348900       0.783150
    10632.642200       0.787738
    10643.959600       0.792277
    10655.301000       0.796767
    10666.666700       0.801208
    10678.056600       0.805600
    10689.470900       0.809942
    10700.909600       0.814234
    10712.372800       0.818476
    10723.860600       0.822668
    10735.373100       0.826809
    10746.910300       0.830900
    10758.472300       0.834939
    10770.059200       0.838928
    10781.671200       0.842866
    10793.308100       0.846753
    10804.970300       0.850589
    10816.657700       0.854373
    10828.370300       0.858106
    10840.108400       0.861787
    10851.871900       0.865416
    10863.661100       0.868995
    10875.475800       0.872521
    10887.316300       0.875996
    10899.182600       0.879420
    10911.074700       0.882791
    10922.992900       0.886111
    10934.937100       0.889380
    10946.907500       0.892597
    10958.904100       0.895762
    10970.927000       0.898876
    10982.976400       0.901938
    10995.052200       0.904950
    11007.154700       0.907909
    11019.283700       0.910818
    11031.439600       0.913676
    11043.622300       0.916483
    11055.832000       0.919239
    11068.068600       0.921944
    11080.332400       0.924598
    11092.623400       0.927202
    11104.941700       0.929756
    11117.287400       0.932260
    11129.660500       0.934714
    11142.061300       0.937118
    11154.489700       0.939472
    11166.945800       0.941777
    11179.429800       0.944033
    11191.941800       0.946240
    11204.481800       0.948397
    11217.049900       0.950506
    11229.646300       0.952567
    11242.270900       0.954580
    11254.924000       0.956545
    11267.605600       0.958462
    11280.315800       0.960331
    11293.054800       0.962153
    11305.822500       0.963929
    11318.619100       0.965657
    11331.444800       0.967340
    11344.299500       0.968976
    11357.183400       0.970566
    11370.096600       0.972110
    11383.039300       0.973609
    11396.011400       0.975063
    11409.013100       0.976472
    11422.044500       0.977837
    11435.105800       0.979158
    11448.196900       0.980434
    11461.318100       0.981667
    11474.469300       0.982857
    11487.650800       0.984003
    11500.862600       0.985107
    11514.104800       0.986169
    11527.377500       0.987188
    11540.680900       0.988166
    11554.015000       0.989102
    11567.380000       0.989998
    11580.775900       0.990852
    11594.202900       0.991666
    11607.661100       0.992440
    11621.150500       0.993174
    11634.671300       0.993868
    11648.223600       0.994523
    11661.807600       0.995140
    11675.423200       0.995718
    11689.070700       0.996258
    11702.750100       0.996759
    11716.461600       0.997224
    11730.205300       0.997651
    11743.981200       0.998041
    11757.789500       0.998395
    11771.630400       0.998713
    11785.503800       0.998995
    11799.410000       0.999241
    11813.349100       0.999453
    11827.321100       0.999629
    11841.326200       0.999771
    11855.364600       0.999879
    11869.436200       0.999952
    11883.541300       0.999993
    11897.680000       1.000000
    11911.852300       0.999974
    11926.058400       0.999916
    11940.298500       0.999826
    11954.572600       0.999704
    11968.880900       0.999550
    11983.223500       0.999365
    11997.600500       0.999149
    12012.012000       0.998903
    12026.458200       0.998626
    12040.939200       0.998319
    12055.455100       0.997983
    12070.006000       0.997617
    12084.592100       0.997223
    12099.213600       0.996800
    12113.870400       0.996348
    12128.562800       0.995869
    12143.290800       0.995361
    12158.054700       0.994826
    12172.854500       0.994264
    12187.690400       0.993675
    12202.562500       0.993060
    12217.471000       0.992418
    12232.415900       0.991751
    12247.397400       0.991057
    12262.415700       0.990339
    12277.470800       0.989595
    12292.563000       0.988826
    12307.692300       0.988033
    12322.858900       0.987215
    12338.062900       0.986374
    12353.304500       0.985508
    12368.583800       0.984620
    12383.900900       0.983708
    12399.256000       0.982773
    12414.649300       0.981815
    12430.080800       0.980835
    12445.550700       0.979833
    12461.059200       0.978809
    12476.606400       0.977763
    12492.192400       0.976696
    12507.817400       0.975608
    12523.481500       0.974498
    12539.185000       0.973368
    12554.927800       0.972218
    12570.710200       0.971047
    12586.532400       0.969856
    12602.394500       0.968645
    12618.296500       0.967415
    12634.238800       0.966166
    12650.221400       0.964897
    12666.244500       0.963609
    12682.308200       0.962303
    12698.412700       0.960978
    12714.558200       0.959635
    12730.744700       0.958274
    12746.972600       0.956894
    12763.241900       0.955498
    12779.552700       0.954083
    12795.905300       0.952651
    12812.299800       0.951202
    12828.736400       0.949736
    12845.215200       0.948254
    12861.736300       0.946754
    12878.300100       0.945239
    12894.906500       0.943706
    12911.555800       0.942158
    12928.248200       0.940594
    12944.983800       0.939014
    12961.762800       0.937419
    12978.585300       0.935808
    12995.451600       0.934182
    13012.361700       0.932540
    13029.316000       0.930884
    13046.314400       0.929212
    13063.357300       0.927526
    13080.444700       0.925826
    13097.576900       0.924111
    13114.754100       0.922381
    13131.976400       0.920638
    13149.243900       0.918880
    13166.556900       0.917109
    13183.915600       0.915324
    13201.320100       0.913525
    13218.770700       0.911713
    13236.267400       0.909887
    13253.810500       0.908048
    13271.400100       0.906195
    13289.036500       0.904330
    13306.719900       0.902452
    13324.450400       0.900561
    13342.228200       0.898657
    13360.053400       0.896740
    13377.926400       0.894811
    13395.847300       0.892870
    13413.816200       0.890916
    13431.833400       0.888950
    13449.899100       0.886971
    13468.013500       0.884981
    13486.176700       0.882979
    13504.388900       0.880965
    13522.650400       0.878939
    13540.961400       0.876902
    13559.322000       0.874853
    13577.732500       0.872792
    13596.193100       0.870720
    13614.703900       0.868637
    13633.265200       0.866542
    13651.877100       0.864437
    13670.540000       0.862320
    13689.253900       0.860192
    13708.019200       0.858053
    13726.836000       0.855903
    13745.704500       0.853743
    13764.624900       0.851572
    13783.597500       0.849390
    13802.622500       0.847198
    13821.700100       0.844995
    13840.830400       0.842781
    13860.013900       0.840558
    13879.250500       0.838324
    13898.540700       0.836080
    13917.884500       0.833825
    13937.282200       0.831561
    13956.734100       0.829286
    13976.240400       0.827002
    13995.801300       0.824708
    14015.417000       0.822404
    14035.087700       0.820090
    14054.813800       0.817766
    14074.595400       0.815433
    14094.432700       0.813091
    14114.326000       0.810739
    14134.275600       0.808377
    14154.281700       0.806006
    14174.344400       0.803626
    14194.464200       0.801237
    14214.641100       0.798838
    14234.875400       0.796431
    14255.167500       0.794014
    14275.517500       0.791589
    14295.925700       0.789154
    14316.392300       0.786711
    14336.917600       0.784259
    14357.501800       0.781799
    14378.145200       0.779329
    14398.848100       0.776852
    14419.610700       0.774365
    14440.433200       0.771871
    14461.316000       0.769368
    14482.259200       0.766857
    14503.263200       0.764337
    14524.328200       0.761810
    14545.454500       0.759275
    14566.642400       0.756731
    14587.892000       0.754180
    14609.203800       0.751621
    14630.577900       0.749054
    14652.014700       0.746480
    14673.514300       0.743898
    14695.077100       0.741308
    14716.703500       0.738712
    14738.393500       0.736107
    14760.147600       0.733496
    14781.966000       0.730878
    14803.849000       0.728252
    14825.796900       0.725619
    14847.809900       0.722980
    14869.888500       0.720334
    14892.032800       0.717681
    14914.243100       0.715021
    14936.519800       0.712355
    14958.863100       0.709683
    14981.273400       0.707004
    15003.750900       0.704319
    15026.296000       0.701628
    15048.909000       0.698931
    15071.590100       0.696228
    15094.339600       0.693519
    15117.158000       0.690804
    15140.045400       0.688084
    15163.002300       0.685358
    15186.028900       0.682627
    15209.125500       0.679890
    15232.292500       0.677148
    15255.530100       0.674402
    15278.838800       0.671650
    15302.218800       0.668893
    15325.670500       0.666132
    15349.194200       0.663366
    15372.790200       0.660595
    15396.458800       0.657820
    15420.200500       0.655041
    15444.015400       0.652258
    15467.904100       0.649470
    15491.866800       0.646679
    15515.903800       0.643884
    15540.015500       0.641085
    15564.202300       0.638283
    15588.464500       0.635477
    15612.802500       0.632668
    15637.216600       0.629856
    15661.707100       0.627041
    15686.274500       0.624223
    15710.919100       0.621402
    15735.641200       0.618579
    15760.441300       0.615753
    15785.319700       0.612924
    15810.276700       0.610094
    15835.312700       0.607261
    15860.428200       0.604427
    15885.623500       0.601591
    15910.899000       0.598753
    15936.255000       0.595913
    15961.691900       0.593073
    15987.210200       0.590231
    16012.810200       0.587388
    16038.492400       0.584544
    16064.257000       0.581699
    16090.104600       0.578853
    16116.035500       0.576007
    16142.050000       0.573161
    16168.148700       0.570315
    16194.332000       0.567468
    16220.600200       0.564622
    16246.953700       0.561775
    16273.393000       0.558930
    16299.918500       0.556084
    16326.530600       0.553240
    16353.229800       0.550396
    16380.016400       0.547553
    16406.890900       0.544712
    16433.853700       0.541871
    16460.905300       0.539032
    16488.046200       0.536195
    16515.276600       0.533359
    16542.597200       0.530526
    16570.008300       0.527694
    16597.510400       0.524865
    16625.103900       0.522038
    16652.789300       0.519213
    16680.567100       0.516391
    16708.437800       0.513572
    16736.401700       0.510756
    16764.459300       0.507942
    16792.611300       0.505132
    16820.857900       0.502326
    16849.199700       0.499523
    16877.637100       0.496723
    16906.170800       0.493928
    16934.801000       0.491136
    16963.528400       0.488348
    16992.353400       0.485565
    17021.276600       0.482786
    17050.298400       0.480011
    17079.419300       0.477241
    17108.639900       0.474476
    17137.960600       0.471716
    17167.382000       0.468961
    17196.904600       0.466210
    17226.528900       0.463466
    17256.255400       0.460726
    17286.084700       0.457992
    17316.017300       0.455264
    17346.053800       0.452542
    17376.194600       0.449825
    17406.440400       0.447115
    17436.791600       0.444411
    17467.248900       0.441713
    17497.812800       0.439021
    17528.483800       0.436336
    17559.262500       0.433657
    17590.149500       0.430985
    17621.145400       0.428320
    17652.250700       0.425662
    17683.466000       0.423011
    17714.791900       0.420366
    17746.228900       0.417729
    17777.777800       0.415100
    17809.439000       0.412477
    17841.213200       0.409862
    17873.101000       0.407255
    17905.103000       0.404655
    17937.219700       0.402063
    17969.451900       0.399479
    18001.800200       0.396902
    18034.265100       0.394334
    18066.847300       0.391773
    18099.547500       0.389220
    18132.366300       0.386676
    18165.304300       0.384139
    18198.362100       0.381611
    18231.540600       0.379091
    18264.840200       0.376579
    18298.261700       0.374075
    18331.805700       0.371580
    18365.472900       0.369093
    18399.264000       0.366615
    18433.179700       0.364145
    18467.220700       0.361683
    18501.387600       0.359230
    18535.681200       0.356786
    18570.102100       0.354350
    18604.651200       0.351922
    18639.329000       0.349503
    18674.136300       0.347093
    18709.073900       0.344691
    18744.142500       0.342297
    18779.342700       0.339912
    18814.675400       0.337536
    18850.141400       0.335168
    18885.741300       0.332808
    18921.475900       0.330457
    18957.346000       0.328114
    18993.352300       0.325779
    19029.495700       0.323453
    19065.776900       0.321135
    19102.196800       0.318825
    19138.756000       0.316523
    19175.455400       0.314229
    19212.295900       0.311944
    19249.278200       0.309666
    19286.403100       0.307396
    19323.671500       0.305134
    19361.084200       0.302880
    19398.642100       0.300633
    19436.346000       0.298394
    19474.196700       0.296163
    19512.195100       0.293938
    19550.342100       0.291722
    19588.638600       0.289512
    19627.085400       0.287309
    19665.683400       0.285114
    19704.433500       0.282925
    19743.336600       0.280743
    19782.393700       0.278567
    19821.605600       0.276398
    19860.973200       0.274236
    19900.497500       0.272079
    19940.179500       0.269929
    19980.020000       0.267785
    20020.020000       0.265647
    20060.180500       0.263514
    20100.502500       0.261387
    20140.986900       0.259265
    20181.634700       0.257148
    20222.446900       0.255036
    20263.424500       0.252930
    20304.568500       0.250828
    20345.880000       0.248730
    20387.359800       0.246637
    20429.009200       0.244548
    20470.829100       0.242464
    20512.820500       0.240383
    20554.984600       0.238306
    20597.322300       0.236232
    20639.834900       0.234161
    20682.523300       0.232094
    20725.388600       0.230030
    20768.432000       0.227968
    20811.654500       0.225909
    20855.057400       0.223853
    20898.641600       0.221798
    20942.408400       0.219746
    20986.358900       0.217695
    21030.494200       0.215646
    21074.815600       0.213598
    21119.324200       0.211551
    21164.021200       0.209506
    21208.907700       0.207461
    21253.985100       0.205416
    21299.254500       0.203373
    21344.717200       0.201329
    21390.374300       0.199285
    21436.227200       0.197241
    21482.277100       0.195196
    21528.525300       0.193151
    21574.973000       0.191105
    21621.621600       0.189058
    21668.472400       0.187010
    21715.526600       0.184960
    21762.785600       0.182909
    21810.250800       0.180856
    21857.923500       0.178801
    21905.805000       0.176743
    21953.896800       0.174684
    22002.200200       0.172622
    22050.716600       0.170557
    22099.447500       0.168489
    22148.394200       0.166418
    22197.558300       0.164344
    22246.941000       0.162266
    22296.544000       0.160185
    22346.368700       0.158101
    22396.416600       0.156012
    22446.689100       0.153920
    22497.187900       0.151823
    22547.914300       0.149722
    22598.870100       0.147617
    22650.056600       0.145507
    22701.475600       0.143393
    22753.128600       0.141274
    22805.017100       0.139150
    22857.142900       0.137021
    22909.507400       0.134888
    22962.112500       0.132749
    23014.959700       0.130605
    23068.050700       0.128456
    23121.387300       0.126302
    23174.971000       0.124143
    23228.803700       0.121978
    23282.887100       0.119809
    23337.222900       0.117633
    23391.812900       0.115453
    23446.658900       0.113267
    23501.762600       0.111077
    23557.126000       0.108881
    23612.750900       0.106679
    23668.639100       0.104473
    23724.792400       0.102262
    23781.212800       0.100046
    23837.902300       0.097825
    23894.862600       0.095600
    23952.095800       0.093370
    24009.603800       0.091135
    24067.388700       0.088897
    24125.452400       0.086654
    24183.796900       0.084408
    24242.424200       0.082158
    24301.336600       0.079905
    24360.535900       0.077648
    24420.024400       0.075389
    24479.804200       0.073127
    24539.877300       0.070863
    24600.246000       0.068598
    24660.912500       0.066330
    24721.878900       0.064061
    24783.147500       0.061792
    24844.720500       0.059522
    24906.600200       0.057252
    24968.789000       0.054982
    25031.289100       0.052714
    25094.102900       0.050447
    25157.232700       0.048181
    25220.681000       0.045919
    25284.450100       0.043659
    25348.542500       0.041403
    25412.960600       0.039151
    25477.707000       0.036904
