33,   33, MVIRI VIS channel from srf_MET2_1986078_1986079_1801-Release_S10EL_10.dat
Number of data points:
730
Wavenumber (cm-1)   Filter response
     8916.629500       0.000000
     8924.587200       0.000000
     8932.559200       0.000002
     8940.545400       0.000011
     8948.545900       0.000032
     8956.560700       0.000069
     8964.589900       0.000126
     8972.633500       0.000207
     8980.691500       0.000318
     8988.764000       0.000460
     8996.851100       0.000638
     9004.952700       0.000856
     9013.068900       0.001117
     9021.199800       0.001423
     9029.345400       0.001779
     9037.505600       0.002187
     9045.680700       0.002649
     9053.870500       0.003168
     9062.075200       0.003748
     9070.294800       0.004389
     9078.529300       0.005095
     9086.778700       0.005867
     9095.043200       0.006708
     9103.322700       0.007619
     9111.617300       0.008602
     9119.927000       0.009659
     9128.251900       0.010791
     9136.592100       0.011999
     9144.947400       0.013286
     9153.318100       0.014651
     9161.704100       0.016097
     9170.105500       0.017623
     9178.522300       0.019232
     9186.954500       0.020924
     9195.402300       0.022700
     9203.865600       0.024559
     9212.344500       0.026504
     9220.839100       0.028534
     9229.349300       0.030649
     9237.875300       0.032850
     9246.417000       0.035138
     9254.974500       0.037512
     9263.547900       0.039973
     9272.137200       0.042520
     9280.742500       0.045154
     9289.363700       0.047874
     9298.000900       0.050680
     9306.654300       0.053572
     9315.323700       0.056550
     9324.009300       0.059613
     9332.711200       0.062761
     9341.429200       0.065994
     9350.163600       0.069310
     9358.914400       0.072710
     9367.681500       0.076193
     9376.465100       0.079758
     9385.265100       0.083404
     9394.081700       0.087131
     9402.914900       0.090937
     9411.764700       0.094823
     9420.631200       0.098788
     9429.514400       0.102829
     9438.414300       0.106947
     9447.331100       0.111140
     9456.264800       0.115408
     9465.215300       0.119749
     9474.182900       0.124162
     9483.167400       0.128647
     9492.169000       0.133202
     9501.187600       0.137826
     9510.223500       0.142518
     9519.276500       0.147276
     9528.346800       0.152100
     9537.434400       0.156988
     9546.539400       0.161939
     9555.661700       0.166952
     9564.801500       0.172024
     9573.958800       0.177157
     9583.133700       0.182347
     9592.326100       0.187593
     9601.536200       0.192895
     9610.764100       0.198250
     9620.009600       0.203658
     9629.273000       0.209117
     9638.554200       0.214626
     9647.853400       0.220183
     9657.170400       0.225786
     9666.505600       0.231435
     9675.858700       0.237129
     9685.230000       0.242864
     9694.619500       0.248642
     9704.027200       0.254458
     9713.453100       0.260313
     9722.897400       0.266206
     9732.360100       0.272133
     9741.841200       0.278095
     9751.340800       0.284089
     9760.859000       0.290115
     9770.395700       0.296171
     9779.951100       0.302255
     9789.525200       0.308366
     9799.118100       0.314503
     9808.729800       0.320663
     9818.360300       0.326847
     9828.009800       0.333051
     9837.678300       0.339276
     9847.365800       0.345519
     9857.072400       0.351780
     9866.798200       0.358056
     9876.543200       0.364347
     9886.307500       0.370651
     9896.091000       0.376967
     9905.894000       0.383292
     9915.716400       0.389628
     9925.558300       0.395970
     9935.419800       0.402320
     9945.300800       0.408675
     9955.201600       0.415033
     9965.122100       0.421394
     9975.062300       0.427757
     9985.022500       0.434119
     9995.002500       0.440481
    10005.002500       0.446840
    10015.022500       0.453196
    10025.062700       0.459546
    10035.122900       0.465891
    10045.203400       0.472228
    10055.304200       0.478558
    10065.425300       0.484878
    10075.566800       0.491187
    10085.728700       0.497485
    10095.911200       0.503770
    10106.114200       0.510041
    10116.337900       0.516297
    10126.582300       0.522537
    10136.847400       0.528760
    10147.133400       0.534966
    10157.440300       0.541152
    10167.768200       0.547318
    10178.117000       0.553463
    10188.487000       0.559586
    10198.878100       0.565686
    10209.290500       0.571762
    10219.724100       0.577814
    10230.179000       0.583839
    10240.655400       0.589839
    10251.153300       0.595811
    10261.672700       0.601755
    10272.213700       0.607669
    10282.776300       0.613554
    10293.360800       0.619408
    10303.967000       0.625231
    10314.595200       0.631021
    10325.245200       0.636778
    10335.917300       0.642503
    10346.611500       0.648192
    10357.327800       0.653846
    10368.066400       0.659464
    10378.827200       0.665046
    10389.610400       0.670592
    10400.416000       0.676099
    10411.244100       0.681568
    10422.094800       0.686998
    10432.968200       0.692388
    10443.864200       0.697739
    10454.783100       0.703048
    10465.724800       0.708317
    10476.689400       0.713544
    10487.677000       0.718729
    10498.687700       0.723871
    10509.721500       0.728970
    10520.778500       0.734025
    10531.858900       0.739036
    10542.962600       0.744004
    10554.089700       0.748925
    10565.240400       0.753802
    10576.414600       0.758633
    10587.612500       0.763418
    10598.834100       0.768157
    10610.079600       0.772850
    10621.348900       0.777495
    10632.642200       0.782092
    10643.959600       0.786643
    10655.301000       0.791145
    10666.666700       0.795600
    10678.056600       0.800005
    10689.470900       0.804363
    10700.909600       0.808671
    10712.372800       0.812931
    10723.860600       0.817141
    10735.373100       0.821302
    10746.910300       0.825413
    10758.472300       0.829475
    10770.059200       0.833486
    10781.671200       0.837448
    10793.308100       0.841359
    10804.970300       0.845221
    10816.657700       0.849032
    10828.370300       0.852792
    10840.108400       0.856502
    10851.871900       0.860162
    10863.661100       0.863771
    10875.475800       0.867329
    10887.316300       0.870837
    10899.182600       0.874294
    10911.074700       0.877701
    10922.992900       0.881056
    10934.937100       0.884361
    10946.907500       0.887616
    10958.904100       0.890820
    10970.927000       0.893973
    10982.976400       0.897076
    10995.052200       0.900129
    11007.154700       0.903131
    11019.283700       0.906083
    11031.439600       0.908985
    11043.622300       0.911837
    11055.832000       0.914639
    11068.068600       0.917391
    11080.332400       0.920094
    11092.623400       0.922747
    11104.941700       0.925350
    11117.287400       0.927904
    11129.660500       0.930409
    11142.061300       0.932866
    11154.489700       0.935273
    11166.945800       0.937632
    11179.429800       0.939942
    11191.941800       0.942205
    11204.481800       0.944419
    11217.049900       0.946585
    11229.646300       0.948704
    11242.270900       0.950775
    11254.924000       0.952800
    11267.605600       0.954777
    11280.315800       0.956708
    11293.054800       0.958592
    11305.822500       0.960430
    11318.619100       0.962223
    11331.444800       0.963969
    11344.299500       0.965670
    11357.183400       0.967326
    11370.096600       0.968937
    11383.039300       0.970503
    11396.011400       0.972025
    11409.013100       0.973502
    11422.044500       0.974936
    11435.105800       0.976327
    11448.196900       0.977674
    11461.318100       0.978978
    11474.469300       0.980240
    11487.650800       0.981459
    11500.862600       0.982637
    11514.104800       0.983772
    11527.377500       0.984866
    11540.680900       0.985919
    11554.015000       0.986931
    11567.380000       0.987903
    11580.775900       0.988834
    11594.202900       0.989726
    11607.661100       0.990578
    11621.150500       0.991391
    11634.671300       0.992165
    11648.223600       0.992900
    11661.807600       0.993597
    11675.423200       0.994256
    11689.070700       0.994877
    11702.750100       0.995461
    11716.461600       0.996008
    11730.205300       0.996519
    11743.981200       0.996993
    11757.789500       0.997431
    11771.630400       0.997834
    11785.503800       0.998201
    11799.410000       0.998533
    11813.349100       0.998830
    11827.321100       0.999093
    11841.326200       0.999322
    11855.364600       0.999518
    11869.436200       0.999680
    11883.541300       0.999808
    11897.680000       0.999905
    11911.852300       0.999968
    11926.058400       1.000000
    11940.298500       1.000000
    11954.572600       0.999968
    11968.880900       0.999906
    11983.223500       0.999812
    11997.600500       0.999688
    12012.012000       0.999534
    12026.458200       0.999350
    12040.939200       0.999136
    12055.455100       0.998893
    12070.006000       0.998621
    12084.592100       0.998321
    12099.213600       0.997992
    12113.870400       0.997635
    12128.562800       0.997251
    12143.290800       0.996839
    12158.054700       0.996400
    12172.854500       0.995934
    12187.690400       0.995442
    12202.562500       0.994923
    12217.471000       0.994378
    12232.415900       0.993808
    12247.397400       0.993212
    12262.415700       0.992591
    12277.470800       0.991946
    12292.563000       0.991275
    12307.692300       0.990581
    12322.858900       0.989862
    12338.062900       0.989120
    12353.304500       0.988354
    12368.583800       0.987565
    12383.900900       0.986753
    12399.256000       0.985918
    12414.649300       0.985061
    12430.080800       0.984182
    12445.550700       0.983281
    12461.059200       0.982358
    12476.606400       0.981413
    12492.192400       0.980447
    12507.817400       0.979461
    12523.481500       0.978453
    12539.185000       0.977425
    12554.927800       0.976377
    12570.710200       0.975309
    12586.532400       0.974221
    12602.394500       0.973113
    12618.296500       0.971986
    12634.238800       0.970839
    12650.221400       0.969674
    12666.244500       0.968490
    12682.308200       0.967287
    12698.412700       0.966066
    12714.558200       0.964826
    12730.744700       0.963569
    12746.972600       0.962294
    12763.241900       0.961001
    12779.552700       0.959691
    12795.905300       0.958364
    12812.299800       0.957020
    12828.736400       0.955658
    12845.215200       0.954280
    12861.736300       0.952886
    12878.300100       0.951475
    12894.906500       0.950048
    12911.555800       0.948605
    12928.248200       0.947146
    12944.983800       0.945671
    12961.762800       0.944181
    12978.585300       0.942676
    12995.451600       0.941155
    13012.361700       0.939619
    13029.316000       0.938068
    13046.314400       0.936502
    13063.357300       0.934922
    13080.444700       0.933327
    13097.576900       0.931717
    13114.754100       0.930094
    13131.976400       0.928456
    13149.243900       0.926804
    13166.556900       0.925138
    13183.915600       0.923459
    13201.320100       0.921766
    13218.770700       0.920059
    13236.267400       0.918339
    13253.810500       0.916605
    13271.400100       0.914859
    13289.036500       0.913099
    13306.719900       0.911326
    13324.450400       0.909541
    13342.228200       0.907742
    13360.053400       0.905931
    13377.926400       0.904108
    13395.847300       0.902271
    13413.816200       0.900423
    13431.833400       0.898562
    13449.899100       0.896689
    13468.013500       0.894804
    13486.176700       0.892907
    13504.388900       0.890997
    13522.650400       0.889076
    13540.961400       0.887144
    13559.322000       0.885199
    13577.732500       0.883243
    13596.193100       0.881276
    13614.703900       0.879297
    13633.265200       0.877306
    13651.877100       0.875304
    13670.540000       0.873291
    13689.253900       0.871267
    13708.019200       0.869232
    13726.836000       0.867186
    13745.704500       0.865128
    13764.624900       0.863060
    13783.597500       0.860981
    13802.622500       0.858892
    13821.700100       0.856791
    13840.830400       0.854681
    13860.013900       0.852559
    13879.250500       0.850427
    13898.540700       0.848285
    13917.884500       0.846132
    13937.282200       0.843969
    13956.734100       0.841795
    13976.240400       0.839612
    13995.801300       0.837418
    14015.417000       0.835215
    14035.087700       0.833001
    14054.813800       0.830778
    14074.595400       0.828544
    14094.432700       0.826301
    14114.326000       0.824048
    14134.275600       0.821785
    14154.281700       0.819513
    14174.344400       0.817231
    14194.464200       0.814940
    14214.641100       0.812639
    14234.875400       0.810329
    14255.167500       0.808009
    14275.517500       0.805681
    14295.925700       0.803343
    14316.392300       0.800995
    14336.917600       0.798639
    14357.501800       0.796274
    14378.145200       0.793900
    14398.848100       0.791517
    14419.610700       0.789125
    14440.433200       0.786724
    14461.316000       0.784315
    14482.259200       0.781897
    14503.263200       0.779470
    14524.328200       0.777035
    14545.454500       0.774592
    14566.642400       0.772140
    14587.892000       0.769680
    14609.203800       0.767212
    14630.577900       0.764735
    14652.014700       0.762251
    14673.514300       0.759758
    14695.077100       0.757258
    14716.703500       0.754749
    14738.393500       0.752233
    14760.147600       0.749710
    14781.966000       0.747178
    14803.849000       0.744639
    14825.796900       0.742093
    14847.809900       0.739539
    14869.888500       0.736978
    14892.032800       0.734410
    14914.243100       0.731834
    14936.519800       0.729252
    14958.863100       0.726663
    14981.273400       0.724067
    15003.750900       0.721463
    15026.296000       0.718854
    15048.909000       0.716238
    15071.590100       0.713615
    15094.339600       0.710986
    15117.158000       0.708350
    15140.045400       0.705709
    15163.002300       0.703061
    15186.028900       0.700407
    15209.125500       0.697748
    15232.292500       0.695082
    15255.530100       0.692411
    15278.838800       0.689735
    15302.218800       0.687052
    15325.670500       0.684365
    15349.194200       0.681672
    15372.790200       0.678974
    15396.458800       0.676271
    15420.200500       0.673563
    15444.015400       0.670851
    15467.904100       0.668133
    15491.866800       0.665412
    15515.903800       0.662685
    15540.015500       0.659954
    15564.202300       0.657220
    15588.464500       0.654481
    15612.802500       0.651738
    15637.216600       0.648991
    15661.707100       0.646241
    15686.274500       0.643487
    15710.919100       0.640729
    15735.641200       0.637968
    15760.441300       0.635204
    15785.319700       0.632437
    15810.276700       0.629667
    15835.312700       0.626895
    15860.428200       0.624119
    15885.623500       0.621341
    15910.899000       0.618561
    15936.255000       0.615779
    15961.691900       0.612994
    15987.210200       0.610208
    16012.810200       0.607419
    16038.492400       0.604629
    16064.257000       0.601838
    16090.104600       0.599045
    16116.035500       0.596251
    16142.050000       0.593455
    16168.148700       0.590659
    16194.332000       0.587862
    16220.600200       0.585064
    16246.953700       0.582266
    16273.393000       0.579467
    16299.918500       0.576668
    16326.530600       0.573870
    16353.229800       0.571071
    16380.016400       0.568272
    16406.890900       0.565474
    16433.853700       0.562676
    16460.905300       0.559879
    16488.046200       0.557083
    16515.276600       0.554288
    16542.597200       0.551493
    16570.008300       0.548701
    16597.510400       0.545909
    16625.103900       0.543119
    16652.789300       0.540331
    16680.567100       0.537545
    16708.437800       0.534760
    16736.401700       0.531978
    16764.459300       0.529198
    16792.611300       0.526421
    16820.857900       0.523646
    16849.199700       0.520874
    16877.637100       0.518105
    16906.170800       0.515339
    16934.801000       0.512576
    16963.528400       0.509816
    16992.353400       0.507060
    17021.276600       0.504307
    17050.298400       0.501558
    17079.419300       0.498813
    17108.639900       0.496072
    17137.960600       0.493335
    17167.382000       0.490602
    17196.904600       0.487874
    17226.528900       0.485151
    17256.255400       0.482432
    17286.084700       0.479717
    17316.017300       0.477008
    17346.053800       0.474304
    17376.194600       0.471604
    17406.440400       0.468911
    17436.791600       0.466222
    17467.248900       0.463539
    17497.812800       0.460862
    17528.483800       0.458190
    17559.262500       0.455524
    17590.149500       0.452864
    17621.145400       0.450211
    17652.250700       0.447563
    17683.466000       0.444922
    17714.791900       0.442287
    17746.228900       0.439658
    17777.777800       0.437037
    17809.439000       0.434421
    17841.213200       0.431813
    17873.101000       0.429211
    17905.103000       0.426616
    17937.219700       0.424028
    17969.451900       0.421447
    18001.800200       0.418874
    18034.265100       0.416307
    18066.847300       0.413748
    18099.547500       0.411196
    18132.366300       0.408651
    18165.304300       0.406114
    18198.362100       0.403584
    18231.540600       0.401062
    18264.840200       0.398548
    18298.261700       0.396041
    18331.805700       0.393541
    18365.472900       0.391050
    18399.264000       0.388566
    18433.179700       0.386090
    18467.220700       0.383621
    18501.387600       0.381161
    18535.681200       0.378708
    18570.102100       0.376263
    18604.651200       0.373826
    18639.329000       0.371397
    18674.136300       0.368975
    18709.073900       0.366561
    18744.142500       0.364156
    18779.342700       0.361757
    18814.675400       0.359367
    18850.141400       0.356984
    18885.741300       0.354610
    18921.475900       0.352243
    18957.346000       0.349883
    18993.352300       0.347531
    19029.495700       0.345187
    19065.776900       0.342850
    19102.196800       0.340521
    19138.756000       0.338199
    19175.455400       0.335884
    19212.295900       0.333577
    19249.278200       0.331277
    19286.403100       0.328984
    19323.671500       0.326698
    19361.084200       0.324419
    19398.642100       0.322147
    19436.346000       0.319882
    19474.196700       0.317624
    19512.195100       0.315372
    19550.342100       0.313127
    19588.638600       0.310888
    19627.085400       0.308655
    19665.683400       0.306428
    19704.433500       0.304208
    19743.336600       0.301993
    19782.393700       0.299784
    19821.605600       0.297581
    19860.973200       0.295383
    19900.497500       0.293191
    19940.179500       0.291003
    19980.020000       0.288821
    20020.020000       0.286644
    20060.180500       0.284471
    20100.502500       0.282303
    20140.986900       0.280139
    20181.634700       0.277980
    20222.446900       0.275824
    20263.424500       0.273672
    20304.568500       0.271524
    20345.880000       0.269380
    20387.359800       0.267239
    20429.009200       0.265101
    20470.829100       0.262965
    20512.820500       0.260833
    20554.984600       0.258703
    20597.322300       0.256575
    20639.834900       0.254450
    20682.523300       0.252326
    20725.388600       0.250204
    20768.432000       0.248083
    20811.654500       0.245964
    20855.057400       0.243845
    20898.641600       0.241727
    20942.408400       0.239610
    20986.358900       0.237493
    21030.494200       0.235377
    21074.815600       0.233260
    21119.324200       0.231142
    21164.021200       0.229025
    21208.907700       0.226906
    21253.985100       0.224786
    21299.254500       0.222665
    21344.717200       0.220542
    21390.374300       0.218418
    21436.227200       0.216292
    21482.277100       0.214163
    21528.525300       0.212032
    21574.973000       0.209898
    21621.621600       0.207761
    21668.472400       0.205621
    21715.526600       0.203478
    21762.785600       0.201331
    21810.250800       0.199180
    21857.923500       0.197025
    21905.805000       0.194866
    21953.896800       0.192702
    22002.200200       0.190533
    22050.716600       0.188360
    22099.447500       0.186181
    22148.394200       0.183997
    22197.558300       0.181807
    22246.941000       0.179611
    22296.544000       0.177409
    22346.368700       0.175202
    22396.416600       0.172987
    22446.689100       0.170767
    22497.187900       0.168539
    22547.914300       0.166305
    22598.870100       0.164063
    22650.056600       0.161814
    22701.475600       0.159558
    22753.128600       0.157294
    22805.017100       0.155023
    22857.142900       0.152744
    22909.507400       0.150457
    22962.112500       0.148162
    23014.959700       0.145859
    23068.050700       0.143547
    23121.387300       0.141227
    23174.971000       0.138899
    23228.803700       0.136563
    23282.887100       0.134218
    23337.222900       0.131864
    23391.812900       0.129502
    23446.658900       0.127132
    23501.762600       0.124753
    23557.126000       0.122365
    23612.750900       0.119969
    23668.639100       0.117564
    23724.792400       0.115151
    23781.212800       0.112729
    23837.902300       0.110300
    23894.862600       0.107862
    23952.095800       0.105416
    24009.603800       0.102962
    24067.388700       0.100500
    24125.452400       0.098031
    24183.796900       0.095555
    24242.424200       0.093071
    24301.336600       0.090581
    24360.535900       0.088083
    24420.024400       0.085580
    24479.804200       0.083070
    24539.877300       0.080554
    24600.246000       0.078033
    24660.912500       0.075507
    24721.878900       0.072976
    24783.147500       0.070440
    24844.720500       0.067901
    24906.600200       0.065358
    24968.789000       0.062813
    25031.289100       0.060265
    25094.102900       0.057715
    25157.232700       0.055164
    25220.681000       0.052612
    25284.450100       0.050060
    25348.542500       0.047508
    25412.960600       0.044958
    25477.707000       0.042410
