   8  ,noaa_19_hirs_08.flt
Number of data points:
656
Wavenumber (cm-1)   Filter response
      867.680000       0.000000
      867.780000       0.000085
      867.880000       0.000218
      867.980000       0.000363
      868.080000       0.000511
      868.180000       0.000666
      868.280000       0.000822
      868.380000       0.000980
      868.480000       0.001147
      868.580000       0.001328
      868.680000       0.001515
      868.780000       0.001704
      868.880000       0.001896
      868.980000       0.002091
      869.080000       0.002286
      869.180000       0.002485
      869.280000       0.002690
      869.380000       0.002906
      869.480000       0.003124
      869.580000       0.003350
      869.680000       0.003578
      869.780000       0.003809
      869.880000       0.004042
      869.980000       0.004276
      870.080000       0.004519
      870.180000       0.004762
      870.280000       0.005006
      870.380000       0.005253
      870.480000       0.005504
      870.580000       0.005758
      870.680000       0.006015
      870.780000       0.006276
      870.880000       0.006543
      870.980000       0.006814
      871.080000       0.007087
      871.180000       0.007360
      871.280000       0.007638
      871.380000       0.007921
      871.480000       0.008205
      871.580000       0.008498
      871.680000       0.008793
      871.780000       0.009089
      871.880000       0.009385
      871.980000       0.009682
      872.080000       0.009986
      872.180000       0.010291
      872.280000       0.010599
      872.380000       0.010922
      872.480000       0.011272
      872.580000       0.011659
      872.680000       0.012064
      872.780000       0.012474
      872.880000       0.012903
      872.980000       0.013360
      873.080000       0.013834
      873.180000       0.014343
      873.280000       0.014856
      873.380000       0.015380
      873.480000       0.015932
      873.580000       0.016505
      873.680000       0.017136
      873.780000       0.017832
      873.880000       0.018556
      873.980000       0.019292
      874.080000       0.020053
      874.180000       0.020851
      874.280000       0.021722
      874.380000       0.022702
      874.480000       0.023787
      874.580000       0.024959
      874.680000       0.026215
      874.780000       0.027556
      874.880000       0.028928
      874.980000       0.030320
      875.080000       0.031719
      875.180000       0.033094
      875.280000       0.034457
      875.380000       0.035791
      875.480000       0.037107
      875.580000       0.038438
      875.680000       0.039766
      875.780000       0.041081
      875.880000       0.042427
      875.980000       0.043854
      876.080000       0.045406
      876.180000       0.047074
      876.280000       0.048828
      876.380000       0.050635
      876.480000       0.052432
      876.580000       0.054196
      876.680000       0.055943
      876.780000       0.057744
      876.880000       0.059670
      876.980000       0.061738
      877.080000       0.063962
      877.180000       0.066362
      877.280000       0.068934
      877.380000       0.071638
      877.480000       0.074474
      877.580000       0.077459
      877.680000       0.080566
      877.780000       0.083814
      877.880000       0.087263
      877.980000       0.090956
      878.080000       0.094885
      878.180000       0.099031
      878.280000       0.103409
      878.380000       0.108005
      878.480000       0.112768
      878.580000       0.117707
      878.680000       0.122872
      878.780000       0.128278
      878.880000       0.133896
      878.980000       0.139706
      879.080000       0.145726
      879.180000       0.151952
      879.280000       0.158324
      879.380000       0.164869
      879.480000       0.171653
      879.580000       0.178664
      879.680000       0.185892
      879.780000       0.193403
      879.880000       0.201250
      879.980000       0.209424
      880.080000       0.217889
      880.180000       0.226633
      880.280000       0.235618
      880.380000       0.244818
      880.480000       0.254219
      880.580000       0.263851
      880.680000       0.273740
      880.780000       0.283877
      880.880000       0.294227
      880.980000       0.304804
      881.080000       0.315661
      881.180000       0.326830
      881.280000       0.338306
      881.380000       0.350055
      881.480000       0.362042
      881.580000       0.374270
      881.680000       0.386689
      881.780000       0.399254
      881.880000       0.411949
      881.980000       0.424805
      882.080000       0.437835
      882.180000       0.451021
      882.280000       0.464315
      882.380000       0.477706
      882.480000       0.491195
      882.580000       0.504746
      882.680000       0.518333
      882.780000       0.531981
      882.880000       0.545692
      882.980000       0.559431
      883.080000       0.573174
      883.180000       0.586898
      883.280000       0.600586
      883.380000       0.614227
      883.480000       0.627769
      883.580000       0.641192
      883.680000       0.654501
      883.780000       0.667655
      883.880000       0.680657
      883.980000       0.693515
      884.080000       0.706164
      884.180000       0.718588
      884.280000       0.730711
      884.380000       0.742515
      884.480000       0.754028
      884.580000       0.765233
      884.680000       0.776148
      884.780000       0.786824
      884.880000       0.797272
      884.980000       0.807470
      885.080000       0.817367
      885.180000       0.826971
      885.280000       0.836279
      885.380000       0.845267
      885.480000       0.853915
      885.580000       0.862246
      885.680000       0.870290
      885.780000       0.878040
      885.880000       0.885460
      885.980000       0.892557
      886.080000       0.899317
      886.180000       0.905736
      886.280000       0.911815
      886.380000       0.917585
      886.480000       0.923109
      886.580000       0.928432
      886.680000       0.933547
      886.780000       0.938432
      886.880000       0.943075
      886.980000       0.947485
      887.080000       0.951641
      887.180000       0.955540
      887.280000       0.959202
      887.380000       0.962665
      887.480000       0.965941
      887.580000       0.969030
      887.680000       0.971912
      887.780000       0.974590
      887.880000       0.977054
      887.980000       0.979337
      888.080000       0.981441
      888.180000       0.983414
      888.280000       0.985237
      888.380000       0.986918
      888.480000       0.988457
      888.580000       0.989842
      888.680000       0.991055
      888.780000       0.992128
      888.880000       0.993103
      888.980000       0.993994
      889.080000       0.994812
      889.180000       0.995575
      889.280000       0.996252
      889.380000       0.996838
      889.480000       0.997344
      889.580000       0.997789
      889.680000       0.998192
      889.780000       0.998554
      889.880000       0.998864
      889.980000       0.999146
      890.080000       0.999299
      890.180000       0.999361
      890.280000       0.999373
      890.380000       0.999342
      890.480000       0.999309
      890.580000       0.999324
      890.680000       0.999369
      890.780000       0.999457
      890.880000       0.999599
      890.980000       0.999755
      891.080000       0.999883
      891.180000       0.999966
      891.280000       1.000000
      891.380000       0.999974
      891.480000       0.999923
      891.580000       0.999868
      891.680000       0.999852
      891.780000       0.999856
      891.880000       0.999835
      891.980000       0.999767
      892.080000       0.999579
      892.180000       0.999308
      892.280000       0.998969
      892.380000       0.998584
      892.480000       0.998174
      892.580000       0.997742
      892.680000       0.997267
      892.780000       0.996717
      892.880000       0.996100
      892.980000       0.995430
      893.080000       0.994735
      893.180000       0.994102
      893.280000       0.993486
      893.380000       0.992859
      893.480000       0.992226
      893.580000       0.991565
      893.680000       0.990860
      893.780000       0.990140
      893.880000       0.989422
      893.980000       0.988699
      894.080000       0.987915
      894.180000       0.987140
      894.280000       0.986383
      894.380000       0.985608
      894.480000       0.984806
      894.580000       0.983976
      894.680000       0.983122
      894.780000       0.982251
      894.880000       0.981394
      894.980000       0.980573
      895.080000       0.979757
      895.180000       0.978892
      895.280000       0.977946
      895.380000       0.976925
      895.480000       0.975880
      895.580000       0.974858
      895.680000       0.973880
      895.780000       0.972959
      895.880000       0.972042
      895.980000       0.971086
      896.080000       0.970112
      896.180000       0.969198
      896.280000       0.968298
      896.380000       0.967406
      896.480000       0.966499
      896.580000       0.965538
      896.680000       0.964543
      896.780000       0.963524
      896.880000       0.962515
      896.980000       0.961541
      897.080000       0.960575
      897.180000       0.959611
      897.280000       0.958648
      897.380000       0.957669
      897.480000       0.956734
      897.580000       0.955843
      897.680000       0.954936
      897.780000       0.953999
      897.880000       0.953032
      897.980000       0.952051
      898.080000       0.951017
      898.180000       0.949977
      898.280000       0.948975
      898.380000       0.948034
      898.480000       0.947150
      898.580000       0.946312
      898.680000       0.945513
      898.780000       0.944737
      898.880000       0.943954
      898.980000       0.943190
      899.080000       0.942429
      899.180000       0.941687
      899.280000       0.940997
      899.380000       0.940370
      899.480000       0.939770
      899.580000       0.939157
      899.680000       0.938537
      899.780000       0.937945
      899.880000       0.937404
      899.980000       0.936903
      900.080000       0.936397
      900.180000       0.935907
      900.280000       0.935411
      900.380000       0.934906
      900.480000       0.934427
      900.580000       0.933990
      900.680000       0.933599
      900.780000       0.933234
      900.880000       0.932883
      900.980000       0.932556
      901.080000       0.932258
      901.180000       0.931976
      901.280000       0.931681
      901.380000       0.931379
      901.480000       0.931105
      901.580000       0.930869
      901.680000       0.930670
      901.780000       0.930492
      901.880000       0.930336
      901.980000       0.930166
      902.080000       0.929880
      902.180000       0.929541
      902.280000       0.929219
      902.380000       0.928947
      902.480000       0.928735
      902.580000       0.928546
      902.680000       0.928350
      902.780000       0.928115
      902.880000       0.927805
      902.980000       0.927508
      903.080000       0.927281
      903.180000       0.927126
      903.280000       0.926951
      903.380000       0.926710
      903.480000       0.926404
      903.580000       0.926069
      903.680000       0.925749
      903.780000       0.925453
      903.880000       0.925210
      903.980000       0.925016
      904.080000       0.924786
      904.180000       0.924520
      904.280000       0.924209
      904.380000       0.923877
      904.480000       0.923561
      904.580000       0.923240
      904.680000       0.922884
      904.780000       0.922482
      904.880000       0.922059
      904.980000       0.921609
      905.080000       0.921110
      905.180000       0.920550
      905.280000       0.919965
      905.380000       0.919365
      905.480000       0.918753
      905.580000       0.918152
      905.680000       0.917537
      905.780000       0.916879
      905.880000       0.916163
      905.980000       0.915399
      906.080000       0.914633
      906.180000       0.913910
      906.280000       0.913229
      906.380000       0.912563
      906.480000       0.911872
      906.580000       0.911159
      906.680000       0.910471
      906.780000       0.909808
      906.880000       0.909156
      906.980000       0.908514
      907.080000       0.907862
      907.180000       0.907165
      907.280000       0.906420
      907.380000       0.905640
      907.480000       0.904863
      907.580000       0.904107
      907.680000       0.903356
      907.780000       0.902621
      907.880000       0.901911
      907.980000       0.901215
      908.080000       0.900515
      908.180000       0.899774
      908.280000       0.898994
      908.380000       0.898192
      908.480000       0.897370
      908.580000       0.896493
      908.680000       0.895556
      908.780000       0.894589
      908.880000       0.893607
      908.980000       0.892619
      909.080000       0.891649
      909.180000       0.890722
      909.280000       0.889827
      909.380000       0.888936
      909.480000       0.888017
      909.580000       0.887078
      909.680000       0.886164
      909.780000       0.885312
      909.880000       0.884526
      909.980000       0.883812
      910.080000       0.883185
      910.180000       0.882613
      910.280000       0.882033
      910.380000       0.881429
      910.480000       0.880806
      910.580000       0.880122
      910.680000       0.879414
      910.780000       0.878713
      910.880000       0.878060
      910.980000       0.877478
      911.080000       0.876922
      911.180000       0.876358
      911.280000       0.875803
      911.380000       0.875254
      911.480000       0.874723
      911.580000       0.874224
      911.680000       0.873760
      911.780000       0.873313
      911.880000       0.872831
      911.980000       0.872273
      912.080000       0.871660
      912.180000       0.870986
      912.280000       0.870256
      912.380000       0.869457
      912.480000       0.868567
      912.580000       0.867553
      912.680000       0.866367
      912.780000       0.865005
      912.880000       0.863456
      912.980000       0.861715
      913.080000       0.859793
      913.180000       0.857668
      913.280000       0.855295
      913.380000       0.852662
      913.480000       0.849766
      913.580000       0.846607
      913.680000       0.843134
      913.780000       0.839284
      913.880000       0.835028
      913.980000       0.830341
      914.080000       0.825264
      914.180000       0.819812
      914.280000       0.814014
      914.380000       0.807898
      914.480000       0.801431
      914.580000       0.794574
      914.680000       0.787310
      914.780000       0.779635
      914.880000       0.771553
      914.980000       0.763078
      915.080000       0.754182
      915.180000       0.744868
      915.280000       0.735131
      915.380000       0.724949
      915.480000       0.714324
      915.580000       0.703281
      915.680000       0.691856
      915.780000       0.680086
      915.880000       0.667994
      915.980000       0.655609
      916.080000       0.642967
      916.180000       0.630055
      916.280000       0.616847
      916.380000       0.603370
      916.480000       0.589668
      916.580000       0.575781
      916.680000       0.561768
      916.780000       0.547667
      916.880000       0.533487
      916.980000       0.519247
      917.080000       0.504976
      917.180000       0.490699
      917.280000       0.476370
      917.380000       0.461971
      917.480000       0.447582
      917.580000       0.433289
      917.680000       0.419124
      917.780000       0.405085
      917.880000       0.391174
      917.980000       0.377377
      918.080000       0.363691
      918.180000       0.350144
      918.280000       0.336814
      918.380000       0.323761
      918.480000       0.310997
      918.580000       0.298526
      918.680000       0.286333
      918.780000       0.274406
      918.880000       0.262771
      918.980000       0.251478
      919.080000       0.240564
      919.180000       0.230035
      919.280000       0.219863
      919.380000       0.210036
      919.480000       0.200564
      919.580000       0.191460
      919.680000       0.182724
      919.780000       0.174342
      919.880000       0.166286
      919.980000       0.158551
      920.080000       0.151153
      920.180000       0.144101
      920.280000       0.137365
      920.380000       0.130921
      920.480000       0.124763
      920.580000       0.118872
      920.680000       0.113202
      920.780000       0.107762
      920.880000       0.102594
      920.980000       0.097721
      921.080000       0.093155
      921.180000       0.088881
      921.280000       0.084839
      921.380000       0.080973
      921.480000       0.077247
      921.580000       0.073680
      921.680000       0.070293
      921.780000       0.067084
      921.880000       0.064057
      921.980000       0.061194
      922.080000       0.058469
      922.180000       0.055876
      922.280000       0.053388
      922.380000       0.051009
      922.480000       0.048757
      922.580000       0.046632
      922.680000       0.044628
      922.780000       0.042731
      922.880000       0.040929
      922.980000       0.039218
      923.080000       0.037573
      923.180000       0.035983
      923.280000       0.034438
      923.380000       0.032927
      923.480000       0.031464
      923.580000       0.030073
      923.680000       0.028771
      923.780000       0.027564
      923.880000       0.026429
      923.980000       0.025358
      924.080000       0.024344
      924.180000       0.023357
      924.280000       0.022386
      924.380000       0.021474
      924.480000       0.020675
      924.580000       0.019969
      924.680000       0.019295
      924.780000       0.018651
      924.880000       0.018014
      924.980000       0.017360
      925.080000       0.016708
      925.180000       0.016064
      925.280000       0.015463
      925.380000       0.014909
      925.480000       0.014371
      925.580000       0.013850
      925.680000       0.013330
      925.780000       0.012815
      925.880000       0.012344
      925.980000       0.011915
      926.080000       0.011492
      926.180000       0.011073
      926.280000       0.010656
      926.380000       0.010245
      926.480000       0.009845
      926.580000       0.009458
      926.680000       0.009082
      926.780000       0.008710
      926.880000       0.008362
      926.980000       0.008026
      927.080000       0.007721
      927.180000       0.007447
      927.280000       0.007174
      927.380000       0.006904
      927.480000       0.006676
      927.580000       0.006460
      927.680000       0.006244
      927.780000       0.006029
      927.880000       0.005815
      927.980000       0.005616
      928.080000       0.005418
      928.180000       0.005222
      928.280000       0.005028
      928.380000       0.004835
      928.480000       0.004642
      928.580000       0.004450
      928.680000       0.004269
      928.780000       0.004091
      928.880000       0.003914
      928.980000       0.003742
      929.080000       0.003576
      929.180000       0.003410
      929.280000       0.003260
      929.380000       0.003114
      929.480000       0.002973
      929.580000       0.002842
      929.680000       0.002712
      929.780000       0.002586
      929.880000       0.002462
      929.980000       0.002339
      930.080000       0.002216
      930.180000       0.002102
      930.280000       0.001989
      930.380000       0.001876
      930.480000       0.001764
      930.580000       0.001652
      930.680000       0.001541
      930.780000       0.001440
      930.880000       0.001344
      930.980000       0.001248
      931.080000       0.001156
      931.180000       0.001069
      931.280000       0.000983
      931.380000       0.000897
      931.480000       0.000816
      931.580000       0.000735
      931.680000       0.000662
      931.780000       0.000590
      931.880000       0.000523
      931.980000       0.000460
      932.080000       0.000405
      932.180000       0.000351
      932.280000       0.000298
      932.380000       0.000246
      932.480000       0.000203
      932.580000       0.000161
      932.680000       0.000123
      932.780000       0.000089
      932.880000       0.000059
      932.980000       0.000030
      933.080000       0.000006
      933.180000       0.000000
