80,   80, MVIRI VIS channel from srf_MET7_2007213_2007214_1801-Release_S10EE_10.dat
Number of data points:
793
Wavenumber (cm-1)   Filter response
     8442.380800       0.000000
     8449.514200       0.000000
     8456.659600       0.000004
     8463.817200       0.000056
     8470.986900       0.000164
     8478.168700       0.000328
     8485.362700       0.000546
     8492.569000       0.000817
     8499.787500       0.001138
     8507.018300       0.001509
     8514.261400       0.001928
     8521.516800       0.002393
     8528.784600       0.002904
     8536.064900       0.003458
     8543.357500       0.004056
     8550.662700       0.004695
     8557.980300       0.005374
     8565.310500       0.006093
     8572.653200       0.006850
     8580.008600       0.007645
     8587.376600       0.008475
     8594.757200       0.009341
     8602.150500       0.010242
     8609.556600       0.011176
     8616.975400       0.012143
     8624.407100       0.013143
     8631.851500       0.014173
     8639.308900       0.015234
     8646.779100       0.016325
     8654.262200       0.017446
     8661.758300       0.018594
     8669.267400       0.019772
     8676.789600       0.020976
     8684.324800       0.022207
     8691.873100       0.023465
     8699.434500       0.024749
     8707.009100       0.026058
     8714.596900       0.027392
     8722.198000       0.028751
     8729.812300       0.030135
     8737.439900       0.031542
     8745.080900       0.032973
     8752.735200       0.034427
     8760.403000       0.035904
     8768.084200       0.037404
     8775.778900       0.038926
     8783.487000       0.040471
     8791.208800       0.042037
     8798.944100       0.043626
     8806.693100       0.045236
     8814.455700       0.046867
     8822.232000       0.048520
     8830.022100       0.050194
     8837.825900       0.051889
     8845.643500       0.053606
     8853.475000       0.055343
     8861.320300       0.057100
     8869.179600       0.058879
     8877.052800       0.060678
     8884.940000       0.062498
     8892.841300       0.064339
     8900.756600       0.066200
     8908.686000       0.068081
     8916.629500       0.069983
     8924.587200       0.071906
     8932.559200       0.073849
     8940.545400       0.075813
     8948.545900       0.077797
     8956.560700       0.079802
     8964.589900       0.081828
     8972.633500       0.083874
     8980.691500       0.085942
     8988.764000       0.088030
     8996.851100       0.090139
     9004.952700       0.092269
     9013.068900       0.094419
     9021.199800       0.096591
     9029.345400       0.098785
     9037.505600       0.100999
     9045.680700       0.103235
     9053.870500       0.105492
     9062.075200       0.107771
     9070.294800       0.110071
     9078.529300       0.112393
     9086.778700       0.114737
     9095.043200       0.117102
     9103.322700       0.119490
     9111.617300       0.121899
     9119.927000       0.124331
     9128.251900       0.126785
     9136.592100       0.129261
     9144.947400       0.131760
     9153.318100       0.134281
     9161.704100       0.136824
     9170.105500       0.139391
     9178.522300       0.141980
     9186.954500       0.144592
     9195.402300       0.147226
     9203.865600       0.149884
     9212.344500       0.152565
     9220.839100       0.155269
     9229.349300       0.157996
     9237.875300       0.160746
     9246.417000       0.163520
     9254.974500       0.166317
     9263.547900       0.169137
     9272.137200       0.171981
     9280.742500       0.174848
     9289.363700       0.177739
     9298.000900       0.180653
     9306.654300       0.183592
     9315.323700       0.186553
     9324.009300       0.189539
     9332.711200       0.192548
     9341.429200       0.195580
     9350.163600       0.198637
     9358.914400       0.201716
     9367.681500       0.204820
     9376.465100       0.207948
     9385.265100       0.211099
     9394.081700       0.214274
     9402.914900       0.217472
     9411.764700       0.220694
     9420.631200       0.223939
     9429.514400       0.227208
     9438.414300       0.230501
     9447.331100       0.233816
     9456.264800       0.237155
     9465.215300       0.240518
     9474.182900       0.243903
     9483.167400       0.247312
     9492.169000       0.250744
     9501.187600       0.254198
     9510.223500       0.257676
     9519.276500       0.261176
     9528.346800       0.264699
     9537.434400       0.268244
     9546.539400       0.271811
     9555.661700       0.275401
     9564.801500       0.279013
     9573.958800       0.282647
     9583.133700       0.286303
     9592.326100       0.289980
     9601.536200       0.293679
     9610.764100       0.297399
     9620.009600       0.301140
     9629.273000       0.304902
     9638.554200       0.308685
     9647.853400       0.312489
     9657.170400       0.316312
     9666.505600       0.320156
     9675.858700       0.324020
     9685.230000       0.327904
     9694.619500       0.331807
     9704.027200       0.335729
     9713.453100       0.339671
     9722.897400       0.343631
     9732.360100       0.347609
     9741.841200       0.351606
     9751.340800       0.355621
     9760.859000       0.359654
     9770.395700       0.363704
     9779.951100       0.367771
     9789.525200       0.371855
     9799.118100       0.375956
     9808.729800       0.380073
     9818.360300       0.384206
     9828.009800       0.388354
     9837.678300       0.392518
     9847.365800       0.396698
     9857.072400       0.400891
     9866.798200       0.405099
     9876.543200       0.409321
     9886.307500       0.413557
     9896.091000       0.417807
     9905.894000       0.422069
     9915.716400       0.426344
     9925.558300       0.430631
     9935.419800       0.434930
     9945.300800       0.439241
     9955.201600       0.443562
     9965.122100       0.447895
     9975.062300       0.452238
     9985.022500       0.456592
     9995.002500       0.460955
    10005.002500       0.465327
    10015.022500       0.469707
    10025.062700       0.474097
    10035.122900       0.478494
    10045.203400       0.482899
    10055.304200       0.487312
    10065.425300       0.491731
    10075.566800       0.496156
    10085.728700       0.500587
    10095.911200       0.505025
    10106.114200       0.509467
    10116.337900       0.513913
    10126.582300       0.518364
    10136.847400       0.522819
    10147.133400       0.527277
    10157.440300       0.531738
    10167.768200       0.536202
    10178.117000       0.540668
    10188.487000       0.545135
    10198.878100       0.549603
    10209.290500       0.554072
    10219.724100       0.558541
    10230.179000       0.563010
    10240.655400       0.567479
    10251.153300       0.571946
    10261.672700       0.576411
    10272.213700       0.580874
    10282.776300       0.585335
    10293.360800       0.589793
    10303.967000       0.594247
    10314.595200       0.598698
    10325.245200       0.603143
    10335.917300       0.607585
    10346.611500       0.612020
    10357.327800       0.616450
    10368.066400       0.620874
    10378.827200       0.625290
    10389.610400       0.629700
    10400.416000       0.634102
    10411.244100       0.638495
    10422.094800       0.642880
    10432.968200       0.647256
    10443.864200       0.651623
    10454.783100       0.655979
    10465.724800       0.660324
    10476.689400       0.664659
    10487.677000       0.668982
    10498.687700       0.673294
    10509.721500       0.677593
    10520.778500       0.681879
    10531.858900       0.686151
    10542.962600       0.690410
    10554.089700       0.694655
    10565.240400       0.698885
    10576.414600       0.703100
    10587.612500       0.707299
    10598.834100       0.711482
    10610.079600       0.715649
    10621.348900       0.719798
    10632.642200       0.723931
    10643.959600       0.728045
    10655.301000       0.732141
    10666.666700       0.736219
    10678.056600       0.740277
    10689.470900       0.744315
    10700.909600       0.748334
    10712.372800       0.752332
    10723.860600       0.756310
    10735.373100       0.760265
    10746.910300       0.764200
    10758.472300       0.768112
    10770.059200       0.772001
    10781.671200       0.775868
    10793.308100       0.779711
    10804.970300       0.783531
    10816.657700       0.787326
    10828.370300       0.791097
    10840.108400       0.794842
    10851.871900       0.798563
    10863.661100       0.802258
    10875.475800       0.805926
    10887.316300       0.809568
    10899.182600       0.813183
    10911.074700       0.816772
    10922.992900       0.820332
    10934.937100       0.823865
    10946.907500       0.827369
    10958.904100       0.830845
    10970.927000       0.834292
    10982.976400       0.837709
    10995.052200       0.841097
    11007.154700       0.844455
    11019.283700       0.847782
    11031.439600       0.851079
    11043.622300       0.854345
    11055.832000       0.857580
    11068.068600       0.860783
    11080.332400       0.863955
    11092.623400       0.867094
    11104.941700       0.870201
    11117.287400       0.873276
    11129.660500       0.876317
    11142.061300       0.879325
    11154.489700       0.882300
    11166.945800       0.885241
    11179.429800       0.888148
    11191.941800       0.891020
    11204.481800       0.893859
    11217.049900       0.896662
    11229.646300       0.899431
    11242.270900       0.902164
    11254.924000       0.904862
    11267.605600       0.907524
    11280.315800       0.910151
    11293.054800       0.912742
    11305.822500       0.915296
    11318.619100       0.917814
    11331.444800       0.920296
    11344.299500       0.922740
    11357.183400       0.925148
    11370.096600       0.927519
    11383.039300       0.929853
    11396.011400       0.932149
    11409.013100       0.934408
    11422.044500       0.936629
    11435.105800       0.938813
    11448.196900       0.940958
    11461.318100       0.943066
    11474.469300       0.945136
    11487.650800       0.947167
    11500.862600       0.949160
    11514.104800       0.951115
    11527.377500       0.953031
    11540.680900       0.954909
    11554.015000       0.956748
    11567.380000       0.958548
    11580.775900       0.960310
    11594.202900       0.962033
    11607.661100       0.963717
    11621.150500       0.965363
    11634.671300       0.966969
    11648.223600       0.968537
    11661.807600       0.970065
    11675.423200       0.971555
    11689.070700       0.973006
    11702.750100       0.974418
    11716.461600       0.975791
    11730.205300       0.977126
    11743.981200       0.978421
    11757.789500       0.979678
    11771.630400       0.980896
    11785.503800       0.982075
    11799.410000       0.983216
    11813.349100       0.984318
    11827.321100       0.985381
    11841.326200       0.986406
    11855.364600       0.987393
    11869.436200       0.988341
    11883.541300       0.989252
    11897.680000       0.990124
    11911.852300       0.990958
    11926.058400       0.991754
    11940.298500       0.992512
    11954.572600       0.993233
    11968.880900       0.993917
    11983.223500       0.994563
    11997.600500       0.995171
    12012.012000       0.995743
    12026.458200       0.996278
    12040.939200       0.996776
    12055.455100       0.997238
    12070.006000       0.997663
    12084.592100       0.998052
    12099.213600       0.998405
    12113.870400       0.998722
    12128.562800       0.999004
    12143.290800       0.999250
    12158.054700       0.999461
    12172.854500       0.999637
    12187.690400       0.999778
    12202.562500       0.999885
    12217.471000       0.999957
    12232.415900       0.999995
    12247.397400       1.000000
    12262.415700       0.999971
    12277.470800       0.999909
    12292.563000       0.999814
    12307.692300       0.999686
    12322.858900       0.999525
    12338.062900       0.999332
    12353.304500       0.999108
    12368.583800       0.998852
    12383.900900       0.998564
    12399.256000       0.998246
    12414.649300       0.997896
    12430.080800       0.997517
    12445.550700       0.997107
    12461.059200       0.996668
    12476.606400       0.996199
    12492.192400       0.995701
    12507.817400       0.995174
    12523.481500       0.994619
    12539.185000       0.994036
    12554.927800       0.993425
    12570.710200       0.992786
    12586.532400       0.992121
    12602.394500       0.991428
    12618.296500       0.990710
    12634.238800       0.989966
    12650.221400       0.989196
    12666.244500       0.988400
    12682.308200       0.987580
    12698.412700       0.986736
    12714.558200       0.985868
    12730.744700       0.984975
    12746.972600       0.984060
    12763.241900       0.983122
    12779.552700       0.982161
    12795.905300       0.981178
    12812.299800       0.980174
    12828.736400       0.979148
    12845.215200       0.978102
    12861.736300       0.977035
    12878.300100       0.975948
    12894.906500       0.974842
    12911.555800       0.973716
    12928.248200       0.972572
    12944.983800       0.971409
    12961.762800       0.970228
    12978.585300       0.969031
    12995.451600       0.967816
    13012.361700       0.966584
    13029.316000       0.965336
    13046.314400       0.964073
    13063.357300       0.962794
    13080.444700       0.961501
    13097.576900       0.960193
    13114.754100       0.958871
    13131.976400       0.957536
    13149.243900       0.956187
    13166.556900       0.954827
    13183.915600       0.953453
    13201.320100       0.952069
    13218.770700       0.950673
    13236.267400       0.949266
    13253.810500       0.947849
    13271.400100       0.946422
    13289.036500       0.944985
    13306.719900       0.943540
    13324.450400       0.942086
    13342.228200       0.940624
    13360.053400       0.939154
    13377.926400       0.937678
    13395.847300       0.936194
    13413.816200       0.934704
    13431.833400       0.933209
    13449.899100       0.931708
    13468.013500       0.930202
    13486.176700       0.928691
    13504.388900       0.927177
    13522.650400       0.925659
    13540.961400       0.924138
    13559.322000       0.922614
    13577.732500       0.921088
    13596.193100       0.919560
    13614.703900       0.918030
    13633.265200       0.916500
    13651.877100       0.914969
    13670.540000       0.913438
    13689.253900       0.911908
    13708.019200       0.910378
    13726.836000       0.908850
    13745.704500       0.907323
    13764.624900       0.905798
    13783.597500       0.904276
    13802.622500       0.902756
    13821.700100       0.901240
    13840.830400       0.899728
    13860.013900       0.898219
    13879.250500       0.896716
    13898.540700       0.895217
    13917.884500       0.893723
    13937.282200       0.892235
    13956.734100       0.890754
    13976.240400       0.889278
    13995.801300       0.887810
    14015.417000       0.886349
    14035.087700       0.884895
    14054.813800       0.883450
    14074.595400       0.882013
    14094.432700       0.880584
    14114.326000       0.879165
    14134.275600       0.877755
    14154.281700       0.876355
    14174.344400       0.874965
    14194.464200       0.873586
    14214.641100       0.872217
    14234.875400       0.870859
    14255.167500       0.869513
    14275.517500       0.868179
    14295.925700       0.866856
    14316.392300       0.865546
    14336.917600       0.864249
    14357.501800       0.862965
    14378.145200       0.861694
    14398.848100       0.860437
    14419.610700       0.859193
    14440.433200       0.857963
    14461.316000       0.856748
    14482.259200       0.855548
    14503.263200       0.854362
    14524.328200       0.853192
    14545.454500       0.852037
    14566.642400       0.850897
    14587.892000       0.849774
    14609.203800       0.848666
    14630.577900       0.847575
    14652.014700       0.846500
    14673.514300       0.845442
    14695.077100       0.844401
    14716.703500       0.843376
    14738.393500       0.842370
    14760.147600       0.841380
    14781.966000       0.840408
    14803.849000       0.839454
    14825.796900       0.838518
    14847.809900       0.837599
    14869.888500       0.836699
    14892.032800       0.835817
    14914.243100       0.834954
    14936.519800       0.834109
    14958.863100       0.833283
    14981.273400       0.832475
    15003.750900       0.831686
    15026.296000       0.830916
    15048.909000       0.830165
    15071.590100       0.829434
    15094.339600       0.828721
    15117.158000       0.828027
    15140.045400       0.827352
    15163.002300       0.826697
    15186.028900       0.826061
    15209.125500       0.825444
    15232.292500       0.824846
    15255.530100       0.824267
    15278.838800       0.823708
    15302.218800       0.823168
    15325.670500       0.822646
    15349.194200       0.822144
    15372.790200       0.821661
    15396.458800       0.821197
    15420.200500       0.820752
    15444.015400       0.820326
    15467.904100       0.819919
    15491.866800       0.819530
    15515.903800       0.819160
    15540.015500       0.818808
    15564.202300       0.818474
    15588.464500       0.818159
    15612.802500       0.817861
    15637.216600       0.817582
    15661.707100       0.817320
    15686.274500       0.817076
    15710.919100       0.816849
    15735.641200       0.816640
    15760.441300       0.816447
    15785.319700       0.816272
    15810.276700       0.816112
    15835.312700       0.815970
    15860.428200       0.815843
    15885.623500       0.815732
    15910.899000       0.815637
    15936.255000       0.815557
    15961.691900       0.815492
    15987.210200       0.815442
    16012.810200       0.815407
    16038.492400       0.815385
    16064.257000       0.815378
    16090.104600       0.815384
    16116.035500       0.815403
    16142.050000       0.815436
    16168.148700       0.815481
    16194.332000       0.815538
    16220.600200       0.815607
    16246.953700       0.815687
    16273.393000       0.815779
    16299.918500       0.815881
    16326.530600       0.815994
    16353.229800       0.816116
    16380.016400       0.816248
    16406.890900       0.816389
    16433.853700       0.816538
    16460.905300       0.816696
    16488.046200       0.816861
    16515.276600       0.817034
    16542.597200       0.817213
    16570.008300       0.817399
    16597.510400       0.817590
    16625.103900       0.817787
    16652.789300       0.817988
    16680.567100       0.818194
    16708.437800       0.818403
    16736.401700       0.818616
    16764.459300       0.818831
    16792.611300       0.819049
    16820.857900       0.819268
    16849.199700       0.819488
    16877.637100       0.819708
    16906.170800       0.819929
    16934.801000       0.820148
    16963.528400       0.820366
    16992.353400       0.820583
    17021.276600       0.820797
    17050.298400       0.821007
    17079.419300       0.821214
    17108.639900       0.821416
    17137.960600       0.821614
    17167.382000       0.821805
    17196.904600       0.821991
    17226.528900       0.822169
    17256.255400       0.822340
    17286.084700       0.822502
    17316.017300       0.822655
    17346.053800       0.822799
    17376.194600       0.822932
    17406.440400       0.823054
    17436.791600       0.823165
    17467.248900       0.823263
    17497.812800       0.823347
    17528.483800       0.823418
    17559.262500       0.823474
    17590.149500       0.823515
    17621.145400       0.823540
    17652.250700       0.823548
    17683.466000       0.823538
    17714.791900       0.823510
    17746.228900       0.823463
    17777.777800       0.823397
    17809.439000       0.823309
    17841.213200       0.823201
    17873.101000       0.823070
    17905.103000       0.822917
    17937.219700       0.822739
    17969.451900       0.822538
    18001.800200       0.822311
    18034.265100       0.822059
    18066.847300       0.821780
    18099.547500       0.821473
    18132.366300       0.821138
    18165.304300       0.820774
    18198.362100       0.820380
    18231.540600       0.819956
    18264.840200       0.819500
    18298.261700       0.819012
    18331.805700       0.818492
    18365.472900       0.817937
    18399.264000       0.817348
    18433.179700       0.816724
    18467.220700       0.816063
    18501.387600       0.815366
    18535.681200       0.814631
    18570.102100       0.813858
    18604.651200       0.813045
    18639.329000       0.812193
    18674.136300       0.811299
    18709.073900       0.810364
    18744.142500       0.809387
    18779.342700       0.808367
    18814.675400       0.807303
    18850.141400       0.806195
    18885.741300       0.805041
    18921.475900       0.803841
    18957.346000       0.802594
    18993.352300       0.801300
    19029.495700       0.799957
    19065.776900       0.798566
    19102.196800       0.797125
    19138.756000       0.795633
    19175.455400       0.794090
    19212.295900       0.792495
    19249.278200       0.790848
    19286.403100       0.789147
    19323.671500       0.787392
    19361.084200       0.785583
    19398.642100       0.783718
    19436.346000       0.781798
    19474.196700       0.779821
    19512.195100       0.777787
    19550.342100       0.775694
    19588.638600       0.773544
    19627.085400       0.771334
    19665.683400       0.769065
    19704.433500       0.766735
    19743.336600       0.764345
    19782.393700       0.761893
    19821.605600       0.759379
    19860.973200       0.756803
    19900.497500       0.754163
    19940.179500       0.751461
    19980.020000       0.748694
    20020.020000       0.745862
    20060.180500       0.742966
    20100.502500       0.740005
    20140.986900       0.736977
    20181.634700       0.733883
    20222.446900       0.730723
    20263.424500       0.727495
    20304.568500       0.724200
    20345.880000       0.720838
    20387.359800       0.717407
    20429.009200       0.713908
    20470.829100       0.710340
    20512.820500       0.706703
    20554.984600       0.702997
    20597.322300       0.699221
    20639.834900       0.695376
    20682.523300       0.691461
    20725.388600       0.687475
    20768.432000       0.683420
    20811.654500       0.679294
    20855.057400       0.675098
    20898.641600       0.670831
    20942.408400       0.666494
    20986.358900       0.662086
    21030.494200       0.657607
    21074.815600       0.653058
    21119.324200       0.648439
    21164.021200       0.643749
    21208.907700       0.638988
    21253.985100       0.634157
    21299.254500       0.629256
    21344.717200       0.624286
    21390.374300       0.619245
    21436.227200       0.614135
    21482.277100       0.608956
    21528.525300       0.603708
    21574.973000       0.598392
    21621.621600       0.593007
    21668.472400       0.587555
    21715.526600       0.582035
    21762.785600       0.576448
    21810.250800       0.570795
    21857.923500       0.565076
    21905.805000       0.559292
    21953.896800       0.553443
    22002.200200       0.547530
    22050.716600       0.541554
    22099.447500       0.535515
    22148.394200       0.529415
    22197.558300       0.523253
    22246.941000       0.517030
    22296.544000       0.510749
    22346.368700       0.504409
    22396.416600       0.498011
    22446.689100       0.491557
    22497.187900       0.485047
    22547.914300       0.478483
    22598.870100       0.471866
    22650.056600       0.465196
    22701.475600       0.458475
    22753.128600       0.451705
    22805.017100       0.444886
    22857.142900       0.438020
    22909.507400       0.431109
    22962.112500       0.424153
    23014.959700       0.417155
    23068.050700       0.410115
    23121.387300       0.403036
    23174.971000       0.395918
    23228.803700       0.388765
    23282.887100       0.381576
    23337.222900       0.374355
    23391.812900       0.367103
    23446.658900       0.359822
    23501.762600       0.352514
    23557.126000       0.345180
    23612.750900       0.337824
    23668.639100       0.330447
    23724.792400       0.323050
    23781.212800       0.315638
    23837.902300       0.308211
    23894.862600       0.300772
    23952.095800       0.293323
    24009.603800       0.285868
    24067.388700       0.278407
    24125.452400       0.270945
    24183.796900       0.263484
    24242.424200       0.256026
    24301.336600       0.248574
    24360.535900       0.241131
    24420.024400       0.233700
    24479.804200       0.226284
    24539.877300       0.218885
    24600.246000       0.211508
    24660.912500       0.204155
    24721.878900       0.196829
    24783.147500       0.189533
    24844.720500       0.182272
    24906.600200       0.175048
    24968.789000       0.167865
    25031.289100       0.160727
    25094.102900       0.153637
    25157.232700       0.146599
    25220.681000       0.139616
    25284.450100       0.132694
    25348.542500       0.125834
    25412.960600       0.119043
    25477.707000       0.112323
