  12  ,noaa_14_hirs_12.flt
Number of data points:
101
Wavenumber (cm-1)   Filter response
     1420.900000       0.000000
     1422.300000       0.010485
     1423.700000       0.016017
     1425.100000       0.020744
     1426.500000       0.024251
     1427.900000       0.031183
     1429.300000       0.038077
     1430.700000       0.047547
     1432.100000       0.062398
     1433.500000       0.081584
     1434.900000       0.108060
     1436.300000       0.139680
     1437.700000       0.196010
     1439.100000       0.261580
     1440.500000       0.341500
     1441.800000       0.444260
     1443.200000       0.553030
     1444.600000       0.671490
     1446.100000       0.774960
     1447.500000       0.859930
     1448.800000       0.922100
     1450.200000       0.971420
     1451.600000       0.991500
     1453.000000       1.000000
     1454.400000       0.994720
     1455.800000       0.986590
     1457.200000       0.974810
     1458.600000       0.966870
     1460.000000       0.955520
     1461.400000       0.949990
     1462.700000       0.940550
     1464.100000       0.940550
     1465.500000       0.939520
     1466.900000       0.944660
     1468.300000       0.948570
     1469.700000       0.950700
     1471.100000       0.943930
     1472.500000       0.937620
     1473.900000       0.926710
     1475.400000       0.912130
     1476.800000       0.898690
     1478.200000       0.888920
     1479.600000       0.884020
     1481.000000       0.884140
     1482.400000       0.886300
     1483.800000       0.890990
     1485.200000       0.897190
     1486.600000       0.894010
     1487.900000       0.879240
     1489.300000       0.860410
     1490.700000       0.840500
     1492.100000       0.819940
     1493.500000       0.797770
     1494.900000       0.783350
     1496.300000       0.774270
     1497.700000       0.775850
     1499.100000       0.771730
     1500.500000       0.775250
     1501.900000       0.772180
     1503.300000       0.762340
     1504.700000       0.747780
     1506.100000       0.719050
     1507.500000       0.688220
     1508.900000       0.659870
     1510.300000       0.635370
     1511.700000       0.612720
     1513.100000       0.594570
     1514.500000       0.576100
     1515.900000       0.560410
     1517.300000       0.543530
     1518.700000       0.518980
     1520.200000       0.494110
     1521.500000       0.462930
     1522.900000       0.427530
     1524.300000       0.395380
     1525.700000       0.364910
     1527.100000       0.328140
     1528.500000       0.294350
     1529.900000       0.259920
     1531.300000       0.225300
     1532.700000       0.189680
     1534.100000       0.157670
     1535.400000       0.125530
     1536.800000       0.100960
     1538.200000       0.078607
     1539.600000       0.063185
     1541.000000       0.046370
     1542.400000       0.036237
     1543.900000       0.027337
     1545.300000       0.021916
     1546.700000       0.016567
     1548.100000       0.013333
     1549.500000       0.008328
     1550.900000       0.007160
     1552.400000       0.007007
     1553.800000       0.004172
     1555.200000       0.002653
     1556.600000       0.002475
     1558.100000       0.002405
     1559.500000       0.000062
     1560.900000       0.000000
