4,    channel 4 SRF extracted from SRF_FY4B_AGRI.zip (FY4B_AGRI_SRF_CH4_Pub.txt)
Number of data points:
481
Wavenumber (cm-1)   Filter response
     7127.583700       0.003500
     7128.091800       0.003600
     7128.599900       0.003800
     7129.108100       0.004000
     7129.616400       0.004100
     7130.124800       0.004300
     7130.633200       0.004500
     7131.141700       0.004600
     7131.650300       0.004800
     7132.158900       0.004900
     7132.667600       0.005100
     7133.176400       0.005200
     7133.685300       0.005400
     7134.194200       0.005500
     7134.703200       0.005700
     7135.212300       0.005800
     7135.721400       0.006000
     7136.230600       0.006100
     7136.739900       0.006300
     7137.249300       0.006400
     7137.758700       0.006600
     7138.268300       0.006700
     7138.777800       0.006900
     7139.287500       0.007000
     7139.797200       0.007200
     7140.307000       0.007300
     7140.816900       0.007500
     7141.326900       0.007600
     7141.836900       0.007800
     7142.347000       0.007900
     7142.857100       0.008100
     7143.367400       0.008200
     7143.877700       0.008400
     7144.388100       0.008600
     7144.898500       0.008800
     7145.409100       0.008900
     7145.919700       0.009100
     7146.430400       0.009300
     7146.941100       0.009500
     7147.451900       0.009700
     7147.962800       0.009900
     7148.473800       0.010100
     7148.984800       0.010300
     7149.496000       0.010500
     7150.007200       0.010800
     7150.518400       0.011000
     7151.029700       0.011300
     7151.541200       0.011500
     7152.052600       0.011800
     7152.564200       0.012000
     7153.075800       0.012300
     7153.587500       0.012600
     7154.099300       0.012900
     7154.611100       0.013200
     7155.123100       0.013500
     7155.635100       0.013800
     7156.147100       0.014200
     7156.659300       0.014600
     7157.171500       0.014900
     7157.683800       0.015300
     7158.196100       0.015800
     7158.708600       0.016200
     7159.221100       0.016700
     7159.733700       0.017200
     7160.246300       0.017700
     7160.759000       0.018200
     7161.271800       0.018800
     7161.784700       0.019400
     7162.297700       0.020000
     7162.810700       0.020700
     7163.323800       0.021400
     7163.837000       0.022100
     7164.350200       0.022900
     7164.863500       0.023700
     7165.376900       0.024500
     7165.890400       0.025400
     7166.403900       0.026200
     7166.917500       0.027100
     7167.431200       0.028000
     7167.945000       0.028900
     7168.458800       0.029800
     7168.972700       0.030700
     7169.486700       0.031700
     7170.000700       0.032600
     7170.514800       0.033500
     7171.029000       0.034400
     7171.543300       0.035400
     7172.057700       0.036300
     7172.572100       0.037200
     7173.086600       0.038000
     7173.601100       0.038900
     7174.115800       0.039700
     7174.630500       0.040600
     7175.145300       0.041400
     7175.660200       0.042200
     7176.175100       0.043000
     7176.690100       0.043800
     7177.205200       0.044700
     7177.720400       0.045600
     7178.235600       0.046500
     7178.750900       0.047400
     7179.266300       0.048400
     7179.781700       0.049400
     7180.297300       0.050600
     7180.812900       0.051700
     7181.328500       0.053000
     7181.844300       0.054300
     7182.360100       0.055700
     7182.876000       0.057200
     7183.392000       0.058800
     7183.908000       0.060500
     7184.424200       0.062300
     7184.940400       0.064200
     7185.456600       0.066300
     7185.973000       0.068400
     7186.489400       0.070700
     7187.005900       0.073000
     7187.522500       0.075500
     7188.039100       0.078100
     7188.555800       0.080800
     7189.072600       0.083600
     7189.589500       0.086500
     7190.106400       0.089500
     7190.623400       0.092600
     7191.140500       0.095900
     7191.657700       0.099200
     7192.174900       0.102700
     7192.692200       0.106200
     7193.209600       0.109900
     7193.727100       0.113600
     7194.244600       0.117500
     7194.762200       0.121400
     7195.279900       0.125500
     7195.797700       0.129700
     7196.315500       0.134100
     7196.833400       0.138600
     7197.351400       0.143200
     7197.869400       0.148100
     7198.387600       0.153100
     7198.905800       0.158300
     7199.424000       0.163700
     7199.942400       0.169400
     7200.460800       0.175200
     7200.979300       0.181400
     7201.497900       0.187700
     7202.016600       0.194400
     7202.535300       0.201300
     7203.054100       0.208500
     7203.573000       0.216100
     7204.091900       0.223900
     7204.611000       0.232100
     7205.130100       0.240600
     7205.649200       0.249400
     7206.168500       0.258600
     7206.687800       0.268100
     7207.207200       0.277900
     7207.726700       0.288000
     7208.246200       0.298400
     7208.765900       0.309100
     7209.285600       0.320100
     7209.805300       0.331400
     7210.325200       0.342900
     7210.845100       0.354800
     7211.365100       0.366900
     7211.885200       0.379200
     7212.405300       0.391800
     7212.925600       0.404700
     7213.445900       0.417800
     7213.966200       0.431100
     7214.486700       0.444700
     7215.007200       0.458500
     7215.527800       0.472500
     7216.048500       0.486700
     7216.569200       0.501000
     7217.090100       0.515500
     7217.611000       0.530100
     7218.131900       0.544800
     7218.653000       0.559500
     7219.174100       0.574200
     7219.695300       0.589000
     7220.216600       0.603700
     7220.738000       0.618300
     7221.259400       0.632900
     7221.780900       0.647300
     7222.302500       0.661600
     7222.824100       0.675700
     7223.345900       0.689600
     7223.867700       0.703300
     7224.389500       0.716700
     7224.911500       0.729900
     7225.433500       0.742700
     7225.955600       0.755200
     7226.477800       0.767300
     7227.000100       0.779100
     7227.522400       0.790500
     7228.044800       0.801600
     7228.567300       0.812300
     7229.089900       0.822500
     7229.612500       0.832400
     7230.135200       0.841900
     7230.658000       0.850900
     7231.180900       0.859500
     7231.703800       0.867700
     7232.226800       0.875500
     7232.749900       0.882800
     7233.273100       0.889600
     7233.796300       0.896000
     7234.319600       0.901900
     7234.843000       0.907300
     7235.366500       0.912200
     7235.890000       0.916600
     7236.413600       0.920500
     7236.937300       0.923900
     7237.461100       0.926900
     7237.984900       0.929500
     7238.508900       0.931600
     7239.032900       0.933400
     7239.556900       0.934800
     7240.081100       0.935900
     7240.605300       0.936700
     7241.129600       0.937300
     7241.654000       0.937600
     7242.178400       0.937800
     7242.703000       0.937700
     7243.227600       0.937500
     7243.752300       0.937200
     7244.277000       0.936800
     7244.801900       0.936300
     7245.326800       0.935800
     7245.851700       0.935300
     7246.376800       0.934800
     7246.901900       0.934300
     7247.427200       0.933900
     7247.952500       0.933600
     7248.477800       0.933300
     7249.003300       0.933000
     7249.528800       0.932800
     7250.054400       0.932700
     7250.580000       0.932700
     7251.105800       0.932800
     7251.631600       0.932900
     7252.157500       0.933100
     7252.683500       0.933400
     7253.209500       0.933800
     7253.735700       0.934400
     7254.261900       0.935000
     7254.788200       0.935700
     7255.314500       0.936500
     7255.841000       0.937500
     7256.367500       0.938600
     7256.894000       0.939800
     7257.420700       0.941100
     7257.947500       0.942500
     7258.474300       0.944100
     7259.001200       0.945800
     7259.528100       0.947500
     7260.055200       0.949400
     7260.582300       0.951300
     7261.109500       0.953400
     7261.636800       0.955500
     7262.164100       0.957600
     7262.691600       0.959800
     7263.219100       0.962100
     7263.746600       0.964400
     7264.274300       0.966800
     7264.802000       0.969100
     7265.329800       0.971500
     7265.857700       0.973900
     7266.385700       0.976400
     7266.913700       0.978800
     7267.441900       0.981200
     7267.970100       0.983600
     7268.498300       0.985900
     7269.026700       0.988200
     7269.555100       0.990300
     7270.083600       0.992400
     7270.612200       0.994200
     7271.140800       0.995900
     7271.669600       0.997300
     7272.198400       0.998400
     7272.727300       0.999300
     7273.256200       0.999800
     7273.785300       1.000000
     7274.314400       0.999800
     7274.843600       0.999200
     7275.372900       0.998100
     7275.902200       0.996500
     7276.431600       0.994500
     7276.961100       0.991900
     7277.490700       0.988700
     7278.020400       0.984900
     7278.550100       0.980500
     7279.079900       0.975500
     7279.609800       0.969900
     7280.139800       0.963700
     7280.669800       0.956900
     7281.199900       0.949600
     7281.730100       0.941800
     7282.260400       0.933500
     7282.790800       0.924700
     7283.321200       0.915500
     7283.851700       0.905800
     7284.382300       0.895700
     7284.912900       0.885100
     7285.443700       0.874200
     7285.974500       0.863000
     7286.505400       0.851400
     7287.036400       0.839400
     7287.567400       0.827200
     7288.098500       0.814700
     7288.629700       0.801900
     7289.161000       0.788800
     7289.692400       0.775600
     7290.223800       0.762100
     7290.755300       0.748400
     7291.286900       0.734700
     7291.818600       0.720700
     7292.350300       0.706700
     7292.882100       0.692600
     7293.414000       0.678500
     7293.946000       0.664300
     7294.478100       0.650100
     7295.010200       0.636000
     7295.542400       0.621800
     7296.074700       0.607800
     7296.607100       0.593900
     7297.139500       0.580000
     7297.672000       0.566300
     7298.204600       0.552800
     7298.737300       0.539500
     7299.270100       0.526400
     7299.802900       0.513500
     7300.335800       0.500900
     7300.868800       0.488500
     7301.401900       0.476300
     7301.935000       0.464400
     7302.468200       0.452600
     7303.001500       0.441100
     7303.534900       0.429800
     7304.068400       0.418700
     7304.601900       0.407800
     7305.135500       0.397100
     7305.669200       0.386600
     7306.203000       0.376300
     7306.736800       0.366200
     7307.270700       0.356200
     7307.804700       0.346500
     7308.338800       0.336900
     7308.873000       0.327400
     7309.407200       0.318200
     7309.941500       0.309100
     7310.475900       0.300100
     7311.010400       0.291300
     7311.544900       0.282700
     7312.079600       0.274200
     7312.614300       0.266000
     7313.149000       0.257800
     7313.683900       0.249900
     7314.218800       0.242200
     7314.753900       0.234600
     7315.289000       0.227300
     7315.824100       0.220100
     7316.359400       0.213100
     7316.894700       0.206400
     7317.430100       0.199800
     7317.965600       0.193500
     7318.501200       0.187400
     7319.036800       0.181500
     7319.572500       0.175800
     7320.108300       0.170400
     7320.644200       0.165200
     7321.180200       0.160200
     7321.716200       0.155500
     7322.252300       0.151000
     7322.788500       0.146700
     7323.324800       0.142500
     7323.861100       0.138600
     7324.397600       0.134900
     7324.934100       0.131300
     7325.470700       0.127900
     7326.007300       0.124600
     7326.544100       0.121500
     7327.080900       0.118500
     7327.617800       0.115600
     7328.154800       0.112900
     7328.691800       0.110200
     7329.229000       0.107600
     7329.766200       0.105000
     7330.303500       0.102600
     7330.840800       0.100200
     7331.378300       0.097800
     7331.915800       0.095500
     7332.453400       0.093200
     7332.991100       0.091000
     7333.528900       0.088700
     7334.066700       0.086600
     7334.604700       0.084400
     7335.142700       0.082300
     7335.680800       0.080200
     7336.218900       0.078200
     7336.757200       0.076200
     7337.295500       0.074200
     7337.833900       0.072300
     7338.372300       0.070400
     7338.910900       0.068600
     7339.449500       0.066800
     7339.988300       0.065000
     7340.527000       0.063300
     7341.065900       0.061600
     7341.604900       0.059900
     7342.143900       0.058300
     7342.683000       0.056700
     7343.222200       0.055200
     7343.761500       0.053700
     7344.300800       0.052200
     7344.840200       0.050800
     7345.379800       0.049500
     7345.919300       0.048100
     7346.459000       0.046800
     7346.998800       0.045600
     7347.538600       0.044300
     7348.078500       0.043200
     7348.618500       0.042000
     7349.158500       0.040900
     7349.698700       0.039800
     7350.238900       0.038800
     7350.779200       0.037800
     7351.319600       0.036800
     7351.860000       0.035900
     7352.400600       0.035000
     7352.941200       0.034100
     7353.481900       0.033300
     7354.022700       0.032500
     7354.563500       0.031700
     7355.104400       0.031000
     7355.645500       0.030300
     7356.186600       0.029600
     7356.727700       0.028900
     7357.269000       0.028300
     7357.810300       0.027700
     7358.351700       0.027100
     7358.893200       0.026500
     7359.434800       0.026000
     7359.976400       0.025400
     7360.518200       0.024900
     7361.060000       0.024400
     7361.601900       0.023900
     7362.143900       0.023400
     7362.685900       0.022900
     7363.228000       0.022500
     7363.770300       0.022000
     7364.312500       0.021500
     7364.854900       0.021100
     7365.397400       0.020600
     7365.939900       0.020200
     7366.482500       0.019700
     7367.025200       0.019300
     7367.568000       0.018900
     7368.110800       0.018500
     7368.653700       0.018000
     7369.196800       0.017600
     7369.739800       0.017200
     7370.283000       0.016800
     7370.826300       0.016400
     7371.369600       0.016100
     7371.913000       0.015700
     7372.456500       0.015300
     7373.000100       0.014900
     7373.543700       0.014600
     7374.087500       0.014200
     7374.631300       0.013900
     7375.175200       0.013600
     7375.719100       0.013200
     7376.263200       0.012900
     7376.807300       0.012600
     7377.351500       0.012300
     7377.895800       0.012000
     7378.440200       0.011700
     7378.984700       0.011500
     7379.529200       0.011200
     7380.073800       0.010900
