2, Meteor-M average filter response channel 2 (original channel 05)
Number of data points:
813
Wavenumber (cm-1)   Filter response
      805.000000       0.000000
      805.250000       0.000000
      805.500000       0.000000
      805.750000       0.000000
      806.000000       0.000252
      806.250000       0.000563
      806.500000       0.000860
      806.750000       0.001141
      807.000000       0.001402
      807.250000       0.001642
      807.500000       0.001862
      807.750000       0.002063
      808.000000       0.002246
      808.250000       0.002411
      808.500000       0.002556
      808.750000       0.002672
      809.000000       0.002766
      809.250000       0.002848
      809.500000       0.002929
      809.750000       0.003019
      810.000000       0.003105
      810.250000       0.003185
      810.500000       0.003269
      810.750000       0.003367
      811.000000       0.003490
      811.250000       0.003651
      811.500000       0.003848
      811.750000       0.004061
      812.000000       0.004268
      812.250000       0.004450
      812.500000       0.004587
      812.750000       0.004683
      813.000000       0.004757
      813.250000       0.004831
      813.500000       0.004925
      813.750000       0.005057
      814.000000       0.005225
      814.250000       0.005414
      814.500000       0.005616
      814.750000       0.005820
      815.000000       0.006015
      815.250000       0.006196
      815.500000       0.006370
      815.750000       0.006546
      816.000000       0.006734
      816.250000       0.006944
      816.500000       0.007185
      816.750000       0.007454
      817.000000       0.007742
      817.250000       0.008038
      817.500000       0.008332
      817.750000       0.008617
      818.000000       0.008897
      818.250000       0.009178
      818.500000       0.009459
      818.750000       0.009739
      819.000000       0.010019
      819.250000       0.010299
      819.500000       0.010579
      819.750000       0.010859
      820.000000       0.011138
      820.250000       0.011418
      820.500000       0.011700
      820.750000       0.011992
      821.000000       0.012285
      821.250000       0.012768
      821.500000       0.013240
      821.750000       0.013673
      822.000000       0.014060
      822.250000       0.014406
      822.500000       0.014715
      822.750000       0.014982
      823.000000       0.015232
      823.250000       0.015492
      823.500000       0.015777
      823.750000       0.016095
      824.000000       0.016441
      824.250000       0.016790
      824.500000       0.017124
      824.750000       0.017412
      825.000000       0.017668
      825.250000       0.017913
      825.500000       0.018183
      825.750000       0.018509
      826.000000       0.018909
      826.250000       0.019367
      826.500000       0.019854
      826.750000       0.020326
      827.000000       0.020761
      827.250000       0.021151
      827.500000       0.021514
      827.750000       0.021895
      828.000000       0.022331
      828.250000       0.022840
      828.500000       0.023438
      828.750000       0.024121
      829.000000       0.024860
      829.250000       0.025638
      829.500000       0.026450
      829.750000       0.027292
      830.000000       0.028154
      830.250000       0.029038
      830.500000       0.029951
      830.750000       0.030894
      831.000000       0.031866
      831.250000       0.032891
      831.500000       0.033995
      831.750000       0.035189
      832.000000       0.036481
      832.250000       0.037869
      832.500000       0.039331
      832.750000       0.040842
      833.000000       0.042400
      833.250000       0.043985
      833.500000       0.045577
      833.750000       0.047185
      834.000000       0.048802
      834.250000       0.050426
      834.500000       0.052065
      834.750000       0.053719
      835.000000       0.055396
      835.250000       0.057095
      835.500000       0.058807
      835.750000       0.060533
      836.000000       0.062259
      836.250000       0.063969
      836.500000       0.065654
      836.750000       0.067315
      837.000000       0.068947
      837.250000       0.070558
      837.500000       0.072172
      837.750000       0.073807
      838.000000       0.075473
      838.250000       0.077185
      838.500000       0.078939
      838.750000       0.080723
      839.000000       0.082538
      839.250000       0.084384
      839.500000       0.086260
      839.750000       0.088166
      840.000000       0.090102
      840.250000       0.092069
      840.500000       0.094066
      840.750000       0.096093
      841.000000       0.098150
      841.250000       0.100232
      841.500000       0.102336
      841.750000       0.104470
      842.000000       0.106641
      842.250000       0.108858
      842.500000       0.111128
      842.750000       0.113457
      843.000000       0.115837
      843.250000       0.118259
      843.500000       0.120706
      843.750000       0.123176
      844.000000       0.125665
      844.250000       0.128176
      844.500000       0.130728
      844.750000       0.133345
      845.000000       0.136043
      845.250000       0.138828
      845.500000       0.141704
      845.750000       0.144650
      846.000000       0.147650
      846.250000       0.150690
      846.500000       0.153766
      846.750000       0.156879
      847.000000       0.160024
      847.250000       0.163214
      847.500000       0.166474
      847.750000       0.169807
      848.000000       0.173226
      848.250000       0.176754
      848.500000       0.180405
      848.750000       0.184172
      849.000000       0.188045
      849.250000       0.192002
      849.500000       0.196025
      849.750000       0.200102
      850.000000       0.204249
      850.250000       0.208468
      850.500000       0.212764
      850.750000       0.217151
      851.000000       0.221614
      851.250000       0.226139
      851.500000       0.230708
      851.750000       0.235308
      852.000000       0.239934
      852.250000       0.244602
      852.500000       0.249312
      852.750000       0.254068
      853.000000       0.258874
      853.250000       0.263721
      853.500000       0.268596
      853.750000       0.273490
      854.000000       0.278403
      854.250000       0.283354
      854.500000       0.288352
      854.750000       0.293400
      855.000000       0.298507
      855.250000       0.303656
      855.500000       0.308816
      855.750000       0.313963
      856.000000       0.319081
      856.250000       0.324157
      856.500000       0.329217
      856.750000       0.334277
      857.000000       0.339345
      857.250000       0.344430
      857.500000       0.349520
      857.750000       0.354599
      858.000000       0.359645
      858.250000       0.364648
      858.500000       0.369607
      858.750000       0.374541
      859.000000       0.379462
      859.250000       0.384380
      859.500000       0.389309
      859.750000       0.394229
      860.000000       0.399117
      860.250000       0.403944
      860.500000       0.408695
      860.750000       0.413355
      861.000000       0.417930
      861.250000       0.422456
      861.500000       0.426955
      861.750000       0.431432
      862.000000       0.435935
      862.250000       0.440491
      862.500000       0.445079
      862.750000       0.449734
      863.000000       0.454473
      863.250000       0.459283
      863.500000       0.464184
      863.750000       0.469191
      864.000000       0.474301
      864.250000       0.479513
      864.500000       0.484826
      864.750000       0.490230
      865.000000       0.495711
      865.250000       0.501266
      865.500000       0.506906
      865.750000       0.512610
      866.000000       0.518368
      866.250000       0.524184
      866.500000       0.530030
      866.750000       0.535885
      867.000000       0.541744
      867.250000       0.547601
      867.500000       0.553463
      867.750000       0.559355
      868.000000       0.565279
      868.250000       0.571232
      868.500000       0.577205
      868.750000       0.583185
      869.000000       0.589166
      869.250000       0.595153
      869.500000       0.601133
      869.750000       0.607100
      870.000000       0.613059
      870.250000       0.618999
      870.500000       0.624908
      870.750000       0.630789
      871.000000       0.636634
      871.250000       0.642443
      871.500000       0.648230
      871.750000       0.653989
      872.000000       0.659720
      872.250000       0.665435
      872.500000       0.671109
      872.750000       0.676722
      873.000000       0.682267
      873.250000       0.687719
      873.500000       0.693058
      873.750000       0.698299
      874.000000       0.703441
      874.250000       0.708477
      874.500000       0.713415
      874.750000       0.718257
      875.000000       0.723003
      875.250000       0.727652
      875.500000       0.732206
      875.750000       0.736663
      876.000000       0.741016
      876.250000       0.745270
      876.500000       0.749429
      876.750000       0.753487
      877.000000       0.757455
      877.250000       0.761351
      877.500000       0.765172
      877.750000       0.768929
      878.000000       0.772649
      878.250000       0.776324
      878.500000       0.779960
      878.750000       0.783583
      879.000000       0.787208
      879.250000       0.790837
      879.500000       0.794477
      879.750000       0.798126
      880.000000       0.801767
      880.250000       0.805388
      880.500000       0.808977
      880.750000       0.812531
      881.000000       0.816051
      881.250000       0.819541
      881.500000       0.823014
      881.750000       0.826476
      882.000000       0.829934
      882.250000       0.833386
      882.500000       0.836825
      882.750000       0.840246
      883.000000       0.843642
      883.250000       0.847008
      883.500000       0.850339
      883.750000       0.853648
      884.000000       0.856934
      884.250000       0.860190
      884.500000       0.863411
      884.750000       0.866590
      885.000000       0.869721
      885.250000       0.872794
      885.500000       0.875817
      885.750000       0.878801
      886.000000       0.881764
      886.250000       0.884719
      886.500000       0.887672
      886.750000       0.890626
      887.000000       0.893568
      887.250000       0.896481
      887.500000       0.899347
      887.750000       0.902156
      888.000000       0.904903
      888.250000       0.907585
      888.500000       0.910215
      888.750000       0.912806
      889.000000       0.915370
      889.250000       0.917914
      889.500000       0.920437
      889.750000       0.922940
      890.000000       0.925419
      890.250000       0.927863
      890.500000       0.930260
      890.750000       0.932608
      891.000000       0.934903
      891.250000       0.937142
      891.500000       0.939320
      891.750000       0.941440
      892.000000       0.943509
      892.250000       0.945535
      892.500000       0.947528
      892.750000       0.949489
      893.000000       0.951417
      893.250000       0.953298
      893.500000       0.955126
      893.750000       0.956895
      894.000000       0.958604
      894.250000       0.960260
      894.500000       0.961867
      894.750000       0.963431
      895.000000       0.964959
      895.250000       0.966455
      895.500000       0.967924
      895.750000       0.969363
      896.000000       0.970765
      896.250000       0.972123
      896.500000       0.973425
      896.750000       0.974672
      897.000000       0.975862
      897.250000       0.976997
      897.500000       0.978090
      897.750000       0.979160
      898.000000       0.980226
      898.250000       0.981291
      898.500000       0.982356
      898.750000       0.983403
      899.000000       0.984414
      899.250000       0.985376
      899.500000       0.986290
      899.750000       0.987167
      900.000000       0.988008
      900.250000       0.988813
      900.500000       0.989582
      900.750000       0.990315
      901.000000       0.991010
      901.250000       0.991654
      901.500000       0.992254
      901.750000       0.992821
      902.000000       0.993366
      902.250000       0.993899
      902.500000       0.994431
      902.750000       0.994975
      903.000000       0.995528
      903.250000       0.996073
      903.500000       0.996595
      903.750000       0.997077
      904.000000       0.997503
      904.250000       0.997858
      904.500000       0.998146
      904.750000       0.998378
      905.000000       0.998565
      905.250000       0.998707
      905.500000       0.998813
      905.750000       0.998906
      906.000000       0.999001
      906.250000       0.999101
      906.500000       0.999210
      906.750000       0.999332
      907.000000       0.999455
      907.250000       0.999568
      907.500000       0.999660
      907.750000       0.999717
      908.000000       0.999741
      908.250000       0.999736
      908.500000       0.999709
      908.750000       0.999674
      909.000000       0.999646
      909.250000       0.999639
      909.500000       0.999649
      909.750000       0.999676
      910.000000       0.999721
      910.250000       0.999785
      910.500000       0.999858
      910.750000       0.999923
      911.000000       0.999973
      911.250000       1.000000
      911.500000       0.999996
      911.750000       0.999950
      912.000000       0.999866
      912.250000       0.999755
      912.500000       0.999625
      912.750000       0.999480
      913.000000       0.999334
      913.250000       0.999201
      913.500000       0.999099
      913.750000       0.999025
      914.000000       0.998970
      914.250000       0.998926
      914.500000       0.998881
      914.750000       0.998810
      915.000000       0.998689
      915.250000       0.998512
      915.500000       0.998278
      915.750000       0.997990
      916.000000       0.997653
      916.250000       0.997288
      916.500000       0.996907
      916.750000       0.996527
      917.000000       0.996149
      917.250000       0.995768
      917.500000       0.995381
      917.750000       0.994977
      918.000000       0.994545
      918.250000       0.994068
      918.500000       0.993538
      918.750000       0.992960
      919.000000       0.992332
      919.250000       0.991658
      919.500000       0.990955
      919.750000       0.990225
      920.000000       0.989468
      920.250000       0.988688
      920.500000       0.987875
      920.750000       0.987016
      921.000000       0.986095
      921.250000       0.985107
      921.500000       0.984046
      921.750000       0.982907
      922.000000       0.981701
      922.250000       0.980438
      922.500000       0.979128
      922.750000       0.977784
      923.000000       0.976408
      923.250000       0.974997
      923.500000       0.973546
      923.750000       0.972045
      924.000000       0.970479
      924.250000       0.968836
      924.500000       0.967110
      924.750000       0.965306
      925.000000       0.963422
      925.250000       0.961460
      925.500000       0.959425
      925.750000       0.957328
      926.000000       0.955178
      926.250000       0.952987
      926.500000       0.950754
      926.750000       0.948474
      927.000000       0.946136
      927.250000       0.943721
      927.500000       0.941225
      927.750000       0.938644
      928.000000       0.935988
      928.250000       0.933267
      928.500000       0.930492
      928.750000       0.927669
      929.000000       0.924800
      929.250000       0.921885
      929.500000       0.918923
      929.750000       0.915896
      930.000000       0.912802
      930.250000       0.909643
      930.500000       0.906419
      930.750000       0.903139
      931.000000       0.899812
      931.250000       0.896442
      931.500000       0.893025
      931.750000       0.889566
      932.000000       0.886076
      932.250000       0.882561
      932.500000       0.879021
      932.750000       0.875458
      933.000000       0.871865
      933.250000       0.868221
      933.500000       0.864531
      933.750000       0.860797
      934.000000       0.857021
      934.250000       0.853217
      934.500000       0.849402
      934.750000       0.845593
      935.000000       0.841795
      935.250000       0.838010
      935.500000       0.834237
      935.750000       0.830472
      936.000000       0.826698
      936.250000       0.822899
      936.500000       0.819055
      936.750000       0.815156
      937.000000       0.811205
      937.250000       0.807207
      937.500000       0.803177
      937.750000       0.799133
      938.000000       0.795094
      938.250000       0.791066
      938.500000       0.787034
      938.750000       0.783003
      939.000000       0.778982
      939.250000       0.774972
      939.500000       0.770974
      939.750000       0.766992
      940.000000       0.763028
      940.250000       0.759077
      940.500000       0.755139
      940.750000       0.751212
      941.000000       0.747297
      941.250000       0.743395
      941.500000       0.739504
      941.750000       0.735630
      942.000000       0.731795
      942.250000       0.727985
      942.500000       0.724185
      942.750000       0.720393
      943.000000       0.716601
      943.250000       0.712775
      943.500000       0.708887
      943.750000       0.704958
      944.000000       0.700970
      944.250000       0.696895
      944.500000       0.692719
      944.750000       0.688450
      945.000000       0.684078
      945.250000       0.679590
      945.500000       0.674988
      945.750000       0.670281
      946.000000       0.665479
      946.250000       0.660584
      946.500000       0.655597
      946.750000       0.650534
      947.000000       0.645409
      947.250000       0.640228
      947.500000       0.634989
      947.750000       0.629703
      948.000000       0.624374
      948.250000       0.618984
      948.500000       0.613536
      948.750000       0.608033
      949.000000       0.602473
      949.250000       0.596854
      949.500000       0.591190
      949.750000       0.585491
      950.000000       0.579754
      950.250000       0.573989
      950.500000       0.568207
      950.750000       0.562410
      951.000000       0.556582
      951.250000       0.550736
      951.500000       0.544881
      951.750000       0.539015
      952.000000       0.533140
      952.250000       0.527273
      952.500000       0.521427
      952.750000       0.515600
      953.000000       0.509797
      953.250000       0.504026
      953.500000       0.498290
      953.750000       0.492582
      954.000000       0.486898
      954.250000       0.481234
      954.500000       0.475576
      954.750000       0.469921
      955.000000       0.464272
      955.250000       0.458632
      955.500000       0.452998
      955.750000       0.447388
      956.000000       0.441820
      956.250000       0.436302
      956.500000       0.430834
      956.750000       0.425430
      957.000000       0.420106
      957.250000       0.414847
      957.500000       0.409652
      957.750000       0.404528
      958.000000       0.399479
      958.250000       0.394499
      958.500000       0.389594
      958.750000       0.384771
      959.000000       0.380037
      959.250000       0.375393
      959.500000       0.370839
      959.750000       0.366375
      960.000000       0.362004
      960.250000       0.357719
      960.500000       0.353507
      960.750000       0.349362
      961.000000       0.345298
      961.250000       0.341298
      961.500000       0.337345
      961.750000       0.333430
      962.000000       0.329554
      962.250000       0.325704
      962.500000       0.321863
      962.750000       0.318048
      963.000000       0.314263
      963.250000       0.310497
      963.500000       0.306742
      963.750000       0.303005
      964.000000       0.299276
      964.250000       0.295541
      964.500000       0.291787
      964.750000       0.288015
      965.000000       0.284220
      965.250000       0.280399
      965.500000       0.276555
      965.750000       0.272697
      966.000000       0.268834
      966.250000       0.264970
      966.500000       0.261103
      966.750000       0.257233
      967.000000       0.253367
      967.250000       0.249513
      967.500000       0.245668
      967.750000       0.241834
      968.000000       0.238016
      968.250000       0.234211
      968.500000       0.230412
      968.750000       0.226621
      969.000000       0.222842
      969.250000       0.219074
      969.500000       0.215320
      969.750000       0.211586
      970.000000       0.207880
      970.250000       0.204207
      970.500000       0.200566
      970.750000       0.196958
      971.000000       0.193383
      971.250000       0.189836
      971.500000       0.186311
      971.750000       0.182802
      972.000000       0.179296
      972.250000       0.175786
      972.500000       0.172276
      972.750000       0.168773
      973.000000       0.165289
      973.250000       0.161839
      973.500000       0.158433
      973.750000       0.155080
      974.000000       0.151777
      974.250000       0.148515
      974.500000       0.145290
      974.750000       0.142099
      975.000000       0.138934
      975.250000       0.135792
      975.500000       0.132673
      975.750000       0.129576
      976.000000       0.126500
      976.250000       0.123455
      976.500000       0.120450
      976.750000       0.117491
      977.000000       0.114576
      977.250000       0.111714
      977.500000       0.108916
      977.750000       0.106186
      978.000000       0.103522
      978.250000       0.100924
      978.500000       0.098390
      978.750000       0.095921
      979.000000       0.093509
      979.250000       0.091148
      979.500000       0.088832
      979.750000       0.086561
      980.000000       0.084334
      980.250000       0.082146
      980.500000       0.079995
      980.750000       0.077875
      981.000000       0.075791
      981.250000       0.073749
      981.500000       0.071757
      981.750000       0.069819
      982.000000       0.067943
      982.250000       0.066136
      982.500000       0.064402
      982.750000       0.062740
      983.000000       0.061143
      983.250000       0.059604
      983.500000       0.058120
      983.750000       0.056687
      984.000000       0.055294
      984.250000       0.053934
      984.500000       0.052596
      984.750000       0.051284
      985.000000       0.049999
      985.250000       0.048746
      985.500000       0.047532
      985.750000       0.046368
      986.000000       0.045259
      986.250000       0.044212
      986.500000       0.043233
      986.750000       0.042318
      987.000000       0.041456
      987.250000       0.040639
      987.500000       0.039861
      987.750000       0.039112
      988.000000       0.038379
      988.250000       0.037652
      988.500000       0.036947
      988.750000       0.036262
      989.000000       0.035590
      989.250000       0.034927
      989.500000       0.034274
      989.750000       0.033629
      990.000000       0.032989
      990.250000       0.032349
      990.500000       0.031706
      990.750000       0.031065
      991.000000       0.030432
      991.250000       0.029816
      991.500000       0.029226
      991.750000       0.028665
      992.000000       0.028137
      992.250000       0.027649
      992.500000       0.027201
      992.750000       0.026778
      993.000000       0.026366
      993.250000       0.025950
      993.500000       0.025519
      993.750000       0.025063
      994.000000       0.024574
      994.250000       0.024050
      994.500000       0.023507
      994.750000       0.022952
      995.000000       0.022396
      995.250000       0.021849
      995.500000       0.021319
      995.750000       0.020804
      996.000000       0.020306
      996.250000       0.019822
      996.500000       0.019343
      996.750000       0.018857
      997.000000       0.018352
      997.250000       0.017818
      997.500000       0.017253
      997.750000       0.016656
      998.000000       0.016028
      998.250000       0.015374
      998.500000       0.014706
      998.750000       0.014031
      999.000000       0.013360
      999.250000       0.012696
      999.500000       0.012037
      999.750000       0.011381
     1000.000000       0.010730
     1000.250000       0.010075
     1000.500000       0.009409
     1000.750000       0.008731
     1001.000000       0.008042
     1001.250000       0.007323
     1001.500000       0.006569
     1001.750000       0.005803
     1002.000000       0.005049
     1002.250000       0.004325
     1002.500000       0.003649
     1002.750000       0.003040
     1003.000000       0.002519
     1003.250000       0.002110
     1003.500000       0.001804
     1003.750000       0.001573
     1004.000000       0.001388
     1004.250000       0.001452
     1004.500000       0.001522
     1004.750000       0.001551
     1005.000000       0.001512
     1005.250000       0.001407
     1005.500000       0.001275
     1005.750000       0.001117
     1006.000000       0.000936
     1006.250000       0.000737
     1006.500000       0.000520
     1006.750000       0.000290
     1007.000000       0.000049
     1007.250000       0.000000
     1007.500000       0.000000
     1007.750000       0.000000
     1008.000000       0.000000
