   7  ,noaa_11_hirs_07.flt
Number of data points:
101
Wavenumber (cm-1)   Filter response
      719.500000       0.000000
      720.100000       0.000000
      720.700000       0.000000
      721.300000       0.000000
      721.900000       0.000000
      722.500000       0.000000
      723.100000       0.000000
      723.700000       0.000000
      724.300000       0.000000
      724.900000       0.000000
      725.500000       0.000000
      726.100000       0.000000
      726.700000       0.000000
      727.300000       0.000000
      727.900000       0.000000
      728.500000       0.000000
      729.100000       0.001901
      729.730000       0.004929
      730.330000       0.007305
      730.930000       0.009236
      731.520000       0.010126
      732.120000       0.013776
      732.720000       0.019151
      733.320000       0.028258
      733.910000       0.036316
      734.510000       0.048123
      735.100000       0.062635
      735.690000       0.084504
      736.330000       0.108560
      736.910000       0.144550
      737.490000       0.187590
      738.090000       0.242650
      738.710000       0.314830
      739.300000       0.392520
      739.890000       0.478400
      740.500000       0.566710
      741.120000       0.654800
      741.710000       0.732970
      742.320000       0.805010
      742.920000       0.855110
      743.530000       0.891430
      744.150000       0.917490
      744.750000       0.928720
      745.360000       0.935640
      745.970000       0.944210
      746.590000       0.947160
      747.200000       0.955540
      747.810000       0.965870
      748.420000       0.972400
      749.030000       0.981060
      749.620000       0.988070
      750.230000       0.996360
      750.830000       0.995550
      751.430000       1.000000
      752.040000       0.993550
      752.650000       0.992700
      753.250000       0.980430
      753.850000       0.965970
      754.460000       0.927190
      755.060000       0.895320
      755.650000       0.842590
      756.250000       0.784940
      756.850000       0.709660
      757.450000       0.631900
      758.050000       0.551050
      758.650000       0.469820
      759.250000       0.401940
      759.830000       0.329970
      760.410000       0.273160
      761.030000       0.221280
      761.600000       0.176930
      762.180000       0.143020
      762.840000       0.114130
      763.420000       0.092731
      764.010000       0.072326
      764.600000       0.061484
      765.190000       0.046595
      765.780000       0.039116
      766.380000       0.032251
      766.970000       0.024097
      767.570000       0.018139
      768.160000       0.012135
      768.760000       0.010556
      769.360000       0.010525
      769.980000       0.005878
      770.570000       0.005930
      771.170000       0.003544
      771.770000       0.001703
      772.360000       0.000523
      772.960000       0.000565
      773.550000       0.000000
      774.150000       0.000000
      774.740000       0.000000
      775.340000       0.000000
      775.930000       0.000000
      776.520000       0.000000
      777.120000       0.000000
      777.720000       0.000000
      778.310000       0.000000
      778.910000       0.000000
      779.500000       0.000000
