           4  , Jan 12th 2012 http://fy3.satellite.cma.gov.cn/ArssEn/Download/FY3A_calibration_info_params.rar
Number of data points:
530
Wavenumber (cm-1)   Filter response
      676.864700       0.000244
      676.956400       0.000973
      677.048000       0.001759
      677.139800       0.002597
      677.231500       0.003437
      677.323200       0.004289
      677.415000       0.005130
      677.506800       0.005938
      677.598600       0.006867
      677.690400       0.007391
      677.782300       0.007907
      677.874200       0.007984
      677.966100       0.007957
      678.058000       0.007584
      678.150000       0.007012
      678.242000       0.006360
      678.334000       0.005614
      678.426100       0.004967
      678.518100       0.004648
      678.610200       0.004312
      678.702300       0.004560
      678.794400       0.004807
      678.886700       0.005536
      678.978800       0.006300
      679.071000       0.007069
      679.163300       0.007836
      679.255600       0.008237
      679.347800       0.008395
      679.440100       0.008401
      679.532500       0.007840
      679.624900       0.007188
      679.717200       0.006289
      679.809600       0.005427
      679.902100       0.004889
      679.994600       0.004351
      680.087000       0.004434
      680.179600       0.004557
      680.272100       0.005100
      680.364700       0.005575
      680.457300       0.006317
      680.549900       0.007105
      680.642500       0.007768
      680.735200       0.008277
      680.827900       0.008679
      680.920600       0.008821
      681.013400       0.008956
      681.106100       0.009042
      681.198900       0.009129
      681.291700       0.009354
      681.384600       0.009542
      681.477500       0.009709
      681.570300       0.009874
      681.663300       0.009779
      681.756200       0.009562
      681.849200       0.009069
      681.942200       0.008330
      682.035200       0.007546
      682.128200       0.006691
      682.221300       0.006009
      682.314400       0.005789
      682.407500       0.005659
      682.500700       0.006561
      682.593900       0.007466
      682.687100       0.009329
      682.780300       0.011262
      682.873500       0.013379
      682.966800       0.015543
      683.060100       0.017379
      683.153400       0.019127
      683.246800       0.020285
      683.340100       0.020944
      683.433600       0.021244
      683.527000       0.020905
      683.620400       0.020449
      683.713900       0.019575
      683.807400       0.018722
      683.901000       0.018098
      683.994500       0.017475
      684.088100       0.017715
      684.181700       0.017911
      684.275300       0.018896
      684.369000       0.020071
      684.462700       0.021672
      684.556400       0.023481
      684.650100       0.025318
      684.743900       0.027177
      684.837700       0.028819
      684.931500       0.030140
      685.025400       0.031407
      685.119200       0.031910
      685.213100       0.032314
      685.307000       0.032119
      685.400900       0.031922
      685.494900       0.031453
      685.588900       0.030985
      685.683000       0.030666
      685.777000       0.030367
      685.871000       0.030292
      685.965100       0.030455
      686.059300       0.030554
      686.153400       0.030715
      686.247600       0.030925
      686.341800       0.031182
      686.436000       0.031494
      686.530300       0.031891
      686.624600       0.032369
      686.718900       0.033070
      686.813200       0.033813
      686.907500       0.035027
      687.002000       0.036056
      687.096300       0.037301
      687.190700       0.038543
      687.285200       0.039813
      687.379700       0.041082
      687.474200       0.042224
      687.568800       0.043330
      687.663300       0.044330
      687.757900       0.045276
      687.852500       0.046393
      687.947100       0.047179
      688.041800       0.047920
      688.136500       0.048602
      688.231300       0.049262
      688.326000       0.049877
      688.420800       0.050478
      688.515600       0.051033
      688.610400       0.051584
      688.705200       0.052117
      688.800100       0.052953
      688.895000       0.053597
      688.989900       0.054240
      689.084900       0.055085
      689.179900       0.055952
      689.274800       0.057038
      689.369900       0.058182
      689.465000       0.059592
      689.560100       0.061122
      689.655200       0.062957
      689.750300       0.065397
      689.845500       0.067743
      689.940700       0.070394
      690.035900       0.073228
      690.131200       0.076365
      690.226400       0.079572
      690.321700       0.082973
      690.417000       0.086352
      690.512300       0.089659
      690.607700       0.092919
      690.703100       0.096014
      690.798600       0.099060
      690.894000       0.101904
      690.989500       0.104740
      691.085000       0.107579
      691.180500       0.110414
      691.276100       0.113430
      691.371700       0.116490
      691.467300       0.119700
      691.562900       0.122971
      691.658600       0.126348
      691.754300       0.129791
      691.850000       0.133305
      691.945700       0.136886
      692.041500       0.140583
      692.137300       0.144435
      692.233200       0.148432
      692.329000       0.152709
      692.424900       0.157053
      692.520800       0.161599
      692.616700       0.166070
      692.712600       0.170590
      692.808700       0.175072
      692.904700       0.179262
      693.000700       0.183444
      693.096700       0.187554
      693.192900       0.191656
      693.289000       0.196239
      693.385100       0.200851
      693.481300       0.206400
      693.577500       0.211928
      693.673700       0.218676
      693.770000       0.225729
      693.866200       0.233432
      693.962500       0.241415
      694.058800       0.249607
      694.155200       0.257925
      694.251600       0.266102
      694.348000       0.274154
      694.444500       0.282178
      694.540900       0.289667
      694.637400       0.297485
      694.733900       0.305203
      694.830400       0.312994
      694.927000       0.320947
      695.023700       0.329063
      695.120300       0.337697
      695.216900       0.346481
      695.313600       0.355998
      695.410300       0.365599
      695.507000       0.375343
      695.603800       0.385688
      695.700600       0.396665
      695.797400       0.407643
      695.894200       0.419129
      695.991100       0.430622
      696.088000       0.442605
      696.184900       0.454635
      696.281900       0.466994
      696.378800       0.479414
      696.475800       0.491067
      696.572900       0.503606
      696.669900       0.516016
      696.767000       0.528370
      696.864100       0.540591
      696.961200       0.552737
      697.058400       0.564927
      697.155600       0.577135
      697.252800       0.589560
      697.350000       0.602164
      697.447300       0.614007
      697.544600       0.627098
      697.642000       0.640314
      697.739300       0.653684
      697.836700       0.666970
      697.934100       0.680128
      698.031600       0.693056
      698.129000       0.705525
      698.226500       0.717732
      698.324000       0.729734
      698.421600       0.740485
      698.519200       0.751594
      698.616800       0.762581
      698.714400       0.772993
      698.812000       0.783320
      698.909700       0.793078
      699.007400       0.802787
      699.105200       0.811993
      699.202900       0.821181
      699.300700       0.830082
      699.398500       0.776894
      699.496400       0.792830
      699.594200       0.808926
      699.692100       0.825152
      699.790000       0.841535
      699.888000       0.857487
      699.986000       0.873523
      700.084000       0.888738
      700.182100       0.903914
      700.280200       0.918276
      700.378200       0.932387
      700.476300       0.936737
      700.574500       0.940945
      700.672600       0.945085
      700.770800       0.949197
      700.869100       0.953098
      700.967300       0.956905
      701.065600       0.960302
      701.163900       0.963490
      701.262300       0.966110
      701.360600       0.978436
      701.459000       0.980272
      701.557500       0.981799
      701.655900       0.982939
      701.754400       0.983784
      701.852900       0.984225
      701.951400       0.984317
      702.050000       0.984020
      702.148600       0.983984
      702.247200       0.983996
      702.345800       0.994090
      702.444500       0.993563
      702.543200       0.992856
      702.641900       0.992133
      702.740700       0.991390
      702.839500       0.990720
      702.938300       0.990162
      703.037100       0.989726
      703.136000       0.989501
      703.234900       0.989351
      703.333800       1.000000
      703.432800       0.999967
      703.531700       0.999897
      703.630700       0.999588
      703.729700       0.998753
      703.828800       0.997527
      703.927900       0.995353
      704.027000       0.992779
      704.126200       0.989146
      704.225300       0.985230
      704.324600       0.991163
      704.423800       0.986311
      704.523000       0.981247
      704.622300       0.976246
      704.721700       0.971465
      704.821000       0.966815
      704.920300       0.962671
      705.019700       0.958600
      705.119100       0.954827
      705.218600       0.951006
      705.318100       0.957353
      705.417600       0.953131
      705.517200       0.948134
      705.616700       0.942879
      705.716300       0.936349
      705.815900       0.929565
      705.915500       0.921440
      706.015300       0.913884
      706.115000       0.905540
      706.214700       0.897086
      706.314500       0.897816
      706.414200       0.888673
      706.514000       0.879386
      706.613900       0.870091
      706.713800       0.860845
      706.813700       0.851576
      706.913600       0.842235
      707.013500       0.832829
      707.113500       0.823115
      707.213600       0.813302
      707.313700       0.811800
      707.413700       0.801223
      707.513800       0.790006
      707.614000       0.778676
      707.714100       0.766757
      707.814300       0.754734
      707.914500       0.742217
      708.014800       0.729592
      708.115000       0.716470
      708.215300       0.703262
      708.315600       0.697302
      708.416000       0.683467
      708.516400       0.669342
      708.616800       0.655168
      708.717200       0.640844
      708.817700       0.626526
      708.918200       0.612306
      709.018700       0.598148
      709.119300       0.584363
      709.219800       0.570721
      709.320500       0.600736
      709.421100       0.582510
      709.521800       0.565325
      709.622500       0.548502
      709.723200       0.532529
      709.824000       0.516525
      709.924700       0.500004
      710.025600       0.483568
      710.126400       0.466981
      710.227300       0.450456
      710.328200       0.433982
      710.429100       0.422035
      710.530000       0.410094
      710.631000       0.398426
      710.732100       0.387395
      710.833100       0.376780
      710.934100       0.367030
      711.035300       0.357615
      711.136400       0.348838
      711.237500       0.340176
      711.338700       0.328331
      711.439900       0.319936
      711.541200       0.311487
      711.642500       0.302994
      711.743800       0.294446
      711.845100       0.285981
      711.946500       0.277625
      712.047900       0.269488
      712.149300       0.261607
      712.250700       0.253969
      712.352200       0.244002
      712.453700       0.236895
      712.555200       0.229967
      712.656800       0.223133
      712.758400       0.216365
      712.860000       0.209790
      712.961700       0.203343
      713.063300       0.197326
      713.165000       0.191568
      713.266700       0.186516
      713.368500       0.179891
      713.470300       0.176082
      713.572100       0.172635
      713.674000       0.169644
      713.775900       0.166637
      713.877700       0.163508
      713.979700       0.160341
      714.081700       0.156468
      714.183700       0.152423
      714.285700       0.147505
      714.387800       0.140867
      714.489900       0.135407
      714.591900       0.129888
      714.694200       0.124581
      714.796300       0.119297
      714.898500       0.114899
      715.000700       0.110545
      715.103000       0.107330
      715.205300       0.104165
      715.307600       0.101909
      715.410000       0.098595
      715.512300       0.096777
      715.614700       0.094925
      715.717200       0.092869
      715.819600       0.090717
      715.922100       0.088159
      716.024700       0.085523
      716.127200       0.082642
      716.229800       0.079835
      716.332400       0.077203
      716.435000       0.073959
      716.537700       0.071980
      716.640400       0.070212
      716.743200       0.068767
      716.845900       0.067368
      716.948700       0.066025
      717.051500       0.064554
      717.154300       0.062954
      717.257200       0.061235
      717.360100       0.059423
      717.463100       0.057097
      717.566000       0.055535
      717.669000       0.054393
      717.772000       0.053434
      717.875100       0.052769
      717.978100       0.052213
      718.081300       0.051459
      718.184400       0.050651
      718.287600       0.049127
      718.390800       0.047474
      718.494000       0.044500
      718.597300       0.041956
      718.700600       0.039283
      718.804000       0.036631
      718.907300       0.034686
      719.010600       0.032857
      719.114100       0.032052
      719.217500       0.031390
      719.320900       0.031436
      719.424500       0.031548
      719.528000       0.031824
      719.631500       0.032079
      719.735100       0.032252
      719.838700       0.032332
      719.942400       0.032259
      720.046100       0.032092
      720.149800       0.031808
      720.253500       0.031378
      720.357300       0.030812
      720.461100       0.030182
      720.564900       0.029506
      720.668800       0.028851
      720.772700       0.028208
      720.876600       0.027707
      720.980500       0.027256
      721.084500       0.026923
      721.188500       0.026617
      721.292500       0.026279
      721.396600       0.025939
      721.500700       0.025423
      721.604900       0.024894
      721.709000       0.024171
      721.813200       0.023430
      721.917400       0.022559
      722.021700       0.021700
      722.126000       0.020883
      722.230300       0.020095
      722.334600       0.019378
      722.439000       0.018701
      722.543300       0.018090
      722.647800       0.017483
      722.752200       0.016876
      722.856800       0.016228
      722.961200       0.015546
      723.065800       0.014863
      723.170300       0.014179
      723.275000       0.013603
      723.379600       0.013070
      723.484300       0.012813
      723.589000       0.012622
      723.693700       0.012768
      723.798500       0.012950
      723.903300       0.013539
      724.008100       0.014150
      724.112900       0.014949
      724.217900       0.015743
      724.322800       0.016509
      724.427700       0.017198
      724.532700       0.017671
      724.637700       0.017975
      724.742700       0.017984
      724.847800       0.017731
      724.952900       0.017171
      725.058000       0.016299
      725.163100       0.015173
      725.268400       0.013737
      725.373500       0.012132
      725.478800       0.010370
      725.584100       0.008556
      725.689400       0.006992
      725.794700       0.005477
      725.900100       0.004800
      726.005500       0.004225
      726.111000       0.004702
      726.216400       0.005280
      726.321900       0.006409
      726.427400       0.007498
      726.533000       0.008477
      726.638500       0.009188
      726.744200       0.009439
      726.849800       0.009405
      726.955500       0.009042
      727.061200       0.008664
      727.167000       0.008273
      727.272700       0.008267
      727.378500       0.008436
      727.484300       0.009073
      727.590200       0.009829
      727.696100       0.010748
      727.802100       0.011675
      727.908000       0.012265
      728.014000       0.012750
      728.120000       0.012598
      728.226000       0.012261
      728.332200       0.011354
      728.438200       0.010242
      728.544400       0.008769
      728.650500       0.007165
      728.756700       0.005416
      728.863000       0.003677
      728.969200       0.001947
      729.075600       0.000497
