45,   45, MVIRI VIS channel from srf_MET2_1987258_1987259_1801-Release_S10EL_10.dat
Number of data points:
730
Wavenumber (cm-1)   Filter response
     8916.629500       0.000000
     8924.587200       0.000000
     8932.559200       0.000002
     8940.545400       0.000011
     8948.545900       0.000032
     8956.560700       0.000069
     8964.589900       0.000127
     8972.633500       0.000209
     8980.691500       0.000319
     8988.764000       0.000462
     8996.851100       0.000642
     9004.952700       0.000861
     9013.068900       0.001123
     9021.199800       0.001431
     9029.345400       0.001789
     9037.505600       0.002198
     9045.680700       0.002663
     9053.870500       0.003185
     9062.075200       0.003767
     9070.294800       0.004412
     9078.529300       0.005122
     9086.778700       0.005898
     9095.043200       0.006743
     9103.322700       0.007659
     9111.617300       0.008647
     9119.927000       0.009709
     9128.251900       0.010846
     9136.592100       0.012061
     9144.947400       0.013354
     9153.318100       0.014726
     9161.704100       0.016179
     9170.105500       0.017713
     9178.522300       0.019330
     9186.954500       0.021030
     9195.402300       0.022815
     9203.865600       0.024683
     9212.344500       0.026637
     9220.839100       0.028677
     9229.349300       0.030803
     9237.875300       0.033015
     9246.417000       0.035314
     9254.974500       0.037700
     9263.547900       0.040172
     9272.137200       0.042731
     9280.742500       0.045378
     9289.363700       0.048110
     9298.000900       0.050930
     9306.654300       0.053836
     9315.323700       0.056828
     9324.009300       0.059905
     9332.711200       0.063068
     9341.429200       0.066316
     9350.163600       0.069648
     9358.914400       0.073063
     9367.681500       0.076562
     9376.465100       0.080143
     9385.265100       0.083806
     9394.081700       0.087550
     9402.914900       0.091373
     9411.764700       0.095277
     9420.631200       0.099259
     9429.514400       0.103318
     9438.414300       0.107455
     9447.331100       0.111666
     9456.264800       0.115953
     9465.215300       0.120313
     9474.182900       0.124746
     9483.167400       0.129250
     9492.169000       0.133824
     9501.187600       0.138468
     9510.223500       0.143180
     9519.276500       0.147958
     9528.346800       0.152803
     9537.434400       0.157712
     9546.539400       0.162683
     9555.661700       0.167717
     9564.801500       0.172811
     9573.958800       0.177964
     9583.133700       0.183176
     9592.326100       0.188443
     9601.536200       0.193767
     9610.764100       0.199143
     9620.009600       0.204573
     9629.273000       0.210054
     9638.554200       0.215584
     9647.853400       0.221163
     9657.170400       0.226788
     9666.505600       0.232459
     9675.858700       0.238175
     9685.230000       0.243932
     9694.619500       0.249731
     9704.027200       0.255570
     9713.453100       0.261447
     9722.897400       0.267362
     9732.360100       0.273311
     9741.841200       0.279295
     9751.340800       0.285310
     9760.859000       0.291358
     9770.395700       0.297436
     9779.951100       0.303541
     9789.525200       0.309674
     9799.118100       0.315832
     9808.729800       0.322013
     9818.360300       0.328218
     9828.009800       0.334444
     9837.678300       0.340690
     9847.365800       0.346954
     9857.072400       0.353235
     9866.798200       0.359532
     9876.543200       0.365843
     9886.307500       0.372167
     9896.091000       0.378503
     9905.894000       0.384849
     9915.716400       0.391204
     9925.558300       0.397566
     9935.419800       0.403935
     9945.300800       0.410309
     9955.201600       0.416686
     9965.122100       0.423066
     9975.062300       0.429447
     9985.022500       0.435828
     9995.002500       0.442207
    10005.002500       0.448584
    10015.022500       0.454957
    10025.062700       0.461325
    10035.122900       0.467686
    10045.203400       0.474041
    10055.304200       0.480387
    10065.425300       0.486723
    10075.566800       0.493048
    10085.728700       0.499361
    10095.911200       0.505661
    10106.114200       0.511947
    10116.337900       0.518218
    10126.582300       0.524472
    10136.847400       0.530709
    10147.133400       0.536928
    10157.440300       0.543128
    10167.768200       0.549307
    10178.117000       0.555464
    10188.487000       0.561599
    10198.878100       0.567712
    10209.290500       0.573800
    10219.724100       0.579862
    10230.179000       0.585899
    10240.655400       0.591909
    10251.153300       0.597891
    10261.672700       0.603845
    10272.213700       0.609769
    10282.776300       0.615662
    10293.360800       0.621526
    10303.967000       0.627356
    10314.595200       0.633155
    10325.245200       0.638920
    10335.917300       0.644651
    10346.611500       0.650347
    10357.327800       0.656008
    10368.066400       0.661632
    10378.827200       0.667220
    10389.610400       0.672770
    10400.416000       0.678282
    10411.244100       0.683755
    10422.094800       0.689189
    10432.968200       0.694583
    10443.864200       0.699937
    10454.783100       0.705250
    10465.724800       0.710521
    10476.689400       0.715750
    10487.677000       0.720936
    10498.687700       0.726080
    10509.721500       0.731179
    10520.778500       0.736235
    10531.858900       0.741246
    10542.962600       0.746213
    10554.089700       0.751134
    10565.240400       0.756009
    10576.414600       0.760839
    10587.612500       0.765622
    10598.834100       0.770358
    10610.079600       0.775048
    10621.348900       0.779689
    10632.642200       0.784284
    10643.959600       0.788830
    10655.301000       0.793328
    10666.666700       0.797777
    10678.056600       0.802178
    10689.470900       0.806529
    10700.909600       0.810832
    10712.372800       0.815085
    10723.860600       0.819288
    10735.373100       0.823441
    10746.910300       0.827545
    10758.472300       0.831598
    10770.059200       0.835601
    10781.671200       0.839554
    10793.308100       0.843456
    10804.970300       0.847308
    10816.657700       0.851108
    10828.370300       0.854858
    10840.108400       0.858558
    10851.871900       0.862206
    10863.661100       0.865803
    10875.475800       0.869349
    10887.316300       0.872845
    10899.182600       0.876289
    10911.074700       0.879682
    10922.992900       0.883024
    10934.937100       0.886316
    10946.907500       0.889556
    10958.904100       0.892745
    10970.927000       0.895884
    10982.976400       0.898971
    10995.052200       0.902008
    11007.154700       0.904994
    11019.283700       0.907929
    11031.439600       0.910815
    11043.622300       0.913649
    11055.832000       0.916433
    11068.068600       0.919168
    11080.332400       0.921852
    11092.623400       0.924486
    11104.941700       0.927071
    11117.287400       0.929606
    11129.660500       0.932091
    11142.061300       0.934527
    11154.489700       0.936914
    11166.945800       0.939253
    11179.429800       0.941542
    11191.941800       0.943783
    11204.481800       0.945976
    11217.049900       0.948120
    11229.646300       0.950217
    11242.270900       0.952266
    11254.924000       0.954267
    11267.605600       0.956222
    11280.315800       0.958129
    11293.054800       0.959990
    11305.822500       0.961804
    11318.619100       0.963571
    11331.444800       0.965293
    11344.299500       0.966969
    11357.183400       0.968600
    11370.096600       0.970185
    11383.039300       0.971726
    11396.011400       0.973222
    11409.013100       0.974673
    11422.044500       0.976080
    11435.105800       0.977444
    11448.196900       0.978764
    11461.318100       0.980041
    11474.469300       0.981275
    11487.650800       0.982467
    11500.862600       0.983616
    11514.104800       0.984723
    11527.377500       0.985788
    11540.680900       0.986812
    11554.015000       0.987795
    11567.380000       0.988738
    11580.775900       0.989639
    11594.202900       0.990501
    11607.661100       0.991323
    11621.150500       0.992106
    11634.671300       0.992849
    11648.223600       0.993554
    11661.807600       0.994220
    11675.423200       0.994847
    11689.070700       0.995437
    11702.750100       0.995990
    11716.461600       0.996505
    11730.205300       0.996984
    11743.981200       0.997426
    11757.789500       0.997831
    11771.630400       0.998201
    11785.503800       0.998536
    11799.410000       0.998835
    11813.349100       0.999099
    11827.321100       0.999329
    11841.326200       0.999524
    11855.364600       0.999686
    11869.436200       0.999814
    11883.541300       0.999909
    11897.680000       0.999971
    11911.852300       1.000000
    11926.058400       0.999997
    11940.298500       0.999962
    11954.572600       0.999896
    11968.880900       0.999798
    11983.223500       0.999669
    11997.600500       0.999510
    12012.012000       0.999320
    12026.458200       0.999100
    12040.939200       0.998851
    12055.455100       0.998572
    12070.006000       0.998264
    12084.592100       0.997928
    12099.213600       0.997562
    12113.870400       0.997169
    12128.562800       0.996748
    12143.290800       0.996299
    12158.054700       0.995823
    12172.854500       0.995320
    12187.690400       0.994791
    12202.562500       0.994235
    12217.471000       0.993653
    12232.415900       0.993045
    12247.397400       0.992411
    12262.415700       0.991753
    12277.470800       0.991069
    12292.563000       0.990361
    12307.692300       0.989628
    12322.858900       0.988872
    12338.062900       0.988091
    12353.304500       0.987287
    12368.583800       0.986459
    12383.900900       0.985609
    12399.256000       0.984735
    12414.649300       0.983839
    12430.080800       0.982921
    12445.550700       0.981981
    12461.059200       0.981019
    12476.606400       0.980035
    12492.192400       0.979031
    12507.817400       0.978005
    12523.481500       0.976958
    12539.185000       0.975890
    12554.927800       0.974803
    12570.710200       0.973695
    12586.532400       0.972567
    12602.394500       0.971419
    12618.296500       0.970252
    12634.238800       0.969066
    12650.221400       0.967861
    12666.244500       0.966637
    12682.308200       0.965394
    12698.412700       0.964133
    12714.558200       0.962853
    12730.744700       0.961556
    12746.972600       0.960240
    12763.241900       0.958907
    12779.552700       0.957557
    12795.905300       0.956189
    12812.299800       0.954804
    12828.736400       0.953403
    12845.215200       0.951984
    12861.736300       0.950549
    12878.300100       0.949098
    12894.906500       0.947630
    12911.555800       0.946146
    12928.248200       0.944647
    12944.983800       0.943131
    12961.762800       0.941600
    12978.585300       0.940054
    12995.451600       0.938492
    13012.361700       0.936915
    13029.316000       0.935324
    13046.314400       0.933717
    13063.357300       0.932096
    13080.444700       0.930460
    13097.576900       0.928809
    13114.754100       0.927145
    13131.976400       0.925466
    13149.243900       0.923773
    13166.556900       0.922067
    13183.915600       0.920346
    13201.320100       0.918612
    13218.770700       0.916864
    13236.267400       0.915103
    13253.810500       0.913329
    13271.400100       0.911541
    13289.036500       0.909741
    13306.719900       0.907927
    13324.450400       0.906100
    13342.228200       0.904261
    13360.053400       0.902409
    13377.926400       0.900544
    13395.847300       0.898667
    13413.816200       0.896778
    13431.833400       0.894876
    13449.899100       0.892963
    13468.013500       0.891037
    13486.176700       0.889099
    13504.388900       0.887149
    13522.650400       0.885187
    13540.961400       0.883214
    13559.322000       0.881229
    13577.732500       0.879232
    13596.193100       0.877224
    13614.703900       0.875204
    13633.265200       0.873173
    13651.877100       0.871131
    13670.540000       0.869078
    13689.253900       0.867013
    13708.019200       0.864938
    13726.836000       0.862851
    13745.704500       0.860754
    13764.624900       0.858645
    13783.597500       0.856526
    13802.622500       0.854397
    13821.700100       0.852257
    13840.830400       0.850106
    13860.013900       0.847945
    13879.250500       0.845773
    13898.540700       0.843591
    13917.884500       0.841399
    13937.282200       0.839196
    13956.734100       0.836983
    13976.240400       0.834760
    13995.801300       0.832528
    14015.417000       0.830285
    14035.087700       0.828032
    14054.813800       0.825770
    14074.595400       0.823497
    14094.432700       0.821216
    14114.326000       0.818924
    14134.275600       0.816623
    14154.281700       0.814312
    14174.344400       0.811992
    14194.464200       0.809662
    14214.641100       0.807323
    14234.875400       0.804975
    14255.167500       0.802617
    14275.517500       0.800251
    14295.925700       0.797875
    14316.392300       0.795491
    14336.917600       0.793097
    14357.501800       0.790694
    14378.145200       0.788283
    14398.848100       0.785863
    14419.610700       0.783434
    14440.433200       0.780997
    14461.316000       0.778551
    14482.259200       0.776096
    14503.263200       0.773634
    14524.328200       0.771162
    14545.454500       0.768683
    14566.642400       0.766195
    14587.892000       0.763699
    14609.203800       0.761195
    14630.577900       0.758684
    14652.014700       0.756164
    14673.514300       0.753636
    14695.077100       0.751101
    14716.703500       0.748558
    14738.393500       0.746007
    14760.147600       0.743449
    14781.966000       0.740884
    14803.849000       0.738310
    14825.796900       0.735730
    14847.809900       0.733143
    14869.888500       0.730548
    14892.032800       0.727947
    14914.243100       0.725338
    14936.519800       0.722723
    14958.863100       0.720101
    14981.273400       0.717472
    15003.750900       0.714837
    15026.296000       0.712195
    15048.909000       0.709547
    15071.590100       0.706893
    15094.339600       0.704232
    15117.158000       0.701565
    15140.045400       0.698893
    15163.002300       0.696214
    15186.028900       0.693530
    15209.125500       0.690840
    15232.292500       0.688144
    15255.530100       0.685443
    15278.838800       0.682737
    15302.218800       0.680026
    15325.670500       0.677309
    15349.194200       0.674587
    15372.790200       0.671860
    15396.458800       0.669129
    15420.200500       0.666393
    15444.015400       0.663652
    15467.904100       0.660907
    15491.866800       0.658158
    15515.903800       0.655404
    15540.015500       0.652646
    15564.202300       0.649885
    15588.464500       0.647119
    15612.802500       0.644350
    15637.216600       0.641577
    15661.707100       0.638801
    15686.274500       0.636021
    15710.919100       0.633239
    15735.641200       0.630453
    15760.441300       0.627664
    15785.319700       0.624873
    15810.276700       0.622079
    15835.312700       0.619282
    15860.428200       0.616483
    15885.623500       0.613682
    15910.899000       0.610879
    15936.255000       0.608073
    15961.691900       0.605266
    15987.210200       0.602458
    16012.810200       0.599647
    16038.492400       0.596836
    16064.257000       0.594023
    16090.104600       0.591209
    16116.035500       0.588394
    16142.050000       0.585578
    16168.148700       0.582761
    16194.332000       0.579944
    16220.600200       0.577127
    16246.953700       0.574309
    16273.393000       0.571491
    16299.918500       0.568674
    16326.530600       0.565856
    16353.229800       0.563039
    16380.016400       0.560223
    16406.890900       0.557407
    16433.853700       0.554592
    16460.905300       0.551778
    16488.046200       0.548965
    16515.276600       0.546153
    16542.597200       0.543343
    16570.008300       0.540534
    16597.510400       0.537727
    16625.103900       0.534922
    16652.789300       0.532119
    16680.567100       0.529318
    16708.437800       0.526519
    16736.401700       0.523723
    16764.459300       0.520929
    16792.611300       0.518138
    16820.857900       0.515350
    16849.199700       0.512565
    16877.637100       0.509783
    16906.170800       0.507005
    16934.801000       0.504230
    16963.528400       0.501459
    16992.353400       0.498691
    17021.276600       0.495927
    17050.298400       0.493167
    17079.419300       0.490412
    17108.639900       0.487660
    17137.960600       0.484914
    17167.382000       0.482171
    17196.904600       0.479434
    17226.528900       0.476701
    17256.255400       0.473973
    17286.084700       0.471250
    17316.017300       0.468532
    17346.053800       0.465820
    17376.194600       0.463113
    17406.440400       0.460412
    17436.791600       0.457717
    17467.248900       0.455027
    17497.812800       0.452343
    17528.483800       0.449665
    17559.262500       0.446994
    17590.149500       0.444328
    17621.145400       0.441669
    17652.250700       0.439016
    17683.466000       0.436370
    17714.791900       0.433731
    17746.228900       0.431098
    17777.777800       0.428472
    17809.439000       0.425853
    17841.213200       0.423241
    17873.101000       0.420636
    17905.103000       0.418038
    17937.219700       0.415448
    17969.451900       0.412865
    18001.800200       0.410289
    18034.265100       0.407720
    18066.847300       0.405160
    18099.547500       0.402606
    18132.366300       0.400061
    18165.304300       0.397523
    18198.362100       0.394993
    18231.540600       0.392470
    18264.840200       0.389956
    18298.261700       0.387449
    18331.805700       0.384951
    18365.472900       0.382460
    18399.264000       0.379977
    18433.179700       0.377502
    18467.220700       0.375036
    18501.387600       0.372577
    18535.681200       0.370126
    18570.102100       0.367684
    18604.651200       0.365249
    18639.329000       0.362823
    18674.136300       0.360405
    18709.073900       0.357995
    18744.142500       0.355593
    18779.342700       0.353199
    18814.675400       0.350812
    18850.141400       0.348434
    18885.741300       0.346064
    18921.475900       0.343702
    18957.346000       0.341348
    18993.352300       0.339002
    19029.495700       0.336664
    19065.776900       0.334333
    19102.196800       0.332011
    19138.756000       0.329695
    19175.455400       0.327388
    19212.295900       0.325088
    19249.278200       0.322796
    19286.403100       0.320511
    19323.671500       0.318233
    19361.084200       0.315963
    19398.642100       0.313700
    19436.346000       0.311444
    19474.196700       0.309195
    19512.195100       0.306952
    19550.342100       0.304717
    19588.638600       0.302489
    19627.085400       0.300267
    19665.683400       0.298051
    19704.433500       0.295842
    19743.336600       0.293639
    19782.393700       0.291442
    19821.605600       0.289251
    19860.973200       0.287066
    19900.497500       0.284886
    19940.179500       0.282712
    19980.020000       0.280544
    20020.020000       0.278381
    20060.180500       0.276222
    20100.502500       0.274069
    20140.986900       0.271921
    20181.634700       0.269777
    20222.446900       0.267638
    20263.424500       0.265502
    20304.568500       0.263371
    20345.880000       0.261244
    20387.359800       0.259121
    20429.009200       0.257001
    20470.829100       0.254884
    20512.820500       0.252771
    20554.984600       0.250661
    20597.322300       0.248553
    20639.834900       0.246448
    20682.523300       0.244345
    20725.388600       0.242245
    20768.432000       0.240146
    20811.654500       0.238049
    20855.057400       0.235954
    20898.641600       0.233860
    20942.408400       0.231767
    20986.358900       0.229675
    21030.494200       0.227584
    21074.815600       0.225493
    21119.324200       0.223403
    21164.021200       0.221312
    21208.907700       0.219221
    21253.985100       0.217130
    21299.254500       0.215038
    21344.717200       0.212946
    21390.374300       0.210852
    21436.227200       0.208757
    21482.277100       0.206660
    21528.525300       0.204562
    21574.973000       0.202461
    21621.621600       0.200359
    21668.472400       0.198254
    21715.526600       0.196147
    21762.785600       0.194036
    21810.250800       0.191923
    21857.923500       0.189806
    21905.805000       0.187686
    21953.896800       0.185562
    22002.200200       0.183435
    22050.716600       0.181303
    22099.447500       0.179167
    22148.394200       0.177026
    22197.558300       0.174881
    22246.941000       0.172731
    22296.544000       0.170576
    22346.368700       0.168416
    22396.416600       0.166250
    22446.689100       0.164079
    22497.187900       0.161903
    22547.914300       0.159720
    22598.870100       0.157531
    22650.056600       0.155337
    22701.475600       0.153136
    22753.128600       0.150928
    22805.017100       0.148714
    22857.142900       0.146494
    22909.507400       0.144267
    22962.112500       0.142033
    23014.959700       0.139792
    23068.050700       0.137544
    23121.387300       0.135289
    23174.971000       0.133027
    23228.803700       0.130758
    23282.887100       0.128481
    23337.222900       0.126198
    23391.812900       0.123907
    23446.658900       0.121609
    23501.762600       0.119304
    23557.126000       0.116991
    23612.750900       0.114672
    23668.639100       0.112345
    23724.792400       0.110011
    23781.212800       0.107671
    23837.902300       0.105323
    23894.862600       0.102969
    23952.095800       0.100609
    24009.603800       0.098241
    24067.388700       0.095868
    24125.452400       0.093488
    24183.796900       0.091103
    24242.424200       0.088712
    24301.336600       0.086315
    24360.535900       0.083913
    24420.024400       0.081506
    24479.804200       0.079095
    24539.877300       0.076679
    24600.246000       0.074259
    24660.912500       0.071835
    24721.878900       0.069408
    24783.147500       0.066979
    24844.720500       0.064547
    24906.600200       0.062112
    24968.789000       0.059677
    25031.289100       0.057240
    25094.102900       0.054803
    25157.232700       0.052366
    25220.681000       0.049929
    25284.450100       0.047494
    25348.542500       0.045060
    25412.960600       0.042629
    25477.707000       0.040201
