12,    channel 12 SRF extracted from SRF_FY4B_AGRI.zip (FY4B_AGRI_SRF_CH12_Pub.txt)
Number of data points:
2749
Wavenumber (cm-1)   Filter response
     1075.037600       0.000500
     1075.095400       0.000500
     1075.153200       0.000300
     1075.211000       0.000100
     1075.268800       0.000000
     1075.326600       0.000100
     1075.384400       0.000200
     1075.442300       0.000400
     1075.500100       0.000700
     1075.557900       0.001000
     1075.615800       0.001300
     1075.673600       0.001500
     1075.731500       0.001400
     1075.789400       0.001300
     1075.847200       0.000900
     1075.905100       0.000500
     1075.963000       0.000200
     1076.020900       0.000300
     1076.078800       0.000600
     1076.136700       0.000800
     1076.194600       0.000900
     1076.252500       0.000800
     1076.310400       0.000500
     1076.368300       0.000200
     1076.426300       0.000000
     1076.484200       0.000100
     1076.542100       0.000300
     1076.600100       0.000600
     1076.658100       0.001000
     1076.716000       0.001200
     1076.774000       0.001400
     1076.832000       0.001600
     1076.889900       0.001800
     1076.947900       0.002100
     1077.005900       0.002400
     1077.063900       0.002700
     1077.121900       0.003000
     1077.179900       0.003100
     1077.238000       0.003200
     1077.296000       0.003100
     1077.354000       0.002600
     1077.412100       0.002000
     1077.470100       0.001300
     1077.528200       0.000800
     1077.586200       0.000500
     1077.644300       0.000600
     1077.702300       0.001000
     1077.760400       0.001500
     1077.818500       0.001900
     1077.876600       0.002000
     1077.934700       0.001900
     1077.992800       0.001500
     1078.050900       0.001100
     1078.109000       0.000900
     1078.167100       0.000500
     1078.225200       0.000200
     1078.283400       0.000000
     1078.341500       0.000300
     1078.399700       0.000700
     1078.457800       0.001200
     1078.516000       0.001500
     1078.574100       0.001500
     1078.632300       0.001400
     1078.690500       0.001100
     1078.748700       0.000800
     1078.806800       0.000500
     1078.865000       0.000300
     1078.923200       0.000100
     1078.981400       0.000100
     1079.039700       0.000200
     1079.097900       0.000500
     1079.156100       0.000800
     1079.214300       0.000900
     1079.272600       0.001200
     1079.330800       0.001400
     1079.389100       0.001600
     1079.447300       0.001800
     1079.505600       0.002300
     1079.563900       0.002700
     1079.622100       0.003000
     1079.680400       0.003000
     1079.738700       0.002600
     1079.797000       0.001900
     1079.855300       0.001100
     1079.913600       0.000400
     1079.971900       0.000000
     1080.030200       0.000000
     1080.088600       0.000000
     1080.146900       0.000000
     1080.205200       0.001000
     1080.263600       0.002100
     1080.321900       0.003000
     1080.380300       0.003400
     1080.438700       0.003000
     1080.497000       0.002000
     1080.555400       0.000900
     1080.613800       0.000000
     1080.672200       0.000100
     1080.730600       0.000300
     1080.789000       0.000400
     1080.847400       0.000400
     1080.905800       0.000600
     1080.964200       0.000700
     1081.022600       0.000700
     1081.081100       0.000700
     1081.139500       0.000900
     1081.198000       0.001200
     1081.256400       0.001500
     1081.314900       0.002000
     1081.373300       0.002500
     1081.431800       0.003000
     1081.490300       0.003100
     1081.548800       0.002900
     1081.607300       0.002200
     1081.665800       0.001200
     1081.724300       0.000500
     1081.782800       0.000000
     1081.841300       0.000700
     1081.899800       0.001700
     1081.958300       0.002700
     1082.016900       0.003400
     1082.075400       0.003300
     1082.134000       0.002600
     1082.192500       0.001700
     1082.251100       0.001000
     1082.309600       0.000900
     1082.368200       0.001000
     1082.426800       0.001100
     1082.485400       0.001300
     1082.544000       0.001500
     1082.602600       0.001600
     1082.661200       0.001500
     1082.719800       0.001300
     1082.778400       0.001000
     1082.837000       0.000600
     1082.895700       0.000300
     1082.954300       0.000000
     1083.012900       0.000200
     1083.071600       0.000500
     1083.130200       0.000800
     1083.188900       0.000800
     1083.247600       0.000900
     1083.306300       0.001000
     1083.364900       0.001100
     1083.423600       0.001000
     1083.482300       0.001200
     1083.541000       0.001300
     1083.599700       0.001400
     1083.658400       0.001300
     1083.717100       0.001200
     1083.775900       0.000900
     1083.834600       0.000500
     1083.893300       0.000100
     1083.952100       0.000000
     1084.010800       0.000000
     1084.069600       0.000000
     1084.128400       0.000000
     1084.187100       0.000100
     1084.245900       0.000300
     1084.304700       0.000500
     1084.363500       0.000500
     1084.422300       0.000600
     1084.481100       0.000500
     1084.539900       0.000500
     1084.598700       0.000400
     1084.657500       0.000300
     1084.716300       0.000300
     1084.775200       0.000200
     1084.834000       0.000100
     1084.892900       0.000100
     1084.951700       0.000100
     1085.010600       0.000100
     1085.069400       0.000000
     1085.128300       0.000100
     1085.187200       0.000300
     1085.246100       0.000400
     1085.305000       0.000300
     1085.363900       0.000700
     1085.422800       0.001100
     1085.481700       0.001600
     1085.540600       0.002100
     1085.599500       0.002900
     1085.658500       0.003600
     1085.717400       0.004100
     1085.776300       0.004100
     1085.835300       0.003500
     1085.894200       0.002400
     1085.953200       0.001200
     1086.012200       0.000100
     1086.071100       0.000000
     1086.130100       0.000100
     1086.189100       0.000100
     1086.248100       0.000200
     1086.307100       0.000900
     1086.366100       0.001800
     1086.425100       0.002500
     1086.484100       0.002900
     1086.543200       0.002800
     1086.602200       0.002400
     1086.661200       0.001800
     1086.720300       0.001200
     1086.779300       0.000800
     1086.838400       0.000400
     1086.897500       0.000100
     1086.956500       0.000000
     1087.015600       0.000200
     1087.074700       0.000500
     1087.133800       0.000800
     1087.192900       0.000900
     1087.252000       0.001000
     1087.311100       0.001000
     1087.370200       0.001100
     1087.429300       0.001300
     1087.488400       0.001900
     1087.547600       0.002500
     1087.606700       0.002900
     1087.665900       0.003000
     1087.725000       0.002700
     1087.784200       0.002000
     1087.843400       0.001300
     1087.902500       0.001000
     1087.961700       0.001200
     1088.020900       0.001700
     1088.080100       0.002300
     1088.139300       0.002600
     1088.198500       0.002500
     1088.257700       0.002000
     1088.316900       0.001400
     1088.376100       0.000900
     1088.435400       0.000900
     1088.494600       0.001000
     1088.553900       0.001000
     1088.613100       0.001000
     1088.672400       0.001000
     1088.731600       0.000900
     1088.790900       0.000800
     1088.850200       0.000700
     1088.909500       0.000700
     1088.968700       0.000800
     1089.028000       0.000800
     1089.087300       0.000600
     1089.146700       0.000500
     1089.206000       0.000200
     1089.265300       0.000200
     1089.324600       0.000400
     1089.384000       0.001400
     1089.443300       0.002600
     1089.502600       0.003700
     1089.562000       0.004100
     1089.621400       0.003800
     1089.680700       0.002800
     1089.740100       0.001600
     1089.799500       0.000600
     1089.858900       0.000600
     1089.918300       0.000800
     1089.977700       0.001000
     1090.037100       0.001200
     1090.096500       0.001200
     1090.155900       0.000800
     1090.215300       0.000400
     1090.274700       0.000000
     1090.334200       0.000000
     1090.393600       0.000000
     1090.453100       0.000000
     1090.512500       0.000000
     1090.572000       0.000100
     1090.631500       0.000300
     1090.691000       0.000400
     1090.750400       0.000500
     1090.809900       0.000900
     1090.869400       0.001300
     1090.928900       0.001600
     1090.988400       0.001600
     1091.048000       0.001400
     1091.107500       0.001000
     1091.167000       0.000500
     1091.226500       0.000300
     1091.286100       0.000300
     1091.345600       0.000600
     1091.405200       0.000800
     1091.464700       0.001000
     1091.524300       0.001100
     1091.583900       0.001000
     1091.643500       0.000800
     1091.703100       0.000600
     1091.762700       0.000600
     1091.822300       0.000500
     1091.881900       0.000300
     1091.941500       0.000200
     1092.001100       0.000700
     1092.060700       0.001200
     1092.120400       0.001600
     1092.180000       0.001800
     1092.239600       0.001600
     1092.299300       0.001200
     1092.358900       0.000700
     1092.418600       0.000200
     1092.478300       0.000200
     1092.538000       0.000100
     1092.597700       0.000000
     1092.657300       0.000100
     1092.717000       0.000200
     1092.776700       0.000200
     1092.836500       0.000200
     1092.896200       0.000200
     1092.955900       0.000200
     1093.015600       0.000200
     1093.075400       0.000200
     1093.135100       0.000200
     1093.194900       0.000300
     1093.254600       0.000400
     1093.314400       0.000500
     1093.374200       0.000500
     1093.433900       0.000500
     1093.493700       0.000300
     1093.553500       0.000200
     1093.613300       0.000100
     1093.673100       0.000200
     1093.732900       0.000300
     1093.792700       0.000500
     1093.852500       0.000500
     1093.912400       0.000500
     1093.972200       0.000300
     1094.032100       0.000100
     1094.091900       0.000000
     1094.151800       0.000100
     1094.211600       0.000200
     1094.271500       0.000400
     1094.331400       0.000700
     1094.391200       0.001000
     1094.451100       0.001300
     1094.511000       0.001500
     1094.570900       0.001400
     1094.630800       0.001300
     1094.690700       0.000900
     1094.750700       0.000500
     1094.810600       0.000200
     1094.870500       0.000300
     1094.930500       0.000600
     1094.990400       0.000800
     1095.050400       0.000900
     1095.110300       0.000800
     1095.170300       0.000500
     1095.230300       0.000200
     1095.290300       0.000000
     1095.350200       0.000100
     1095.410200       0.000300
     1095.470200       0.000600
     1095.530200       0.001000
     1095.590200       0.001200
     1095.650300       0.001400
     1095.710300       0.001600
     1095.770300       0.001800
     1095.830400       0.002100
     1095.890400       0.002400
     1095.950500       0.002700
     1096.010500       0.003000
     1096.070600       0.003100
     1096.130700       0.003200
     1096.190700       0.003000
     1096.250800       0.002600
     1096.310900       0.002000
     1096.371000       0.001300
     1096.431100       0.000700
     1096.491200       0.000500
     1096.551300       0.000700
     1096.611500       0.001100
     1096.671600       0.001600
     1096.731700       0.001900
     1096.791900       0.002100
     1096.852000       0.002000
     1096.912200       0.001700
     1096.972400       0.001400
     1097.032500       0.001300
     1097.092700       0.001100
     1097.152900       0.001000
     1097.213100       0.000900
     1097.273300       0.001100
     1097.333500       0.001300
     1097.393700       0.001400
     1097.453900       0.001300
     1097.514100       0.001200
     1097.574400       0.001000
     1097.634600       0.000700
     1097.694800       0.000500
     1097.755100       0.000500
     1097.815300       0.000500
     1097.875600       0.000500
     1097.935900       0.000500
     1097.996200       0.000400
     1098.056400       0.000400
     1098.116700       0.000400
     1098.177000       0.000400
     1098.237300       0.000500
     1098.297600       0.000700
     1098.358000       0.000900
     1098.418300       0.000900
     1098.478600       0.000900
     1098.538900       0.000800
     1098.599300       0.000600
     1098.659600       0.000300
     1098.720000       0.000200
     1098.780400       0.000100
     1098.840700       0.000000
     1098.901100       0.000000
     1098.961500       0.000400
     1099.021900       0.000800
     1099.082300       0.001200
     1099.142700       0.001500
     1099.203100       0.001400
     1099.263500       0.001100
     1099.323900       0.000700
     1099.384300       0.000300
     1099.444800       0.000200
     1099.505200       0.000100
     1099.565700       0.000100
     1099.626100       0.000400
     1099.686600       0.001000
     1099.747100       0.001700
     1099.807500       0.002200
     1099.868000       0.002500
     1099.928500       0.002200
     1099.989000       0.001700
     1100.049500       0.001000
     1100.110000       0.000400
     1100.170500       0.000100
     1100.231000       0.000100
     1100.291600       0.000200
     1100.352100       0.000200
     1100.412700       0.000400
     1100.473200       0.000600
     1100.533800       0.000800
     1100.594300       0.000900
     1100.654900       0.001000
     1100.715500       0.001200
     1100.776000       0.001400
     1100.836600       0.001600
     1100.897200       0.002100
     1100.957800       0.002700
     1101.018400       0.003100
     1101.079100       0.003200
     1101.139700       0.003000
     1101.200300       0.002500
     1101.260900       0.001900
     1101.321600       0.001400
     1101.382200       0.001300
     1101.442900       0.001100
     1101.503600       0.001000
     1101.564200       0.000800
     1101.624900       0.000700
     1101.685600       0.000500
     1101.746300       0.000200
     1101.807000       0.000000
     1101.867700       0.000000
     1101.928400       0.000100
     1101.989100       0.000100
     1102.049800       0.000000
     1102.110500       0.000100
     1102.171300       0.000200
     1102.232000       0.000300
     1102.292800       0.000300
     1102.353500       0.001000
     1102.414300       0.001800
     1102.475100       0.002500
     1102.535800       0.002800
     1102.596600       0.002600
     1102.657400       0.002100
     1102.718200       0.001400
     1102.779000       0.000800
     1102.839800       0.000800
     1102.900600       0.000700
     1102.961500       0.000700
     1103.022300       0.000800
     1103.083100       0.001300
     1103.144000       0.001800
     1103.204800       0.002200
     1103.265700       0.002500
     1103.326500       0.002600
     1103.387400       0.002400
     1103.448300       0.002200
     1103.509200       0.002000
     1103.570000       0.001900
     1103.630900       0.001900
     1103.691800       0.002000
     1103.752800       0.002100
     1103.813700       0.002200
     1103.874600       0.002400
     1103.935500       0.002400
     1103.996500       0.002400
     1104.057400       0.002200
     1104.118400       0.002000
     1104.179300       0.001800
     1104.240300       0.001700
     1104.301300       0.001800
     1104.362200       0.001900
     1104.423200       0.002200
     1104.484200       0.002500
     1104.545200       0.002700
     1104.606200       0.002900
     1104.667200       0.003000
     1104.728200       0.003100
     1104.789300       0.003100
     1104.850300       0.003000
     1104.911300       0.002800
     1104.972400       0.002500
     1105.033400       0.002200
     1105.094500       0.002100
     1105.155600       0.002000
     1105.216600       0.002000
     1105.277700       0.002300
     1105.338800       0.002500
     1105.399900       0.002800
     1105.461000       0.002800
     1105.522100       0.002600
     1105.583200       0.002300
     1105.644300       0.001900
     1105.705400       0.001700
     1105.766600       0.001700
     1105.827700       0.001800
     1105.888900       0.001900
     1105.950000       0.001700
     1106.011200       0.001400
     1106.072300       0.001100
     1106.133500       0.000900
     1106.194700       0.001100
     1106.255900       0.002600
     1106.317100       0.004500
     1106.378300       0.006200
     1106.439500       0.007000
     1106.500700       0.006400
     1106.561900       0.005000
     1106.623100       0.003300
     1106.684400       0.002100
     1106.745600       0.001800
     1106.806900       0.002300
     1106.868100       0.003200
     1106.929400       0.004000
     1106.990600       0.004500
     1107.051900       0.004700
     1107.113200       0.004700
     1107.174500       0.004400
     1107.235800       0.004000
     1107.297100       0.003500
     1107.358400       0.003100
     1107.419700       0.002600
     1107.481000       0.002400
     1107.542400       0.002200
     1107.603700       0.002400
     1107.665000       0.002800
     1107.726400       0.003400
     1107.787700       0.004200
     1107.849100       0.004900
     1107.910500       0.005200
     1107.971900       0.005000
     1108.033200       0.004500
     1108.094600       0.003800
     1108.156000       0.003200
     1108.217400       0.003000
     1108.278800       0.002900
     1108.340300       0.003000
     1108.401700       0.003200
     1108.463100       0.003300
     1108.524600       0.003600
     1108.586000       0.003900
     1108.647500       0.004600
     1108.708900       0.005500
     1108.770400       0.006500
     1108.831800       0.007400
     1108.893300       0.008000
     1108.954800       0.008100
     1109.016300       0.007800
     1109.077800       0.007200
     1109.139300       0.006400
     1109.200800       0.005600
     1109.262300       0.004900
     1109.323900       0.004400
     1109.385400       0.004200
     1109.446900       0.004400
     1109.508500       0.004800
     1109.570000       0.005200
     1109.631600       0.005600
     1109.693200       0.005700
     1109.754700       0.005600
     1109.816300       0.005600
     1109.877900       0.005800
     1109.939500       0.006300
     1110.001100       0.006900
     1110.062700       0.007400
     1110.124300       0.007700
     1110.186000       0.007400
     1110.247600       0.006900
     1110.309200       0.006200
     1110.370900       0.005600
     1110.432500       0.005400
     1110.494200       0.005300
     1110.555800       0.005500
     1110.617500       0.005900
     1110.679200       0.006500
     1110.740900       0.007000
     1110.802600       0.007400
     1110.864300       0.007600
     1110.926000       0.007400
     1110.987700       0.007100
     1111.049400       0.006900
     1111.111100       0.007100
     1111.172800       0.007700
     1111.234600       0.008600
     1111.296300       0.009400
     1111.358100       0.009600
     1111.419800       0.009100
     1111.481600       0.008300
     1111.543400       0.007600
     1111.605200       0.007600
     1111.666900       0.008600
     1111.728700       0.010300
     1111.790500       0.011800
     1111.852300       0.012700
     1111.914200       0.012400
     1111.976000       0.011400
     1112.037800       0.010100
     1112.099600       0.009000
     1112.161500       0.008700
     1112.223300       0.008900
     1112.285200       0.009300
     1112.347100       0.009700
     1112.408900       0.009900
     1112.470800       0.009900
     1112.532700       0.009900
     1112.594600       0.010100
     1112.656500       0.010500
     1112.718400       0.011200
     1112.780300       0.011800
     1112.842200       0.012300
     1112.904100       0.012400
     1112.966100       0.012200
     1113.028000       0.011800
     1113.089900       0.011300
     1113.151900       0.010700
     1113.213800       0.010100
     1113.275800       0.009800
     1113.337800       0.009800
     1113.399800       0.010300
     1113.461800       0.011200
     1113.523700       0.012300
     1113.585700       0.013600
     1113.647800       0.014900
     1113.709800       0.016000
     1113.771800       0.016600
     1113.833800       0.016500
     1113.895900       0.015400
     1113.957900       0.013800
     1114.019900       0.012200
     1114.082000       0.011300
     1114.144100       0.011300
     1114.206100       0.012100
     1114.268200       0.013000
     1114.330300       0.013500
     1114.392400       0.013300
     1114.454500       0.012600
     1114.516600       0.011900
     1114.578700       0.011400
     1114.640800       0.011600
     1114.702900       0.012100
     1114.765100       0.013000
     1114.827200       0.013800
     1114.889300       0.014500
     1114.951500       0.015000
     1115.013700       0.015500
     1115.075800       0.016200
     1115.138000       0.017000
     1115.200200       0.017900
     1115.262400       0.018800
     1115.324600       0.019500
     1115.386800       0.020000
     1115.449000       0.020100
     1115.511200       0.019900
     1115.573400       0.019500
     1115.635600       0.018800
     1115.697900       0.018000
     1115.760100       0.017300
     1115.822400       0.016800
     1115.884600       0.016800
     1115.946900       0.017100
     1116.009200       0.017500
     1116.071400       0.017900
     1116.133700       0.018100
     1116.196000       0.018100
     1116.258300       0.018200
     1116.320600       0.018400
     1116.382900       0.018800
     1116.445200       0.019400
     1116.507600       0.020000
     1116.569900       0.020600
     1116.632200       0.021200
     1116.694600       0.021600
     1116.756900       0.021900
     1116.819300       0.022000
     1116.881700       0.022100
     1116.944000       0.022100
     1117.006400       0.022100
     1117.068800       0.022300
     1117.131200       0.022700
     1117.193600       0.023200
     1117.256000       0.023500
     1117.318400       0.023400
     1117.380900       0.022900
     1117.443300       0.022200
     1117.505700       0.021600
     1117.568200       0.021400
     1117.630600       0.022000
     1117.693100       0.023100
     1117.755500       0.024500
     1117.818000       0.025800
     1117.880500       0.026800
     1117.943000       0.027400
     1118.005500       0.027500
     1118.068000       0.027200
     1118.130500       0.026300
     1118.193000       0.025300
     1118.255500       0.024600
     1118.318000       0.024600
     1118.380600       0.025500
     1118.443100       0.027000
     1118.505700       0.028500
     1118.568200       0.029300
     1118.630800       0.029200
     1118.693400       0.028500
     1118.755900       0.027900
     1118.818500       0.027900
     1118.881100       0.029000
     1118.943700       0.030800
     1119.006300       0.032600
     1119.068900       0.033600
     1119.131600       0.033600
     1119.194200       0.032700
     1119.256800       0.031600
     1119.319500       0.030800
     1119.382100       0.030700
     1119.444800       0.031200
     1119.507400       0.031900
     1119.570100       0.032700
     1119.632800       0.033300
     1119.695400       0.033800
     1119.758100       0.034200
     1119.820800       0.034900
     1119.883500       0.035900
     1119.946200       0.037000
     1120.009000       0.038200
     1120.071700       0.039200
     1120.134400       0.040100
     1120.197200       0.040600
     1120.259900       0.040700
     1120.322700       0.040400
     1120.385400       0.039700
     1120.448200       0.038800
     1120.511000       0.038100
     1120.573700       0.038000
     1120.636500       0.038700
     1120.699300       0.039900
     1120.762100       0.041200
     1120.824900       0.042400
     1120.887700       0.043100
     1120.950600       0.043300
     1121.013400       0.043400
     1121.076200       0.043400
     1121.139100       0.043500
     1121.201900       0.043800
     1121.264800       0.044100
     1121.327700       0.044600
     1121.390500       0.045000
     1121.453400       0.045500
     1121.516300       0.046100
     1121.579200       0.046700
     1121.642100       0.047200
     1121.705000       0.047700
     1121.767900       0.048200
     1121.830800       0.048600
     1121.893800       0.048900
     1121.956700       0.049100
     1122.019600       0.049400
     1122.082600       0.049900
     1122.145500       0.050500
     1122.208500       0.051100
     1122.271500       0.051700
     1122.334500       0.052100
     1122.397400       0.052200
     1122.460400       0.052200
     1122.523400       0.052300
     1122.586400       0.052700
     1122.649500       0.053600
     1122.712500       0.054800
     1122.775500       0.056000
     1122.838500       0.056900
     1122.901600       0.057300
     1122.964600       0.057500
     1123.027700       0.057700
     1123.090700       0.058300
     1123.153800       0.059500
     1123.216900       0.060900
     1123.280000       0.062400
     1123.343100       0.063500
     1123.406200       0.064000
     1123.469300       0.064100
     1123.532400       0.064100
     1123.595500       0.064200
     1123.658600       0.064600
     1123.721800       0.065300
     1123.784900       0.066200
     1123.848100       0.067200
     1123.911200       0.068100
     1123.974400       0.069000
     1124.037500       0.069900
     1124.100700       0.070600
     1124.163900       0.071300
     1124.227100       0.071900
     1124.290300       0.072400
     1124.353500       0.072900
     1124.416700       0.073300
     1124.479900       0.073800
     1124.543200       0.074400
     1124.606400       0.075200
     1124.669600       0.076200
     1124.732900       0.077400
     1124.796100       0.078700
     1124.859400       0.080100
     1124.922700       0.081600
     1124.985900       0.083000
     1125.049200       0.084400
     1125.112500       0.085600
     1125.175800       0.086600
     1125.239100       0.087400
     1125.302400       0.088100
     1125.365700       0.088800
     1125.429100       0.089600
     1125.492400       0.090300
     1125.555700       0.090900
     1125.619100       0.091300
     1125.682400       0.091600
     1125.745800       0.091800
     1125.809200       0.092300
     1125.872600       0.093200
     1125.935900       0.094700
     1125.999300       0.096500
     1126.062700       0.098400
     1126.126100       0.100100
     1126.189500       0.101400
     1126.253000       0.102300
     1126.316400       0.103000
     1126.379800       0.103500
     1126.443300       0.104100
     1126.506700       0.104800
     1126.570200       0.106000
     1126.633600       0.107600
     1126.697100       0.109800
     1126.760600       0.112300
     1126.824000       0.114600
     1126.887500       0.116300
     1126.951000       0.117000
     1127.014500       0.117300
     1127.078100       0.117500
     1127.141600       0.118300
     1127.205100       0.119900
     1127.268600       0.122200
     1127.332200       0.124700
     1127.395700       0.127000
     1127.459300       0.128800
     1127.522800       0.130200
     1127.586400       0.131400
     1127.650000       0.132600
     1127.713600       0.134000
     1127.777200       0.135500
     1127.840700       0.137200
     1127.904400       0.138900
     1127.968000       0.140600
     1128.031600       0.142200
     1128.095200       0.143800
     1128.158800       0.145300
     1128.222500       0.146700
     1128.286100       0.148000
     1128.349800       0.149400
     1128.413500       0.150900
     1128.477100       0.152700
     1128.540800       0.154500
     1128.604500       0.156300
     1128.668200       0.158000
     1128.731900       0.159500
     1128.795600       0.160900
     1128.859300       0.162600
     1128.923000       0.164700
     1128.986700       0.167500
     1129.050500       0.170600
     1129.114200       0.173800
     1129.178000       0.176600
     1129.241700       0.178800
     1129.305500       0.180400
     1129.369200       0.181900
     1129.433000       0.183300
     1129.496800       0.184900
     1129.560600       0.186700
     1129.624400       0.188600
     1129.688200       0.190600
     1129.752000       0.192600
     1129.815800       0.194800
     1129.879700       0.197200
     1129.943500       0.199900
     1130.007300       0.202900
     1130.071200       0.206100
     1130.135100       0.209200
     1130.198900       0.211900
     1130.262800       0.214300
     1130.326700       0.216400
     1130.390500       0.218400
     1130.454400       0.220700
     1130.518300       0.223400
     1130.582200       0.226300
     1130.646200       0.229200
     1130.710100       0.231700
     1130.774000       0.233900
     1130.838000       0.235700
     1130.901900       0.237600
     1130.965800       0.239900
     1131.029800       0.242700
     1131.093800       0.245900
     1131.157700       0.249400
     1131.221700       0.253000
     1131.285700       0.256400
     1131.349700       0.259600
     1131.413700       0.262700
     1131.477700       0.265600
     1131.541700       0.268400
     1131.605700       0.271100
     1131.669800       0.273900
     1131.733800       0.276800
     1131.797900       0.279900
     1131.861900       0.283300
     1131.926000       0.286900
     1131.990000       0.290600
     1132.054100       0.294500
     1132.118200       0.298300
     1132.182300       0.301900
     1132.246400       0.305100
     1132.310500       0.307700
     1132.374600       0.310000
     1132.438700       0.312400
     1132.502800       0.315200
     1132.567000       0.318600
     1132.631100       0.322500
     1132.695200       0.326600
     1132.759400       0.330500
     1132.823600       0.333900
     1132.887700       0.337200
     1132.951900       0.340500
     1133.016100       0.344100
     1133.080300       0.348300
     1133.144500       0.352900
     1133.208700       0.357600
     1133.272900       0.362100
     1133.337100       0.366200
     1133.401300       0.369900
     1133.465600       0.373500
     1133.529800       0.377000
     1133.594100       0.380500
     1133.658300       0.384100
     1133.722600       0.387800
     1133.786800       0.391500
     1133.851100       0.395400
     1133.915400       0.399400
     1133.979700       0.403500
     1134.044000       0.407700
     1134.108300       0.412000
     1134.172600       0.416300
     1134.236900       0.420700
     1134.301300       0.424900
     1134.365600       0.429100
     1134.429900       0.433200
     1134.494300       0.437400
     1134.558700       0.441500
     1134.623000       0.445800
     1134.687400       0.450000
     1134.751800       0.454100
     1134.816200       0.458100
     1134.880600       0.461800
     1134.945000       0.465300
     1135.009400       0.468800
     1135.073800       0.472400
     1135.138200       0.476100
     1135.202600       0.480100
     1135.267100       0.484400
     1135.331500       0.489100
     1135.396000       0.494000
     1135.460400       0.499100
     1135.524900       0.504100
     1135.589400       0.508900
     1135.653900       0.513200
     1135.718300       0.517400
     1135.782800       0.521500
     1135.847300       0.525800
     1135.911900       0.530500
     1135.976400       0.535400
     1136.040900       0.540300
     1136.105400       0.544900
     1136.170000       0.549100
     1136.234500       0.553000
     1136.299100       0.556900
     1136.363600       0.561000
     1136.428200       0.565400
     1136.492800       0.570000
     1136.557400       0.574800
     1136.622000       0.579600
     1136.686600       0.584200
     1136.751200       0.588800
     1136.815800       0.593400
     1136.880400       0.598000
     1136.945000       0.602800
     1137.009700       0.607600
     1137.074300       0.612300
     1137.139000       0.616800
     1137.203600       0.620900
     1137.268300       0.624800
     1137.333000       0.628800
     1137.397600       0.632900
     1137.462300       0.637400
     1137.527000       0.642100
     1137.591700       0.646900
     1137.656400       0.651600
     1137.721100       0.656100
     1137.785900       0.660400
     1137.850600       0.664600
     1137.915300       0.668800
     1137.980100       0.673100
     1138.044800       0.677300
     1138.109600       0.681400
     1138.174400       0.685200
     1138.239100       0.688800
     1138.303900       0.692300
     1138.368700       0.695900
     1138.433500       0.699700
     1138.498300       0.703900
     1138.563100       0.708300
     1138.628000       0.712500
     1138.692800       0.716300
     1138.757600       0.719600
     1138.822500       0.722600
     1138.887300       0.726000
     1138.952200       0.730300
     1139.017000       0.735900
     1139.081900       0.741900
     1139.146800       0.747700
     1139.211700       0.752100
     1139.276600       0.754800
     1139.341500       0.756500
     1139.406400       0.758500
     1139.471300       0.762100
     1139.536200       0.768100
     1139.601100       0.775500
     1139.666100       0.782800
     1139.731000       0.788700
     1139.796000       0.792100
     1139.860900       0.793700
     1139.925900       0.794600
     1139.990900       0.796000
     1140.055900       0.798700
     1140.120900       0.802300
     1140.185900       0.806200
     1140.250900       0.810000
     1140.315900       0.813200
     1140.380900       0.815900
     1140.445900       0.818400
     1140.510900       0.821000
     1140.576000       0.824000
     1140.641000       0.827100
     1140.706100       0.830100
     1140.771200       0.832800
     1140.836200       0.835000
     1140.901300       0.836900
     1140.966400       0.839100
     1141.031500       0.842000
     1141.096600       0.845700
     1141.161700       0.849800
     1141.226800       0.853700
     1141.291900       0.856700
     1141.357100       0.858500
     1141.422200       0.859500
     1141.487400       0.860200
     1141.552500       0.861400
     1141.617700       0.863400
     1141.682800       0.866200
     1141.748000       0.869600
     1141.813200       0.873200
     1141.878400       0.876900
     1141.943600       0.880400
     1142.008800       0.883400
     1142.074000       0.885700
     1142.139200       0.887000
     1142.204500       0.887900
     1142.269700       0.888700
     1142.334900       0.890000
     1142.400200       0.892200
     1142.465400       0.895000
     1142.530700       0.898000
     1142.596000       0.900900
     1142.661300       0.903500
     1142.726500       0.905700
     1142.791800       0.907700
     1142.857100       0.909700
     1142.922500       0.911700
     1142.987800       0.913500
     1143.053100       0.914800
     1143.118400       0.915300
     1143.183800       0.914700
     1143.249100       0.913700
     1143.314500       0.912800
     1143.379800       0.912600
     1143.445200       0.913700
     1143.510600       0.915700
     1143.576000       0.918100
     1143.641400       0.920500
     1143.706800       0.922300
     1143.772200       0.923800
     1143.837600       0.925100
     1143.903000       0.926300
     1143.968400       0.927800
     1144.033900       0.929400
     1144.099300       0.931200
     1144.164800       0.933100
     1144.230200       0.935100
     1144.295700       0.936800
     1144.361200       0.937900
     1144.426600       0.938300
     1144.492100       0.937600
     1144.557600       0.936400
     1144.623100       0.935500
     1144.688600       0.935500
     1144.754200       0.936900
     1144.819700       0.939100
     1144.885200       0.941300
     1144.950800       0.942800
     1145.016300       0.942900
     1145.081900       0.941900
     1145.147400       0.940400
     1145.213000       0.938900
     1145.278600       0.937900
     1145.344200       0.937600
     1145.409800       0.938000
     1145.475400       0.939300
     1145.541000       0.941500
     1145.606600       0.944000
     1145.672200       0.946000
     1145.737900       0.946800
     1145.803500       0.946000
     1145.869100       0.944100
     1145.934800       0.942500
     1146.000500       0.942000
     1146.066100       0.943400
     1146.131800       0.945900
     1146.197500       0.948300
     1146.263200       0.949400
     1146.328900       0.948600
     1146.394600       0.946400
     1146.460300       0.944100
     1146.526000       0.942700
     1146.591800       0.943200
     1146.657500       0.944900
     1146.723200       0.947300
     1146.789000       0.949500
     1146.854800       0.951000
     1146.920500       0.951900
     1146.986300       0.952300
     1147.052100       0.952600
     1147.117900       0.952900
     1147.183700       0.953200
     1147.249500       0.953500
     1147.315300       0.953900
     1147.381100       0.954100
     1147.446900       0.954100
     1147.512800       0.953600
     1147.578600       0.952500
     1147.644500       0.950600
     1147.710300       0.948300
     1147.776200       0.946300
     1147.842100       0.945100
     1147.907900       0.945100
     1147.973800       0.946000
     1148.039700       0.947400
     1148.105600       0.948600
     1148.171500       0.949400
     1148.237500       0.949800
     1148.303400       0.950100
     1148.369300       0.950500
     1148.435300       0.951000
     1148.501200       0.951500
     1148.567200       0.951900
     1148.633100       0.951700
     1148.699100       0.951100
     1148.765100       0.950000
     1148.831100       0.949000
     1148.897100       0.948300
     1148.963100       0.948100
     1149.029100       0.948200
     1149.095100       0.948400
     1149.161100       0.948300
     1149.227100       0.947800
     1149.293200       0.946900
     1149.359200       0.946100
     1149.425300       0.945500
     1149.491400       0.945400
     1149.557400       0.945800
     1149.623500       0.946600
     1149.689600       0.947800
     1149.755700       0.949200
     1149.821800       0.950500
     1149.887900       0.951300
     1149.954000       0.951100
     1150.020100       0.949700
     1150.086300       0.947500
     1150.152400       0.945100
     1150.218500       0.943200
     1150.284700       0.942100
     1150.350900       0.941700
     1150.417000       0.941800
     1150.483200       0.941900
     1150.549400       0.942000
     1150.615600       0.941900
     1150.681800       0.941600
     1150.748000       0.941100
     1150.814200       0.940500
     1150.880400       0.939800
     1150.946700       0.939200
     1151.012900       0.938800
     1151.079100       0.938600
     1151.145400       0.938600
     1151.211700       0.938900
     1151.277900       0.939300
     1151.344200       0.939800
     1151.410500       0.940200
     1151.476800       0.940500
     1151.543100       0.940500
     1151.609400       0.940200
     1151.675700       0.939700
     1151.742000       0.939300
     1151.808300       0.939300
     1151.874700       0.939900
     1151.941000       0.941000
     1152.007400       0.942400
     1152.073700       0.944000
     1152.140100       0.945700
     1152.206500       0.947100
     1152.272900       0.947900
     1152.339200       0.947800
     1152.405600       0.946600
     1152.472100       0.945000
     1152.538500       0.943600
     1152.604900       0.943200
     1152.671300       0.944100
     1152.737800       0.945600
     1152.804200       0.946700
     1152.870600       0.946500
     1152.937100       0.944100
     1153.003600       0.940700
     1153.070000       0.937600
     1153.136500       0.936200
     1153.203000       0.937400
     1153.269500       0.940400
     1153.336000       0.944100
     1153.402500       0.947200
     1153.469100       0.948700
     1153.535600       0.948800
     1153.602100       0.948000
     1153.668700       0.946700
     1153.735200       0.945200
     1153.801800       0.943700
     1153.868300       0.942600
     1153.934900       0.941900
     1154.001500       0.941800
     1154.068100       0.942200
     1154.134700       0.942700
     1154.201300       0.943100
     1154.267900       0.943400
     1154.334500       0.943800
     1154.401200       0.944500
     1154.467800       0.945800
     1154.534400       0.948000
     1154.601100       0.950500
     1154.667700       0.952600
     1154.734400       0.953500
     1154.801100       0.952900
     1154.867800       0.951300
     1154.934500       0.949400
     1155.001200       0.948100
     1155.067900       0.947800
     1155.134600       0.948600
     1155.201300       0.949900
     1155.268000       0.951500
     1155.334800       0.953000
     1155.401500       0.954200
     1155.468300       0.954900
     1155.535000       0.954900
     1155.601800       0.954200
     1155.668600       0.952900
     1155.735300       0.951100
     1155.802100       0.949100
     1155.868900       0.947100
     1155.935700       0.945400
     1156.002500       0.944400
     1156.069400       0.944500
     1156.136200       0.945800
     1156.203000       0.948000
     1156.269900       0.950300
     1156.336700       0.952300
     1156.403600       0.953400
     1156.470500       0.953900
     1156.537300       0.954200
     1156.604200       0.954700
     1156.671100       0.955700
     1156.738000       0.957000
     1156.804900       0.958400
     1156.871800       0.959600
     1156.938700       0.960300
     1157.005700       0.960800
     1157.072600       0.961300
     1157.139600       0.961900
     1157.206500       0.962800
     1157.273500       0.964000
     1157.340400       0.965200
     1157.407400       0.966300
     1157.474400       0.967200
     1157.541400       0.967800
     1157.608400       0.967900
     1157.675400       0.967600
     1157.742400       0.966700
     1157.809400       0.965800
     1157.876500       0.965200
     1157.943500       0.965600
     1158.010500       0.967200
     1158.077600       0.969400
     1158.144700       0.971500
     1158.211700       0.972500
     1158.278800       0.971900
     1158.345900       0.970300
     1158.413000       0.968500
     1158.480100       0.967200
     1158.547200       0.967000
     1158.614300       0.967900
     1158.681400       0.969700
     1158.748600       0.972100
     1158.815700       0.974800
     1158.882800       0.977400
     1158.950000       0.979200
     1159.017200       0.979800
     1159.084300       0.978900
     1159.151500       0.977100
     1159.218700       0.975500
     1159.285900       0.975300
     1159.353100       0.976900
     1159.420300       0.979700
     1159.487500       0.982600
     1159.554700       0.984500
     1159.622000       0.984500
     1159.689200       0.983100
     1159.756500       0.981000
     1159.823700       0.979100
     1159.891000       0.977900
     1159.958200       0.977500
     1160.025500       0.977600
     1160.092800       0.978300
     1160.160100       0.979500
     1160.227400       0.980800
     1160.294700       0.982400
     1160.362000       0.983900
     1160.429400       0.985300
     1160.496700       0.986400
     1160.564000       0.987000
     1160.631400       0.986900
     1160.698700       0.986100
     1160.766100       0.984900
     1160.833500       0.983600
     1160.900900       0.982600
     1160.968200       0.982300
     1161.035600       0.982600
     1161.103000       0.983200
     1161.170500       0.983900
     1161.237900       0.984700
     1161.305300       0.985400
     1161.372700       0.986100
     1161.440200       0.986800
     1161.507600       0.987500
     1161.575100       0.988100
     1161.642600       0.988600
     1161.710000       0.989200
     1161.777500       0.989700
     1161.845000       0.990300
     1161.912500       0.990900
     1161.980000       0.991800
     1162.047500       0.993000
     1162.115000       0.994100
     1162.182600       0.995000
     1162.250100       0.995400
     1162.317700       0.995100
     1162.385200       0.994300
     1162.452800       0.993300
     1162.520300       0.992200
     1162.587900       0.991300
     1162.655500       0.990700
     1162.723100       0.990300
     1162.790700       0.990300
     1162.858300       0.990600
     1162.925900       0.991100
     1162.993500       0.991800
     1163.061200       0.992600
     1163.128800       0.993400
     1163.196500       0.994300
     1163.264100       0.995000
     1163.331800       0.995800
     1163.399500       0.996400
     1163.467100       0.997100
     1163.534800       0.997800
     1163.602500       0.998600
     1163.670200       0.999500
     1163.737900       1.000000
     1163.805600       0.999700
     1163.873400       0.998000
     1163.941100       0.994700
     1164.008800       0.990800
     1164.076600       0.987300
     1164.144400       0.985300
     1164.212100       0.985800
     1164.279900       0.987800
     1164.347700       0.990300
     1164.415500       0.992300
     1164.483300       0.992800
     1164.551100       0.992200
     1164.618900       0.991000
     1164.686700       0.989900
     1164.754500       0.989200
     1164.822400       0.989000
     1164.890200       0.989100
     1164.958100       0.989300
     1165.025900       0.989600
     1165.093800       0.989600
     1165.161700       0.989200
     1165.229600       0.988200
     1165.297400       0.986400
     1165.365300       0.984300
     1165.433200       0.982400
     1165.501200       0.981300
     1165.569100       0.981300
     1165.637000       0.982300
     1165.705000       0.983600
     1165.772900       0.984800
     1165.840900       0.985500
     1165.908800       0.985600
     1165.976800       0.985100
     1166.044800       0.984100
     1166.112800       0.982600
     1166.180800       0.980800
     1166.248800       0.979100
     1166.316800       0.977700
     1166.384800       0.976800
     1166.452800       0.976800
     1166.520900       0.977600
     1166.588900       0.979600
     1166.656900       0.982600
     1166.725000       0.986100
     1166.793100       0.989300
     1166.861100       0.991400
     1166.929200       0.991700
     1166.997300       0.991000
     1167.065400       0.989900
     1167.133500       0.989200
     1167.201600       0.989500
     1167.269800       0.990300
     1167.337900       0.991000
     1167.406000       0.991000
     1167.474200       0.989700
     1167.542300       0.987700
     1167.610500       0.985700
     1167.678700       0.984200
     1167.746800       0.983800
     1167.815000       0.984300
     1167.883200       0.985100
     1167.951400       0.985900
     1168.019600       0.986200
     1168.087800       0.986200
     1168.156100       0.986200
     1168.224300       0.986400
     1168.292500       0.987100
     1168.360800       0.987800
     1168.429000       0.988300
     1168.497300       0.988200
     1168.565600       0.987100
     1168.633900       0.985700
     1168.702200       0.984500
     1168.770500       0.984100
     1168.838800       0.985100
     1168.907100       0.986900
     1168.975400       0.989000
     1169.043700       0.990600
     1169.112100       0.991300
     1169.180400       0.991000
     1169.248800       0.989700
     1169.317100       0.987600
     1169.385500       0.984700
     1169.453900       0.981800
     1169.522300       0.979600
     1169.590600       0.978800
     1169.659000       0.979800
     1169.727500       0.982100
     1169.795900       0.984600
     1169.864300       0.986500
     1169.932700       0.987100
     1170.001200       0.986500
     1170.069600       0.985300
     1170.138100       0.983800
     1170.206500       0.982500
     1170.275000       0.981300
     1170.343500       0.980500
     1170.412000       0.979900
     1170.480500       0.979600
     1170.549000       0.979500
     1170.617500       0.979800
     1170.686000       0.980200
     1170.754600       0.980800
     1170.823100       0.981500
     1170.891600       0.982100
     1170.960200       0.982600
     1171.028700       0.982800
     1171.097300       0.982800
     1171.165900       0.982700
     1171.234500       0.982500
     1171.303100       0.982300
     1171.371700       0.982100
     1171.440300       0.981800
     1171.508900       0.981400
     1171.577500       0.980800
     1171.646200       0.980200
     1171.714800       0.979700
     1171.783500       0.979500
     1171.852100       0.979600
     1171.920800       0.979900
     1171.989500       0.980000
     1172.058100       0.979700
     1172.126800       0.978700
     1172.195500       0.977500
     1172.264200       0.976400
     1172.332900       0.976000
     1172.401700       0.976600
     1172.470400       0.977500
     1172.539100       0.978000
     1172.607900       0.977300
     1172.676600       0.975100
     1172.745400       0.972000
     1172.814200       0.969300
     1172.882900       0.968100
     1172.951700       0.969000
     1173.020500       0.971100
     1173.089300       0.973300
     1173.158100       0.974100
     1173.227000       0.972700
     1173.295800       0.969700
     1173.364600       0.966300
     1173.433500       0.963700
     1173.502300       0.962500
     1173.571200       0.962500
     1173.640000       0.962900
     1173.708900       0.963100
     1173.777800       0.962700
     1173.846700       0.961900
     1173.915600       0.961200
     1173.984500       0.961300
     1174.053400       0.962300
     1174.122300       0.963700
     1174.191300       0.964600
     1174.260200       0.964200
     1174.329200       0.962000
     1174.398100       0.958700
     1174.467100       0.955300
     1174.536100       0.953000
     1174.605000       0.952400
     1174.674000       0.953100
     1174.743000       0.954200
     1174.812000       0.955100
     1174.881000       0.955000
     1174.950100       0.954300
     1175.019100       0.953300
     1175.088100       0.952600
     1175.157200       0.952300
     1175.226200       0.952400
     1175.295300       0.952400
     1175.364400       0.951900
     1175.433400       0.950700
     1175.502500       0.948800
     1175.571600       0.946700
     1175.640700       0.944500
     1175.709800       0.942600
     1175.779000       0.941100
     1175.848100       0.940300
     1175.917200       0.940500
     1175.986400       0.941700
     1176.055500       0.943200
     1176.124700       0.944400
     1176.193800       0.944500
     1176.263000       0.942900
     1176.332200       0.940400
     1176.401400       0.937900
     1176.470600       0.936200
     1176.539800       0.936000
     1176.609000       0.936800
     1176.678200       0.937900
     1176.747500       0.938500
     1176.816700       0.938100
     1176.886000       0.937000
     1176.955200       0.935900
     1177.024500       0.935400
     1177.093800       0.936000
     1177.163000       0.937100
     1177.232300       0.938000
     1177.301600       0.937800
     1177.370900       0.936100
     1177.440200       0.933300
     1177.509600       0.930400
     1177.578900       0.928000
     1177.648200       0.926800
     1177.717600       0.926500
     1177.786900       0.926500
     1177.856300       0.926300
     1177.925700       0.925400
     1177.995100       0.924200
     1178.064400       0.923000
     1178.133800       0.922100
     1178.203200       0.921800
     1178.272700       0.922000
     1178.342100       0.922500
     1178.411500       0.923000
     1178.480900       0.923400
     1178.550400       0.923500
     1178.619800       0.923300
     1178.689300       0.922800
     1178.758800       0.921800
     1178.828200       0.920400
     1178.897700       0.918900
     1178.967200       0.917300
     1179.036700       0.915800
     1179.106200       0.914700
     1179.175800       0.914100
     1179.245300       0.914200
     1179.314800       0.915200
     1179.384400       0.916700
     1179.453900       0.918100
     1179.523500       0.918900
     1179.593000       0.918700
     1179.662600       0.917800
     1179.732200       0.916900
     1179.801800       0.916300
     1179.871400       0.916600
     1179.941000       0.917500
     1180.010600       0.918800
     1180.080200       0.920300
     1180.149900       0.921600
     1180.219500       0.923000
     1180.289200       0.924300
     1180.358800       0.925600
     1180.428500       0.927100
     1180.498200       0.928500
     1180.567900       0.929600
     1180.637500       0.930100
     1180.707200       0.930000
     1180.777000       0.929200
     1180.846700       0.927900
     1180.916400       0.926300
     1180.986100       0.924600
     1181.055900       0.923000
     1181.125600       0.921800
     1181.195400       0.921500
     1181.265100       0.922000
     1181.334900       0.923200
     1181.404700       0.924200
     1181.474500       0.924700
     1181.544300       0.924100
     1181.614100       0.922600
     1181.683900       0.920700
     1181.753700       0.918500
     1181.823600       0.916500
     1181.893400       0.914700
     1181.963200       0.913100
     1182.033100       0.911600
     1182.103000       0.910400
     1182.172800       0.909500
     1182.242700       0.909200
     1182.312600       0.909700
     1182.382500       0.910900
     1182.452400       0.912400
     1182.522300       0.913700
     1182.592200       0.914100
     1182.662200       0.913300
     1182.732100       0.911600
     1182.802100       0.909600
     1182.872000       0.907900
     1182.942000       0.906800
     1183.011900       0.906300
     1183.081900       0.906000
     1183.151900       0.905700
     1183.221900       0.905200
     1183.291900       0.904900
     1183.361900       0.905200
     1183.432000       0.906600
     1183.502000       0.909200
     1183.572000       0.912400
     1183.642100       0.915000
     1183.712100       0.916000
     1183.782200       0.914900
     1183.852300       0.912200
     1183.922300       0.909000
     1183.992400       0.906400
     1184.062500       0.905100
     1184.132600       0.904900
     1184.202700       0.905300
     1184.272900       0.905700
     1184.343000       0.905700
     1184.413100       0.905300
     1184.483300       0.904700
     1184.553400       0.903800
     1184.623600       0.902700
     1184.693800       0.901600
     1184.763900       0.900400
     1184.834100       0.899300
     1184.904300       0.898100
     1184.974500       0.897100
     1185.044700       0.896300
     1185.115000       0.895900
     1185.185200       0.895700
     1185.255400       0.895900
     1185.325700       0.896300
     1185.395900       0.896800
     1185.466200       0.897400
     1185.536500       0.898100
     1185.606700       0.898900
     1185.677000       0.899700
     1185.747300       0.900600
     1185.817600       0.901200
     1185.887900       0.901100
     1185.958300       0.899700
     1186.028600       0.896800
     1186.098900       0.893300
     1186.169300       0.890200
     1186.239600       0.888500
     1186.310000       0.888900
     1186.380400       0.890600
     1186.450700       0.892800
     1186.521100       0.894300
     1186.591500       0.894300
     1186.661900       0.893000
     1186.732300       0.890600
     1186.802800       0.887300
     1186.873200       0.883500
     1186.943600       0.879400
     1187.014100       0.875100
     1187.084500       0.871100
     1187.155000       0.867300
     1187.225500       0.864200
     1187.295900       0.862000
     1187.366400       0.861000
     1187.436900       0.861300
     1187.507400       0.862400
     1187.577900       0.863500
     1187.648500       0.863900
     1187.719000       0.863100
     1187.789500       0.861400
     1187.860100       0.859200
     1187.930600       0.857000
     1188.001200       0.855100
     1188.071800       0.853900
     1188.142300       0.853400
     1188.212900       0.853900
     1188.283500       0.855400
     1188.354100       0.857200
     1188.424700       0.858800
     1188.495400       0.859300
     1188.566000       0.858200
     1188.636600       0.856000
     1188.707300       0.853300
     1188.777900       0.850700
     1188.848600       0.848700
     1188.919300       0.847200
     1188.990000       0.846000
     1189.060600       0.844900
     1189.131300       0.843700
     1189.202000       0.842500
     1189.272800       0.841400
     1189.343500       0.840500
     1189.414200       0.840000
     1189.485000       0.839600
     1189.555700       0.839100
     1189.626500       0.838300
     1189.697200       0.837000
     1189.768000       0.835400
     1189.838800       0.833700
     1189.909600       0.832200
     1189.980400       0.831100
     1190.051200       0.830100
     1190.122000       0.829100
     1190.192800       0.827700
     1190.263600       0.825800
     1190.334500       0.823800
     1190.405300       0.822100
     1190.476200       0.821100
     1190.547100       0.821100
     1190.617900       0.821600
     1190.688800       0.821800
     1190.759700       0.821200
     1190.830600       0.819300
     1190.901500       0.816400
     1190.972400       0.813000
     1191.043400       0.809900
     1191.114300       0.807400
     1191.185200       0.805500
     1191.256200       0.804300
     1191.327100       0.803400
     1191.398100       0.802900
     1191.469100       0.802400
     1191.540100       0.801700
     1191.611100       0.800400
     1191.682100       0.798500
     1191.753100       0.796000
     1191.824100       0.793300
     1191.895100       0.790800
     1191.966100       0.788600
     1192.037200       0.786600
     1192.108200       0.784800
     1192.179300       0.782700
     1192.250400       0.780300
     1192.321400       0.777500
     1192.392500       0.774000
     1192.463600       0.769700
     1192.534700       0.764600
     1192.605800       0.759300
     1192.677000       0.754500
     1192.748100       0.750900
     1192.819200       0.748900
     1192.890400       0.747800
     1192.961500       0.746900
     1193.032700       0.745200
     1193.103900       0.742100
     1193.175000       0.738100
     1193.246200       0.734100
     1193.317400       0.730800
     1193.388600       0.728700
     1193.459800       0.727400
     1193.531100       0.726300
     1193.602300       0.724500
     1193.673500       0.721700
     1193.744800       0.718000
     1193.816000       0.713700
     1193.887300       0.709400
     1193.958600       0.705200
     1194.029900       0.701300
     1194.101100       0.697500
     1194.172400       0.694000
     1194.243700       0.690600
     1194.315100       0.687300
     1194.386400       0.683900
     1194.457700       0.680500
     1194.529100       0.676900
     1194.600400       0.673200
     1194.671800       0.669400
     1194.743100       0.665500
     1194.814500       0.661600
     1194.885900       0.657900
     1194.957300       0.654300
     1195.028700       0.651100
     1195.100100       0.648200
     1195.171500       0.645500
     1195.242900       0.642500
     1195.314400       0.638900
     1195.385800       0.634500
     1195.457300       0.629600
     1195.528700       0.624600
     1195.600200       0.619700
     1195.671700       0.615500
     1195.743200       0.611700
     1195.814600       0.608500
     1195.886200       0.605700
     1195.957700       0.603200
     1196.029200       0.600700
     1196.100700       0.597800
     1196.172200       0.594000
     1196.243800       0.589200
     1196.315300       0.583700
     1196.386900       0.578100
     1196.458500       0.573100
     1196.530100       0.568900
     1196.601700       0.565300
     1196.673200       0.561600
     1196.744900       0.557200
     1196.816500       0.551700
     1196.888100       0.545600
     1196.959700       0.539600
     1197.031400       0.534400
     1197.103000       0.530400
     1197.174700       0.527200
     1197.246300       0.524300
     1197.318000       0.521000
     1197.389700       0.516900
     1197.461400       0.512100
     1197.533100       0.506800
     1197.604800       0.501400
     1197.676500       0.496100
     1197.748200       0.491000
     1197.820000       0.486300
     1197.891700       0.482300
     1197.963500       0.478800
     1198.035200       0.475700
     1198.107000       0.472400
     1198.178800       0.468400
     1198.250600       0.463500
     1198.322300       0.458100
     1198.394200       0.452700
     1198.466000       0.448000
     1198.537800       0.444300
     1198.609600       0.441300
     1198.681500       0.438400
     1198.753300       0.435200
     1198.825200       0.431200
     1198.897000       0.426700
     1198.968900       0.421900
     1199.040800       0.417300
     1199.112700       0.413000
     1199.184600       0.409100
     1199.256500       0.405300
     1199.328400       0.401500
     1199.400300       0.397600
     1199.472200       0.393600
     1199.544200       0.389500
     1199.616100       0.385300
     1199.688100       0.381200
     1199.760000       0.377100
     1199.832000       0.372900
     1199.904000       0.368700
     1199.976000       0.364500
     1200.048000       0.360200
     1200.120000       0.356100
     1200.192000       0.352100
     1200.264100       0.348400
     1200.336100       0.344900
     1200.408100       0.341300
     1200.480200       0.337800
     1200.552300       0.334000
     1200.624300       0.330200
     1200.696400       0.326500
     1200.768500       0.323000
     1200.840600       0.319800
     1200.912700       0.316800
     1200.984800       0.313800
     1201.056900       0.310600
     1201.129100       0.307100
     1201.201200       0.303300
     1201.273300       0.299300
     1201.345500       0.295300
     1201.417700       0.291400
     1201.489800       0.287600
     1201.562000       0.284100
     1201.634200       0.281000
     1201.706400       0.278300
     1201.778600       0.275900
     1201.850900       0.273500
     1201.923100       0.270900
     1201.995300       0.268000
     1202.067600       0.264900
     1202.139800       0.261700
     1202.212100       0.258600
     1202.284300       0.255800
     1202.356600       0.253100
     1202.428900       0.250400
     1202.501200       0.247500
     1202.573500       0.244300
     1202.645800       0.241000
     1202.718100       0.237600
     1202.790500       0.234400
     1202.862800       0.231400
     1202.935200       0.228600
     1203.007500       0.226000
     1203.079900       0.223400
     1203.152300       0.220800
     1203.224600       0.218200
     1203.297000       0.215700
     1203.369400       0.213400
     1203.441800       0.211400
     1203.514300       0.209400
     1203.586700       0.207500
     1203.659100       0.205500
     1203.731600       0.203300
     1203.804000       0.200900
     1203.876500       0.198300
     1203.949000       0.195600
     1204.021400       0.192600
     1204.093900       0.189600
     1204.166400       0.186700
     1204.238900       0.184100
     1204.311400       0.182000
     1204.384000       0.180200
     1204.456500       0.178500
     1204.529000       0.176800
     1204.601600       0.174900
     1204.674100       0.172900
     1204.746700       0.170800
     1204.819300       0.168800
     1204.891900       0.166700
     1204.964500       0.164800
     1205.037100       0.163000
     1205.109700       0.161500
     1205.182300       0.160300
     1205.254900       0.159100
     1205.327500       0.157900
     1205.400200       0.156500
     1205.472800       0.154700
     1205.545500       0.152600
     1205.618200       0.150400
     1205.690900       0.148200
     1205.763500       0.146200
     1205.836200       0.144300
     1205.909000       0.142600
     1205.981700       0.141000
     1206.054400       0.139600
     1206.127100       0.138200
     1206.199900       0.136800
     1206.272600       0.135400
     1206.345400       0.133800
     1206.418100       0.132100
     1206.490900       0.130300
     1206.563700       0.128500
     1206.636500       0.126700
     1206.709300       0.124900
     1206.782100       0.123200
     1206.854900       0.121600
     1206.927800       0.120200
     1207.000600       0.118800
     1207.073500       0.117700
     1207.146300       0.116700
     1207.219200       0.116000
     1207.292000       0.115300
     1207.364900       0.114600
     1207.437800       0.113800
     1207.510700       0.112700
     1207.583600       0.111500
     1207.656500       0.110100
     1207.729500       0.108800
     1207.802400       0.107400
     1207.875300       0.106100
     1207.948300       0.104900
     1208.021300       0.103800
     1208.094200       0.102800
     1208.167200       0.101800
     1208.240200       0.100900
     1208.313200       0.100100
     1208.386200       0.099200
     1208.459200       0.098300
     1208.532200       0.097400
     1208.605300       0.096400
     1208.678300       0.095200
     1208.751400       0.094000
     1208.824400       0.092800
     1208.897500       0.091700
     1208.970600       0.090700
     1209.043600       0.089800
     1209.116700       0.088900
     1209.189800       0.088000
     1209.263000       0.087100
     1209.336100       0.086100
     1209.409200       0.085100
     1209.482300       0.084000
     1209.555500       0.083000
     1209.628600       0.082100
     1209.701800       0.081200
     1209.775000       0.080500
     1209.848200       0.080000
     1209.921400       0.079500
     1209.994600       0.078900
     1210.067800       0.078300
     1210.141000       0.077400
     1210.214200       0.076500
     1210.287400       0.075600
     1210.360700       0.075000
     1210.433900       0.074600
     1210.507200       0.074300
     1210.580500       0.074200
     1210.653800       0.073900
     1210.727000       0.073400
     1210.800300       0.072700
     1210.873600       0.071900
     1210.947000       0.071000
     1211.020300       0.070200
     1211.093600       0.069500
     1211.167000       0.068800
     1211.240300       0.068100
     1211.313700       0.067500
     1211.387000       0.066900
     1211.460400       0.066200
     1211.533800       0.065500
     1211.607200       0.064600
     1211.680600       0.063600
     1211.754000       0.062800
     1211.827400       0.062100
     1211.900900       0.061700
     1211.974300       0.061500
     1212.047800       0.061300
     1212.121200       0.061200
     1212.194700       0.060900
     1212.268200       0.060600
     1212.341600       0.060200
     1212.415100       0.059700
     1212.488600       0.059300
     1212.562100       0.058800
     1212.635700       0.058400
     1212.709200       0.057900
     1212.782700       0.057400
     1212.856300       0.056900
     1212.929800       0.056500
     1213.003400       0.056100
     1213.077000       0.055900
     1213.150600       0.055900
     1213.224100       0.055900
     1213.297700       0.056000
     1213.371400       0.056000
     1213.445000       0.056100
     1213.518600       0.056000
     1213.592200       0.055600
     1213.665900       0.055000
     1213.739500       0.054200
     1213.813200       0.053300
     1213.886900       0.052400
     1213.960500       0.051600
     1214.034200       0.051000
     1214.107900       0.050500
     1214.181600       0.050100
     1214.255400       0.049700
     1214.329100       0.049500
     1214.402800       0.049200
     1214.476600       0.049000
     1214.550300       0.048800
     1214.624100       0.048700
     1214.697800       0.048500
     1214.771600       0.048400
     1214.845400       0.048300
     1214.919200       0.048200
     1214.993000       0.048000
     1215.066800       0.047600
     1215.140700       0.047100
     1215.214500       0.046400
     1215.288300       0.045800
     1215.362200       0.045400
     1215.436000       0.045100
     1215.509900       0.045000
     1215.583800       0.045000
     1215.657700       0.045000
     1215.731600       0.044900
     1215.805500       0.044700
     1215.879400       0.044400
     1215.953300       0.044000
     1216.027200       0.043600
     1216.101200       0.043100
     1216.175100       0.042600
     1216.249100       0.042200
     1216.323100       0.041900
     1216.397000       0.041600
     1216.471000       0.041500
     1216.545000       0.041500
     1216.619000       0.041700
     1216.693000       0.041900
     1216.767000       0.042000
     1216.841100       0.042000
     1216.915100       0.041800
     1216.989200       0.041400
     1217.063200       0.040900
     1217.137300       0.040400
     1217.211400       0.040100
     1217.285500       0.039800
     1217.359500       0.039700
     1217.433600       0.039600
     1217.507800       0.039700
     1217.581900       0.039800
     1217.656000       0.039800
     1217.730200       0.039700
     1217.804300       0.039600
     1217.878500       0.039300
     1217.952600       0.039100
     1218.026800       0.039100
     1218.101000       0.039300
     1218.175200       0.039600
     1218.249400       0.039800
     1218.323600       0.039600
     1218.397800       0.038800
     1218.472000       0.037800
     1218.546300       0.036700
     1218.620500       0.035900
     1218.694800       0.035600
     1218.769000       0.035600
     1218.843300       0.035900
     1218.917600       0.036100
     1218.991900       0.036300
     1219.066200       0.036400
     1219.140500       0.036300
     1219.214800       0.036200
     1219.289200       0.036100
     1219.363500       0.035900
     1219.437800       0.035800
     1219.512200       0.035900
     1219.586600       0.036000
     1219.660900       0.036300
     1219.735300       0.036500
     1219.809700       0.036600
     1219.884100       0.036600
     1219.958500       0.036400
     1220.032900       0.036000
     1220.107400       0.035400
     1220.181800       0.034700
     1220.256300       0.034000
     1220.330700       0.033500
     1220.405200       0.033200
     1220.479600       0.033400
     1220.554100       0.033800
     1220.628600       0.034300
     1220.703100       0.034600
     1220.777600       0.034600
     1220.852200       0.034400
     1220.926700       0.034000
     1221.001200       0.033600
     1221.075800       0.033300
     1221.150300       0.033000
     1221.224900       0.032900
     1221.299500       0.032700
     1221.374000       0.032600
     1221.448600       0.032500
     1221.523200       0.032500
     1221.597800       0.032700
     1221.672500       0.033000
     1221.747100       0.033500
     1221.821700       0.033900
     1221.896400       0.034200
     1221.971000       0.034200
     1222.045700       0.034000
     1222.120400       0.033700
     1222.195100       0.033200
     1222.269800       0.032600
     1222.344500       0.032000
     1222.419200       0.031600
     1222.493900       0.031300
     1222.568600       0.031300
     1222.643400       0.031400
     1222.718100       0.031600
     1222.792900       0.031600
     1222.867600       0.031300
     1222.942400       0.030800
     1223.017200       0.030500
     1223.092000       0.030300
     1223.166800       0.030500
     1223.241600       0.030900
     1223.316400       0.031300
     1223.391200       0.031500
     1223.466100       0.031300
     1223.540900       0.030900
     1223.615800       0.030500
     1223.690700       0.030200
     1223.765500       0.030300
     1223.840400       0.030500
     1223.915300       0.030800
     1223.990200       0.030900
     1224.065100       0.030700
     1224.140000       0.030400
     1224.215000       0.030100
     1224.289900       0.029900
     1224.364900       0.030000
     1224.439800       0.030200
     1224.514800       0.030400
     1224.589800       0.030500
     1224.664700       0.030400
     1224.739700       0.030100
     1224.814700       0.029700
     1224.889800       0.029400
     1224.964800       0.029300
     1225.039800       0.029300
     1225.114900       0.029400
     1225.189900       0.029500
     1225.265000       0.029600
     1225.340000       0.029700
     1225.415100       0.029800
     1225.490200       0.029800
     1225.565300       0.029800
     1225.640400       0.029700
     1225.715500       0.029500
     1225.790600       0.029300
     1225.865800       0.029000
     1225.940900       0.028800
     1226.016100       0.028600
     1226.091200       0.028400
     1226.166400       0.028400
     1226.241600       0.028500
     1226.316800       0.028500
     1226.392000       0.028400
     1226.467200       0.028200
     1226.542400       0.027900
     1226.617600       0.027500
     1226.692800       0.027300
     1226.768100       0.027200
     1226.843300       0.027300
     1226.918600       0.027300
     1226.993900       0.027300
     1227.069100       0.027000
     1227.144400       0.026700
     1227.219700       0.026400
     1227.295000       0.026200
     1227.370400       0.026300
     1227.445700       0.026500
     1227.521000       0.026800
     1227.596400       0.027100
     1227.671700       0.027200
     1227.747100       0.027200
     1227.822500       0.027100
     1227.897800       0.027000
     1227.973200       0.027000
     1228.048600       0.027000
     1228.124000       0.027000
     1228.199500       0.027000
     1228.274900       0.026800
     1228.350300       0.026600
     1228.425800       0.026500
     1228.501200       0.026500
     1228.576700       0.026600
     1228.652200       0.026800
     1228.727700       0.027000
     1228.803100       0.027000
     1228.878600       0.026900
     1228.954200       0.026600
     1229.029700       0.026300
     1229.105200       0.026000
     1229.180800       0.025800
     1229.256300       0.025700
     1229.331900       0.025800
     1229.407400       0.026100
     1229.483000       0.026500
     1229.558600       0.027000
     1229.634200       0.027400
     1229.709800       0.027500
     1229.785400       0.027200
     1229.861000       0.026800
     1229.936700       0.026400
     1230.012300       0.026300
     1230.088000       0.026500
     1230.163600       0.027000
     1230.239300       0.027400
     1230.315000       0.027500
     1230.390600       0.027200
     1230.466300       0.026500
     1230.542100       0.025800
     1230.617800       0.025300
     1230.693500       0.025000
     1230.769200       0.025100
     1230.845000       0.025200
     1230.920700       0.025400
     1230.996500       0.025400
     1231.072300       0.025300
     1231.148000       0.025000
     1231.223800       0.024800
     1231.299600       0.024500
     1231.375400       0.024200
     1231.451300       0.024100
     1231.527100       0.024200
     1231.602900       0.024600
     1231.678800       0.025100
     1231.754600       0.025700
     1231.830500       0.026100
     1231.906400       0.026200
     1231.982300       0.026100
     1232.058200       0.025900
     1232.134100       0.025800
     1232.210000       0.025800
     1232.285900       0.025800
     1232.361800       0.025800
     1232.437800       0.025800
     1232.513700       0.025600
     1232.589700       0.025400
     1232.665600       0.025300
     1232.741600       0.025100
     1232.817600       0.025200
     1232.893600       0.025300
     1232.969600       0.025300
     1233.045600       0.025300
     1233.121600       0.025100
     1233.197700       0.024900
     1233.273700       0.024700
     1233.349800       0.024500
     1233.425800       0.024600
     1233.501900       0.024700
     1233.578000       0.024800
     1233.654100       0.024900
     1233.730200       0.024800
     1233.806300       0.024600
     1233.882400       0.024500
     1233.958500       0.024500
     1234.034700       0.024600
     1234.110800       0.024800
     1234.187000       0.024900
     1234.263100       0.024600
     1234.339300       0.023800
     1234.415500       0.022900
     1234.491700       0.021900
     1234.567900       0.021200
     1234.644100       0.020900
     1234.720300       0.021000
     1234.796600       0.021500
     1234.872800       0.022200
     1234.949100       0.023000
     1235.025300       0.023800
     1235.101600       0.024500
     1235.177900       0.024800
     1235.254200       0.024600
     1235.330500       0.024200
     1235.406800       0.023600
     1235.483100       0.023200
     1235.559400       0.023000
     1235.635700       0.023000
     1235.712100       0.023100
     1235.788400       0.023200
     1235.864800       0.023200
     1235.941200       0.023200
     1236.017600       0.023400
     1236.093900       0.023700
     1236.170300       0.024300
     1236.246800       0.024900
     1236.323200       0.025400
     1236.399600       0.025600
     1236.476000       0.025200
     1236.552500       0.024500
     1236.628900       0.023800
     1236.705400       0.023200
     1236.781900       0.023100
     1236.858400       0.023300
     1236.934900       0.023700
     1237.011400       0.024000
     1237.087900       0.024300
     1237.164400       0.024500
     1237.241000       0.024400
     1237.317500       0.024100
     1237.394000       0.023600
     1237.470600       0.022900
     1237.547200       0.022200
     1237.623800       0.021700
     1237.700400       0.021300
     1237.777000       0.021100
     1237.853600       0.021100
     1237.930200       0.021100
     1238.006800       0.021200
     1238.083400       0.021200
     1238.160100       0.021300
     1238.236800       0.021300
     1238.313400       0.021200
     1238.390100       0.021200
     1238.466800       0.021200
     1238.543500       0.021400
     1238.620200       0.021700
     1238.696900       0.022100
     1238.773600       0.022500
     1238.850300       0.022600
     1238.927100       0.022500
     1239.003800       0.022200
     1239.080600       0.021900
     1239.157400       0.021600
     1239.234200       0.021400
     1239.310900       0.021400
     1239.387700       0.021500
     1239.464600       0.021400
     1239.541400       0.021300
     1239.618200       0.021100
     1239.695000       0.021000
     1239.771900       0.021000
     1239.848700       0.021300
     1239.925600       0.021600
     1240.002500       0.022000
     1240.079400       0.022200
     1240.156300       0.022100
     1240.233200       0.021900
     1240.310100       0.021800
     1240.387000       0.021700
     1240.463900       0.021900
     1240.540900       0.022200
     1240.617800       0.022500
     1240.694800       0.022600
     1240.771800       0.022400
     1240.848700       0.022000
     1240.925700       0.021600
     1241.002700       0.021100
     1241.079700       0.020900
     1241.156800       0.020700
     1241.233800       0.020600
     1241.310800       0.020600
     1241.387900       0.020500
     1241.464900       0.020500
     1241.542000       0.020400
     1241.619100       0.020300
     1241.696200       0.020300
     1241.773300       0.020300
     1241.850400       0.020300
     1241.927500       0.020600
     1242.004600       0.020900
     1242.081700       0.021300
     1242.158900       0.021700
     1242.236000       0.021900
     1242.313200       0.021900
     1242.390400       0.021700
     1242.467500       0.021400
     1242.544700       0.021000
     1242.621900       0.020700
     1242.699100       0.020500
     1242.776400       0.020300
     1242.853600       0.020300
     1242.930800       0.020300
     1243.008100       0.020300
     1243.085300       0.020400
     1243.162600       0.020400
     1243.239900       0.020300
     1243.317200       0.020100
     1243.394500       0.019900
     1243.471800       0.019900
     1243.549100       0.019900
     1243.626400       0.020000
     1243.703700       0.020100
     1243.781100       0.020100
     1243.858400       0.019900
     1243.935800       0.019700
     1244.013200       0.019500
     1244.090600       0.019600
     1244.168000       0.019900
     1244.245400       0.020400
     1244.322800       0.021000
     1244.400200       0.021300
     1244.477600       0.021300
     1244.555100       0.021000
     1244.632500       0.020700
     1244.710000       0.020300
     1244.787500       0.020200
     1244.864900       0.020100
     1244.942400       0.020100
     1245.019900       0.020100
     1245.097400       0.020000
     1245.174900       0.019900
     1245.252500       0.019800
     1245.330000       0.019500
     1245.407600       0.019200
     1245.485100       0.018900
     1245.562700       0.018600
     1245.640300       0.018500
     1245.717800       0.018500
     1245.795400       0.018600
     1245.873000       0.018800
     1245.950700       0.018900
     1246.028300       0.019100
     1246.105900       0.019200
     1246.183600       0.019300
     1246.261200       0.019300
     1246.338900       0.019400
     1246.416600       0.019500
     1246.494200       0.019600
     1246.571900       0.019600
     1246.649600       0.019700
     1246.727300       0.019600
     1246.805100       0.019400
     1246.882800       0.019100
     1246.960500       0.018700
     1247.038300       0.018200
     1247.116000       0.017900
     1247.193800       0.018000
     1247.271600       0.018500
     1247.349400       0.019200
     1247.427200       0.020000
     1247.505000       0.020600
     1247.582800       0.020900
     1247.660600       0.020800
     1247.738500       0.020500
     1247.816300       0.020100
     1247.894200       0.019700
     1247.972000       0.019200
     1248.049900       0.018800
     1248.127800       0.018500
     1248.205700       0.018300
     1248.283600       0.018100
     1248.361500       0.018100
     1248.439500       0.018300
     1248.517400       0.018500
     1248.595300       0.018800
     1248.673300       0.019000
     1248.751200       0.019200
     1248.829200       0.019100
     1248.907200       0.018900
     1248.985200       0.018500
     1249.063200       0.018100
     1249.141200       0.017700
     1249.219200       0.017400
     1249.297300       0.017100
     1249.375300       0.017100
     1249.453400       0.017200
     1249.531400       0.017500
     1249.609500       0.017900
     1249.687600       0.018200
     1249.765700       0.018400
     1249.843800       0.018400
     1249.921900       0.018500
     1250.000000       0.018500
     1250.078100       0.018400
     1250.156300       0.018400
     1250.234400       0.018300
     1250.312600       0.018200
     1250.390700       0.018100
     1250.468900       0.018000
     1250.547100       0.018000
     1250.625300       0.018100
     1250.703500       0.018400
     1250.781700       0.018700
     1250.860000       0.019000
     1250.938200       0.019000
     1251.016500       0.018700
     1251.094700       0.018100
     1251.173000       0.017600
     1251.251300       0.017300
     1251.329500       0.017400
     1251.407800       0.017700
     1251.486100       0.018100
     1251.564500       0.018300
     1251.642800       0.018100
     1251.721100       0.017800
     1251.799500       0.017400
     1251.877800       0.017200
     1251.956200       0.017400
     1252.034600       0.017700
     1252.112900       0.018000
     1252.191300       0.018100
     1252.269700       0.017900
     1252.348200       0.017400
     1252.426600       0.016900
     1252.505000       0.016600
     1252.583500       0.016600
     1252.661900       0.016800
     1252.740400       0.017000
     1252.818800       0.017200
     1252.897300       0.017200
     1252.975800       0.017200
     1253.054300       0.017000
     1253.132800       0.017000
     1253.211400       0.017100
     1253.289900       0.017300
     1253.368400       0.017500
     1253.447000       0.017700
     1253.525500       0.017700
     1253.604100       0.017700
     1253.682700       0.017600
     1253.761300       0.017700
     1253.839900       0.017800
     1253.918500       0.018000
     1253.997100       0.018100
     1254.075700       0.018000
     1254.154400       0.017700
     1254.233000       0.017300
     1254.311700       0.016900
     1254.390400       0.016600
     1254.469000       0.016500
     1254.547700       0.016600
     1254.626400       0.016700
     1254.705100       0.016800
     1254.783900       0.016800
     1254.862600       0.016700
     1254.941300       0.016600
     1255.020100       0.016600
     1255.098800       0.016600
     1255.177600       0.016700
     1255.256400       0.016700
     1255.335200       0.016700
     1255.414000       0.016700
     1255.492800       0.016600
     1255.571600       0.016600
     1255.650400       0.016900
     1255.729300       0.017400
     1255.808100       0.018100
     1255.887000       0.018600
     1255.965800       0.018900
     1256.044700       0.018700
     1256.123600       0.018300
     1256.202500       0.017700
     1256.281400       0.017000
     1256.360300       0.016600
     1256.439300       0.016300
     1256.518200       0.016300
     1256.597100       0.016300
     1256.676100       0.016500
     1256.755100       0.016800
     1256.834000       0.016900
     1256.913000       0.017000
     1256.992000       0.016800
     1257.071000       0.016400
     1257.150000       0.016000
     1257.229100       0.015700
     1257.308100       0.015400
     1257.387100       0.015300
     1257.466200       0.015200
     1257.545300       0.015200
     1257.624300       0.015200
     1257.703400       0.015200
     1257.782500       0.015300
     1257.861600       0.015500
     1257.940800       0.015800
     1258.019900       0.016000
     1258.099000       0.016200
     1258.178200       0.016300
     1258.257300       0.016200
     1258.336500       0.015900
     1258.415700       0.015700
     1258.494800       0.015400
     1258.574000       0.015400
     1258.653200       0.015400
     1258.732500       0.015500
     1258.811700       0.015700
     1258.890900       0.015900
     1258.970200       0.016100
     1259.049400       0.016300
     1259.128700       0.016400
     1259.208000       0.016300
     1259.287200       0.016200
     1259.366500       0.016100
     1259.445800       0.016100
     1259.525200       0.016100
     1259.604500       0.016100
     1259.683800       0.016200
     1259.763200       0.016100
     1259.842500       0.016000
     1259.921900       0.015700
     1260.001300       0.015500
     1260.080600       0.015300
     1260.160000       0.015400
     1260.239400       0.015500
     1260.318900       0.015700
     1260.398300       0.015800
     1260.477700       0.015900
     1260.557200       0.015900
     1260.636600       0.015900
     1260.716100       0.016100
     1260.795600       0.016300
     1260.875000       0.016600
     1260.954500       0.016900
     1261.034000       0.017000
     1261.113600       0.016900
     1261.193100       0.016600
     1261.272600       0.016200
     1261.352200       0.015900
