103,   103, MVIRI VIS channel from srf_MET7_2010168_2010169_1801-Release_S10EE_10.dat
Number of data points:
793
Wavenumber (cm-1)   Filter response
     8442.380800       0.000000
     8449.514200       0.000000
     8456.659600       0.000004
     8463.817200       0.000056
     8470.986900       0.000166
     8478.168700       0.000332
     8485.362700       0.000553
     8492.569000       0.000827
     8499.787500       0.001152
     8507.018300       0.001528
     8514.261400       0.001952
     8521.516800       0.002423
     8528.784600       0.002939
     8536.064900       0.003501
     8543.357500       0.004105
     8550.662700       0.004752
     8557.980300       0.005439
     8565.310500       0.006167
     8572.653200       0.006933
     8580.008600       0.007737
     8587.376600       0.008577
     8594.757200       0.009454
     8602.150500       0.010365
     8609.556600       0.011310
     8616.975400       0.012289
     8624.407100       0.013300
     8631.851500       0.014342
     8639.308900       0.015415
     8646.779100       0.016519
     8654.262200       0.017652
     8661.758300       0.018814
     8669.267400       0.020005
     8676.789600       0.021223
     8684.324800       0.022468
     8691.873100       0.023740
     8699.434500       0.025038
     8707.009100       0.026362
     8714.596900       0.027711
     8722.198000       0.029086
     8729.812300       0.030484
     8737.439900       0.031907
     8745.080900       0.033354
     8752.735200       0.034824
     8760.403000       0.036317
     8768.084200       0.037833
     8775.778900       0.039372
     8783.487000       0.040933
     8791.208800       0.042517
     8798.944100       0.044123
     8806.693100       0.045750
     8814.455700       0.047399
     8822.232000       0.049069
     8830.022100       0.050761
     8837.825900       0.052474
     8845.643500       0.054208
     8853.475000       0.055963
     8861.320300       0.057740
     8869.179600       0.059536
     8877.052800       0.061354
     8884.940000       0.063193
     8892.841300       0.065052
     8900.756600       0.066932
     8908.686000       0.068833
     8916.629500       0.070754
     8924.587200       0.072696
     8932.559200       0.074659
     8940.545400       0.076643
     8948.545900       0.078647
     8956.560700       0.080672
     8964.589900       0.082717
     8972.633500       0.084784
     8980.691500       0.086871
     8988.764000       0.088980
     8996.851100       0.091109
     9004.952700       0.093260
     9013.068900       0.095431
     9021.199800       0.097624
     9029.345400       0.099838
     9037.505600       0.102073
     9045.680700       0.104330
     9053.870500       0.106609
     9062.075200       0.108909
     9070.294800       0.111231
     9078.529300       0.113574
     9086.778700       0.115939
     9095.043200       0.118327
     9103.322700       0.120736
     9111.617300       0.123167
     9119.927000       0.125621
     9128.251900       0.128097
     9136.592100       0.130596
     9144.947400       0.133116
     9153.318100       0.135660
     9161.704100       0.138226
     9170.105500       0.140815
     9178.522300       0.143427
     9186.954500       0.146061
     9195.402300       0.148719
     9203.865600       0.151399
     9212.344500       0.154103
     9220.839100       0.156830
     9229.349300       0.159580
     9237.875300       0.162353
     9246.417000       0.165150
     9254.974500       0.167971
     9263.547900       0.170814
     9272.137200       0.173682
     9280.742500       0.176572
     9289.363700       0.179487
     9298.000900       0.182425
     9306.654300       0.185387
     9315.323700       0.188372
     9324.009300       0.191381
     9332.711200       0.194414
     9341.429200       0.197471
     9350.163600       0.200551
     9358.914400       0.203655
     9367.681500       0.206783
     9376.465100       0.209934
     9385.265100       0.213109
     9394.081700       0.216308
     9402.914900       0.219531
     9411.764700       0.222777
     9420.631200       0.226047
     9429.514400       0.229340
     9438.414300       0.232656
     9447.331100       0.235996
     9456.264800       0.239360
     9465.215300       0.242747
     9474.182900       0.246156
     9483.167400       0.249589
     9492.169000       0.253045
     9501.187600       0.256524
     9510.223500       0.260026
     9519.276500       0.263550
     9528.346800       0.267097
     9537.434400       0.270667
     9546.539400       0.274258
     9555.661700       0.277872
     9564.801500       0.281508
     9573.958800       0.285166
     9583.133700       0.288846
     9592.326100       0.292547
     9601.536200       0.296270
     9610.764100       0.300014
     9620.009600       0.303779
     9629.273000       0.307565
     9638.554200       0.311371
     9647.853400       0.315198
     9657.170400       0.319045
     9666.505600       0.322913
     9675.858700       0.326800
     9685.230000       0.330707
     9694.619500       0.334633
     9704.027200       0.338579
     9713.453100       0.342543
     9722.897400       0.346526
     9732.360100       0.350527
     9741.841200       0.354547
     9751.340800       0.358584
     9760.859000       0.362639
     9770.395700       0.366712
     9779.951100       0.370801
     9789.525200       0.374907
     9799.118100       0.379029
     9808.729800       0.383168
     9818.360300       0.387322
     9828.009800       0.391492
     9837.678300       0.395677
     9847.365800       0.399878
     9857.072400       0.404092
     9866.798200       0.408321
     9876.543200       0.412563
     9886.307500       0.416819
     9896.091000       0.421089
     9905.894000       0.425371
     9915.716400       0.429665
     9925.558300       0.433972
     9935.419800       0.438290
     9945.300800       0.442620
     9955.201600       0.446960
     9965.122100       0.451312
     9975.062300       0.455673
     9985.022500       0.460044
     9995.002500       0.464425
    10005.002500       0.468814
    10015.022500       0.473212
    10025.062700       0.477619
    10035.122900       0.482033
    10045.203400       0.486454
    10055.304200       0.490883
    10065.425300       0.495318
    10075.566800       0.499759
    10085.728700       0.504205
    10095.911200       0.508658
    10106.114200       0.513114
    10116.337900       0.517575
    10126.582300       0.522040
    10136.847400       0.526509
    10147.133400       0.530981
    10157.440300       0.535455
    10167.768200       0.539931
    10178.117000       0.544409
    10188.487000       0.548888
    10198.878100       0.553368
    10209.290500       0.557849
    10219.724100       0.562329
    10230.179000       0.566809
    10240.655400       0.571287
    10251.153300       0.575764
    10261.672700       0.580239
    10272.213700       0.584712
    10282.776300       0.589181
    10293.360800       0.593648
    10303.967000       0.598110
    10314.595200       0.602568
    10325.245200       0.607021
    10335.917300       0.611469
    10346.611500       0.615911
    10357.327800       0.620347
    10368.066400       0.624777
    10378.827200       0.629198
    10389.610400       0.633613
    10400.416000       0.638019
    10411.244100       0.642417
    10422.094800       0.646805
    10432.968200       0.651184
    10443.864200       0.655553
    10454.783100       0.659912
    10465.724800       0.664259
    10476.689400       0.668595
    10487.677000       0.672920
    10498.687700       0.677232
    10509.721500       0.681530
    10520.778500       0.685816
    10531.858900       0.690088
    10542.962600       0.694346
    10554.089700       0.698589
    10565.240400       0.702816
    10576.414600       0.707028
    10587.612500       0.711224
    10598.834100       0.715404
    10610.079600       0.719567
    10621.348900       0.723712
    10632.642200       0.727839
    10643.959600       0.731948
    10655.301000       0.736038
    10666.666700       0.740109
    10678.056600       0.744160
    10689.470900       0.748192
    10700.909600       0.752202
    10712.372800       0.756192
    10723.860600       0.760161
    10735.373100       0.764107
    10746.910300       0.768032
    10758.472300       0.771933
    10770.059200       0.775812
    10781.671200       0.779667
    10793.308100       0.783499
    10804.970300       0.787306
    10816.657700       0.791089
    10828.370300       0.794846
    10840.108400       0.798578
    10851.871900       0.802284
    10863.661100       0.805965
    10875.475800       0.809618
    10887.316300       0.813244
    10899.182600       0.816843
    10911.074700       0.820415
    10922.992900       0.823959
    10934.937100       0.827473
    10946.907500       0.830960
    10958.904100       0.834417
    10970.927000       0.837845
    10982.976400       0.841243
    10995.052200       0.844610
    11007.154700       0.847948
    11019.283700       0.851254
    11031.439600       0.854530
    11043.622300       0.857774
    11055.832000       0.860986
    11068.068600       0.864167
    11080.332400       0.867315
    11092.623400       0.870431
    11104.941700       0.873513
    11117.287400       0.876563
    11129.660500       0.879579
    11142.061300       0.882561
    11154.489700       0.885510
    11166.945800       0.888424
    11179.429800       0.891304
    11191.941800       0.894149
    11204.481800       0.896960
    11217.049900       0.899735
    11229.646300       0.902474
    11242.270900       0.905178
    11254.924000       0.907847
    11267.605600       0.910479
    11280.315800       0.913075
    11293.054800       0.915635
    11305.822500       0.918158
    11318.619100       0.920644
    11331.444800       0.923093
    11344.299500       0.925505
    11357.183400       0.927880
    11370.096600       0.930217
    11383.039300       0.932517
    11396.011400       0.934779
    11409.013100       0.937003
    11422.044500       0.939189
    11435.105800       0.941337
    11448.196900       0.943447
    11461.318100       0.945518
    11474.469300       0.947551
    11487.650800       0.949545
    11500.862600       0.951501
    11514.104800       0.953418
    11527.377500       0.955296
    11540.680900       0.957135
    11554.015000       0.958935
    11567.380000       0.960696
    11580.775900       0.962418
    11594.202900       0.964101
    11607.661100       0.965745
    11621.150500       0.967350
    11634.671300       0.968916
    11648.223600       0.970442
    11661.807600       0.971929
    11675.423200       0.973377
    11689.070700       0.974786
    11702.750100       0.976155
    11716.461600       0.977486
    11730.205300       0.978777
    11743.981200       0.980029
    11757.789500       0.981242
    11771.630400       0.982416
    11785.503800       0.983551
    11799.410000       0.984647
    11813.349100       0.985704
    11827.321100       0.986723
    11841.326200       0.987702
    11855.364600       0.988643
    11869.436200       0.989546
    11883.541300       0.990410
    11897.680000       0.991236
    11911.852300       0.992023
    11926.058400       0.992773
    11940.298500       0.993484
    11954.572600       0.994158
    11968.880900       0.994794
    11983.223500       0.995392
    11997.600500       0.995953
    12012.012000       0.996477
    12026.458200       0.996963
    12040.939200       0.997413
    12055.455100       0.997826
    12070.006000       0.998202
    12084.592100       0.998543
    12099.213600       0.998846
    12113.870400       0.999114
    12128.562800       0.999346
    12143.290800       0.999543
    12158.054700       0.999704
    12172.854500       0.999830
    12187.690400       0.999921
    12202.562500       0.999978
    12217.471000       1.000000
    12232.415900       0.999988
    12247.397400       0.999942
    12262.415700       0.999862
    12277.470800       0.999749
    12292.563000       0.999603
    12307.692300       0.999424
    12322.858900       0.999213
    12338.062900       0.998969
    12353.304500       0.998693
    12368.583800       0.998386
    12383.900900       0.998047
    12399.256000       0.997677
    12414.649300       0.997276
    12430.080800       0.996845
    12445.550700       0.996384
    12461.059200       0.995893
    12476.606400       0.995372
    12492.192400       0.994822
    12507.817400       0.994244
    12523.481500       0.993637
    12539.185000       0.993001
    12554.927800       0.992338
    12570.710200       0.991648
    12586.532400       0.990931
    12602.394500       0.990186
    12618.296500       0.989416
    12634.238800       0.988620
    12650.221400       0.987798
    12666.244500       0.986950
    12682.308200       0.986078
    12698.412700       0.985182
    12714.558200       0.984262
    12730.744700       0.983317
    12746.972600       0.982350
    12763.241900       0.981360
    12779.552700       0.980347
    12795.905300       0.979313
    12812.299800       0.978256
    12828.736400       0.977179
    12845.215200       0.976081
    12861.736300       0.974962
    12878.300100       0.973823
    12894.906500       0.972665
    12911.555800       0.971488
    12928.248200       0.970292
    12944.983800       0.969078
    12961.762800       0.967845
    12978.585300       0.966596
    12995.451600       0.965330
    13012.361700       0.964047
    13029.316000       0.962748
    13046.314400       0.961433
    13063.357300       0.960103
    13080.444700       0.958759
    13097.576900       0.957400
    13114.754100       0.956027
    13131.976400       0.954641
    13149.243900       0.953241
    13166.556900       0.951830
    13183.915600       0.950406
    13201.320100       0.948971
    13218.770700       0.947524
    13236.267400       0.946067
    13253.810500       0.944599
    13271.400100       0.943122
    13289.036500       0.941635
    13306.719900       0.940140
    13324.450400       0.938635
    13342.228200       0.937123
    13360.053400       0.935604
    13377.926400       0.934077
    13395.847300       0.932544
    13413.816200       0.931004
    13431.833400       0.929459
    13449.899100       0.927908
    13468.013500       0.926352
    13486.176700       0.924793
    13504.388900       0.923229
    13522.650400       0.921661
    13540.961400       0.920091
    13559.322000       0.918518
    13577.732500       0.916943
    13596.193100       0.915365
    13614.703900       0.913787
    13633.265200       0.912208
    13651.877100       0.910628
    13670.540000       0.909049
    13689.253900       0.907469
    13708.019200       0.905891
    13726.836000       0.904314
    13745.704500       0.902738
    13764.624900       0.901165
    13783.597500       0.899594
    13802.622500       0.898026
    13821.700100       0.896462
    13840.830400       0.894901
    13860.013900       0.893344
    13879.250500       0.891792
    13898.540700       0.890245
    13917.884500       0.888703
    13937.282200       0.887167
    13956.734100       0.885637
    13976.240400       0.884114
    13995.801300       0.882597
    14015.417000       0.881088
    14035.087700       0.879587
    14054.813800       0.878093
    14074.595400       0.876608
    14094.432700       0.875131
    14114.326000       0.873664
    14134.275600       0.872206
    14154.281700       0.870758
    14174.344400       0.869320
    14194.464200       0.867892
    14214.641100       0.866475
    14234.875400       0.865069
    14255.167500       0.863675
    14275.517500       0.862292
    14295.925700       0.860922
    14316.392300       0.859563
    14336.917600       0.858218
    14357.501800       0.856885
    14378.145200       0.855565
    14398.848100       0.854260
    14419.610700       0.852967
    14440.433200       0.851689
    14461.316000       0.850425
    14482.259200       0.849176
    14503.263200       0.847941
    14524.328200       0.846722
    14545.454500       0.845518
    14566.642400       0.844329
    14587.892000       0.843156
    14609.203800       0.841999
    14630.577900       0.840859
    14652.014700       0.839734
    14673.514300       0.838626
    14695.077100       0.837535
    14716.703500       0.836461
    14738.393500       0.835404
    14760.147600       0.834364
    14781.966000       0.833342
    14803.849000       0.832337
    14825.796900       0.831350
    14847.809900       0.830381
    14869.888500       0.829430
    14892.032800       0.828497
    14914.243100       0.827582
    14936.519800       0.826686
    14958.863100       0.825808
    14981.273400       0.824948
    15003.750900       0.824107
    15026.296000       0.823285
    15048.909000       0.822482
    15071.590100       0.821697
    15094.339600       0.820931
    15117.158000       0.820184
    15140.045400       0.819456
    15163.002300       0.818747
    15186.028900       0.818057
    15209.125500       0.817386
    15232.292500       0.816734
    15255.530100       0.816101
    15278.838800       0.815487
    15302.218800       0.814892
    15325.670500       0.814315
    15349.194200       0.813758
    15372.790200       0.813219
    15396.458800       0.812699
    15420.200500       0.812198
    15444.015400       0.811715
    15467.904100       0.811251
    15491.866800       0.810805
    15515.903800       0.810377
    15540.015500       0.809967
    15564.202300       0.809576
    15588.464500       0.809202
    15612.802500       0.808846
    15637.216600       0.808508
    15661.707100       0.808187
    15686.274500       0.807884
    15710.919100       0.807597
    15735.641200       0.807328
    15760.441300       0.807075
    15785.319700       0.806838
    15810.276700       0.806618
    15835.312700       0.806414
    15860.428200       0.806226
    15885.623500       0.806053
    15910.899000       0.805896
    15936.255000       0.805753
    15961.691900       0.805626
    15987.210200       0.805513
    16012.810200       0.805414
    16038.492400       0.805329
    16064.257000       0.805257
    16090.104600       0.805199
    16116.035500       0.805154
    16142.050000       0.805121
    16168.148700       0.805100
    16194.332000       0.805092
    16220.600200       0.805095
    16246.953700       0.805109
    16273.393000       0.805134
    16299.918500       0.805169
    16326.530600       0.805215
    16353.229800       0.805270
    16380.016400       0.805334
    16406.890900       0.805407
    16433.853700       0.805488
    16460.905300       0.805577
    16488.046200       0.805673
    16515.276600       0.805777
    16542.597200       0.805886
    16570.008300       0.806002
    16597.510400       0.806124
    16625.103900       0.806250
    16652.789300       0.806381
    16680.567100       0.806516
    16708.437800       0.806654
    16736.401700       0.806796
    16764.459300       0.806940
    16792.611300       0.807085
    16820.857900       0.807233
    16849.199700       0.807380
    16877.637100       0.807529
    16906.170800       0.807676
    16934.801000       0.807823
    16963.528400       0.807969
    16992.353400       0.808112
    17021.276600       0.808253
    17050.298400       0.808390
    17079.419300       0.808523
    17108.639900       0.808652
    17137.960600       0.808776
    17167.382000       0.808894
    17196.904600       0.809005
    17226.528900       0.809109
    17256.255400       0.809206
    17286.084700       0.809294
    17316.017300       0.809373
    17346.053800       0.809443
    17376.194600       0.809502
    17406.440400       0.809550
    17436.791600       0.809586
    17467.248900       0.809610
    17497.812800       0.809620
    17528.483800       0.809617
    17559.262500       0.809599
    17590.149500       0.809566
    17621.145400       0.809517
    17652.250700       0.809451
    17683.466000       0.809368
    17714.791900       0.809267
    17746.228900       0.809146
    17777.777800       0.809007
    17809.439000       0.808846
    17841.213200       0.808665
    17873.101000       0.808462
    17905.103000       0.808236
    17937.219700       0.807987
    17969.451900       0.807714
    18001.800200       0.807417
    18034.265100       0.807093
    18066.847300       0.806743
    18099.547500       0.806367
    18132.366300       0.805962
    18165.304300       0.805529
    18198.362100       0.805066
    18231.540600       0.804573
    18264.840200       0.804050
    18298.261700       0.803495
    18331.805700       0.802907
    18365.472900       0.802286
    18399.264000       0.801631
    18433.179700       0.800942
    18467.220700       0.800217
    18501.387600       0.799456
    18535.681200       0.798658
    18570.102100       0.797823
    18604.651200       0.796949
    18639.329000       0.796035
    18674.136300       0.795082
    18709.073900       0.794088
    18744.142500       0.793053
    18779.342700       0.791975
    18814.675400       0.790855
    18850.141400       0.789691
    18885.741300       0.788482
    18921.475900       0.787229
    18957.346000       0.785930
    18993.352300       0.784584
    19029.495700       0.783191
    19065.776900       0.781750
    19102.196800       0.780261
    19138.756000       0.778722
    19175.455400       0.777133
    19212.295900       0.775494
    19249.278200       0.773803
    19286.403100       0.772061
    19323.671500       0.770266
    19361.084200       0.768417
    19398.642100       0.766515
    19436.346000       0.764558
    19474.196700       0.762546
    19512.195100       0.760478
    19550.342100       0.758354
    19588.638600       0.756173
    19627.085400       0.753935
    19665.683400       0.751638
    19704.433500       0.749283
    19743.336600       0.746869
    19782.393700       0.744395
    19821.605600       0.741861
    19860.973200       0.739266
    19900.497500       0.736610
    19940.179500       0.733893
    19980.020000       0.731113
    20020.020000       0.728271
    20060.180500       0.725365
    20100.502500       0.722397
    20140.986900       0.719364
    20181.634700       0.716267
    20222.446900       0.713106
    20263.424500       0.709880
    20304.568500       0.706588
    20345.880000       0.703231
    20387.359800       0.699808
    20429.009200       0.696319
    20470.829100       0.692763
    20512.820500       0.689141
    20554.984600       0.685452
    20597.322300       0.681695
    20639.834900       0.677872
    20682.523300       0.673981
    20725.388600       0.670022
    20768.432000       0.665996
    20811.654500       0.661901
    20855.057400       0.657739
    20898.641600       0.653509
    20942.408400       0.649211
    20986.358900       0.644845
    21030.494200       0.640411
    21074.815600       0.635909
    21119.324200       0.631339
    21164.021200       0.626702
    21208.907700       0.621997
    21253.985100       0.617224
    21299.254500       0.612384
    21344.717200       0.607477
    21390.374300       0.602503
    21436.227200       0.597463
    21482.277100       0.592356
    21528.525300       0.587184
    21574.973000       0.581945
    21621.621600       0.576642
    21668.472400       0.571273
    21715.526600       0.565840
    21762.785600       0.560344
    21810.250800       0.554784
    21857.923500       0.549161
    21905.805000       0.543475
    21953.896800       0.537729
    22002.200200       0.531921
    22050.716600       0.526052
    22099.447500       0.520125
    22148.394200       0.514138
    22197.558300       0.508093
    22246.941000       0.501991
    22296.544000       0.495833
    22346.368700       0.489619
    22396.416600       0.483351
    22446.689100       0.477029
    22497.187900       0.470655
    22547.914300       0.464229
    22598.870100       0.457753
    22650.056600       0.451228
    22701.475600       0.444655
    22753.128600       0.438035
    22805.017100       0.431369
    22857.142900       0.424660
    22909.507400       0.417908
    22962.112500       0.411114
    23014.959700       0.404281
    23068.050700       0.397409
    23121.387300       0.390500
    23174.971000       0.383556
    23228.803700       0.376579
    23282.887100       0.369570
    23337.222900       0.362530
    23391.812900       0.355462
    23446.658900       0.348368
    23501.762600       0.341249
    23557.126000       0.334108
    23612.750900       0.326946
    23668.639100       0.319765
    23724.792400       0.312568
    23781.212800       0.305357
    23837.902300       0.298133
    23894.862600       0.290900
    23952.095800       0.283660
    24009.603800       0.276414
    24067.388700       0.269166
    24125.452400       0.261917
    24183.796900       0.254671
    24242.424200       0.247430
    24301.336600       0.240197
    24360.535900       0.232974
    24420.024400       0.225765
    24479.804200       0.218572
    24539.877300       0.211398
    24600.246000       0.204246
    24660.912500       0.197119
    24721.878900       0.190020
    24783.147500       0.182953
    24844.720500       0.175920
    24906.600200       0.168925
    24968.789000       0.161972
    25031.289100       0.155064
    25094.102900       0.148203
    25157.232700       0.141395
    25220.681000       0.134642
    25284.450100       0.127949
    25348.542500       0.121318
    25412.960600       0.114755
    25477.707000       0.108262
