3,   3, MVIRI VIS channel from srf_MET3_1989078_1989079_1801-Release_S10EE_10.dat
Number of data points:
743
Wavenumber (cm-1)   Filter response
     8814.455700       0.000000
     8822.232000       0.000000
     8830.022100       0.000698
     8837.825900       0.002927
     8845.643500       0.005177
     8853.475000       0.007444
     8861.320300       0.009728
     8869.179600       0.012029
     8877.052800       0.014344
     8884.940000       0.016674
     8892.841300       0.019016
     8900.756600       0.021371
     8908.686000       0.023737
     8916.629500       0.026113
     8924.587200       0.028499
     8932.559200       0.030894
     8940.545400       0.033297
     8948.545900       0.035708
     8956.560700       0.038126
     8964.589900       0.040551
     8972.633500       0.042982
     8980.691500       0.045418
     8988.764000       0.047860
     8996.851100       0.050307
     9004.952700       0.052759
     9013.068900       0.055214
     9021.199800       0.057674
     9029.345400       0.060138
     9037.505600       0.062605
     9045.680700       0.065075
     9053.870500       0.067549
     9062.075200       0.070026
     9070.294800       0.072506
     9078.529300       0.074989
     9086.778700       0.077475
     9095.043200       0.079963
     9103.322700       0.082455
     9111.617300       0.084949
     9119.927000       0.087446
     9128.251900       0.089947
     9136.592100       0.092451
     9144.947400       0.094957
     9153.318100       0.097467
     9161.704100       0.099980
     9170.105500       0.102497
     9178.522300       0.105018
     9186.954500       0.107543
     9195.402300       0.110071
     9203.865600       0.112604
     9212.344500       0.115142
     9220.839100       0.117684
     9229.349300       0.120231
     9237.875300       0.122783
     9246.417000       0.125341
     9254.974500       0.127904
     9263.547900       0.130473
     9272.137200       0.133048
     9280.742500       0.135630
     9289.363700       0.138219
     9298.000900       0.140814
     9306.654300       0.143417
     9315.323700       0.146028
     9324.009300       0.148646
     9332.711200       0.151273
     9341.429200       0.153907
     9350.163600       0.156551
     9358.914400       0.159204
     9367.681500       0.161866
     9376.465100       0.164538
     9385.265100       0.167220
     9394.081700       0.169912
     9402.914900       0.172615
     9411.764700       0.175328
     9420.631200       0.178053
     9429.514400       0.180789
     9438.414300       0.183537
     9447.331100       0.186297
     9456.264800       0.189070
     9465.215300       0.191855
     9474.182900       0.194652
     9483.167400       0.197463
     9492.169000       0.200288
     9501.187600       0.203126
     9510.223500       0.205978
     9519.276500       0.208844
     9528.346800       0.211725
     9537.434400       0.214621
     9546.539400       0.217531
     9555.661700       0.220457
     9564.801500       0.223397
     9573.958800       0.226354
     9583.133700       0.229327
     9592.326100       0.232315
     9601.536200       0.235320
     9610.764100       0.238341
     9620.009600       0.241379
     9629.273000       0.244433
     9638.554200       0.247504
     9647.853400       0.250593
     9657.170400       0.253699
     9666.505600       0.256822
     9675.858700       0.259963
     9685.230000       0.263121
     9694.619500       0.266297
     9704.027200       0.269491
     9713.453100       0.272703
     9722.897400       0.275933
     9732.360100       0.279181
     9741.841200       0.282448
     9751.340800       0.285732
     9760.859000       0.289035
     9770.395700       0.292357
     9779.951100       0.295697
     9789.525200       0.299055
     9799.118100       0.302433
     9808.729800       0.305828
     9818.360300       0.309242
     9828.009800       0.312674
     9837.678300       0.316125
     9847.365800       0.319595
     9857.072400       0.323082
     9866.798200       0.326589
     9876.543200       0.330113
     9886.307500       0.333656
     9896.091000       0.337217
     9905.894000       0.340796
     9915.716400       0.344393
     9925.558300       0.348008
     9935.419800       0.351642
     9945.300800       0.355292
     9955.201600       0.358961
     9965.122100       0.362647
     9975.062300       0.366349
     9985.022500       0.370070
     9995.002500       0.373808
    10005.002500       0.377562
    10015.022500       0.381333
    10025.062700       0.385120
    10035.122900       0.388924
    10045.203400       0.392744
    10055.304200       0.396580
    10065.425300       0.400431
    10075.566800       0.404298
    10085.728700       0.408180
    10095.911200       0.412078
    10106.114200       0.415990
    10116.337900       0.419917
    10126.582300       0.423857
    10136.847400       0.427812
    10147.133400       0.431781
    10157.440300       0.435763
    10167.768200       0.439758
    10178.117000       0.443767
    10188.487000       0.447787
    10198.878100       0.451820
    10209.290500       0.455865
    10219.724100       0.459922
    10230.179000       0.463990
    10240.655400       0.468069
    10251.153300       0.472158
    10261.672700       0.476258
    10272.213700       0.480368
    10282.776300       0.484487
    10293.360800       0.488616
    10303.967000       0.492754
    10314.595200       0.496900
    10325.245200       0.501054
    10335.917300       0.505216
    10346.611500       0.509386
    10357.327800       0.513562
    10368.066400       0.517745
    10378.827200       0.521934
    10389.610400       0.526129
    10400.416000       0.530330
    10411.244100       0.534535
    10422.094800       0.538745
    10432.968200       0.542959
    10443.864200       0.547177
    10454.783100       0.551399
    10465.724800       0.555623
    10476.689400       0.559850
    10487.677000       0.564078
    10498.687700       0.568309
    10509.721500       0.572540
    10520.778500       0.576772
    10531.858900       0.581005
    10542.962600       0.585238
    10554.089700       0.589470
    10565.240400       0.593700
    10576.414600       0.597930
    10587.612500       0.602157
    10598.834100       0.606382
    10610.079600       0.610605
    10621.348900       0.614824
    10632.642200       0.619039
    10643.959600       0.623250
    10655.301000       0.627456
    10666.666700       0.631658
    10678.056600       0.635854
    10689.470900       0.640043
    10700.909600       0.644227
    10712.372800       0.648403
    10723.860600       0.652572
    10735.373100       0.656733
    10746.910300       0.660886
    10758.472300       0.665031
    10770.059200       0.669166
    10781.671200       0.673291
    10793.308100       0.677406
    10804.970300       0.681511
    10816.657700       0.685604
    10828.370300       0.689687
    10840.108400       0.693757
    10851.871900       0.697815
    10863.661100       0.701860
    10875.475800       0.705892
    10887.316300       0.709910
    10899.182600       0.713914
    10911.074700       0.717904
    10922.992900       0.721878
    10934.937100       0.725837
    10946.907500       0.729780
    10958.904100       0.733707
    10970.927000       0.737617
    10982.976400       0.741510
    10995.052200       0.745386
    11007.154700       0.749243
    11019.283700       0.753082
    11031.439600       0.756903
    11043.622300       0.760704
    11055.832000       0.764485
    11068.068600       0.768246
    11080.332400       0.771987
    11092.623400       0.775708
    11104.941700       0.779406
    11117.287400       0.783084
    11129.660500       0.786739
    11142.061300       0.790372
    11154.489700       0.793982
    11166.945800       0.797570
    11179.429800       0.801133
    11191.941800       0.804673
    11204.481800       0.808189
    11217.049900       0.811680
    11229.646300       0.815146
    11242.270900       0.818587
    11254.924000       0.822003
    11267.605600       0.825392
    11280.315800       0.828755
    11293.054800       0.832092
    11305.822500       0.835401
    11318.619100       0.838684
    11331.444800       0.841939
    11344.299500       0.845166
    11357.183400       0.848365
    11370.096600       0.851536
    11383.039300       0.854678
    11396.011400       0.857791
    11409.013100       0.860874
    11422.044500       0.863928
    11435.105800       0.866953
    11448.196900       0.869947
    11461.318100       0.872910
    11474.469300       0.875844
    11487.650800       0.878746
    11500.862600       0.881617
    11514.104800       0.884457
    11527.377500       0.887265
    11540.680900       0.890042
    11554.015000       0.892786
    11567.380000       0.895499
    11580.775900       0.898178
    11594.202900       0.900826
    11607.661100       0.903440
    11621.150500       0.906022
    11634.671300       0.908570
    11648.223600       0.911085
    11661.807600       0.913566
    11675.423200       0.916013
    11689.070700       0.918427
    11702.750100       0.920807
    11716.461600       0.923152
    11730.205300       0.925463
    11743.981200       0.927740
    11757.789500       0.929982
    11771.630400       0.932190
    11785.503800       0.934362
    11799.410000       0.936500
    11813.349100       0.938602
    11827.321100       0.940670
    11841.326200       0.942702
    11855.364600       0.944699
    11869.436200       0.946660
    11883.541300       0.948586
    11897.680000       0.950477
    11911.852300       0.952331
    11926.058400       0.954150
    11940.298500       0.955934
    11954.572600       0.957681
    11968.880900       0.959393
    11983.223500       0.961069
    11997.600500       0.962708
    12012.012000       0.964313
    12026.458200       0.965881
    12040.939200       0.967413
    12055.455100       0.968909
    12070.006000       0.970369
    12084.592100       0.971793
    12099.213600       0.973181
    12113.870400       0.974534
    12128.562800       0.975850
    12143.290800       0.977131
    12158.054700       0.978375
    12172.854500       0.979584
    12187.690400       0.980757
    12202.562500       0.981895
    12217.471000       0.982996
    12232.415900       0.984063
    12247.397400       0.985093
    12262.415700       0.986088
    12277.470800       0.987048
    12292.563000       0.987972
    12307.692300       0.988861
    12322.858900       0.989715
    12338.062900       0.990534
    12353.304500       0.991318
    12368.583800       0.992067
    12383.900900       0.992782
    12399.256000       0.993461
    12414.649300       0.994107
    12430.080800       0.994718
    12445.550700       0.995294
    12461.059200       0.995837
    12476.606400       0.996345
    12492.192400       0.996820
    12507.817400       0.997261
    12523.481500       0.997668
    12539.185000       0.998042
    12554.927800       0.998383
    12570.710200       0.998691
    12586.532400       0.998965
    12602.394500       0.999207
    12618.296500       0.999417
    12634.238800       0.999594
    12650.221400       0.999739
    12666.244500       0.999852
    12682.308200       0.999933
    12698.412700       0.999982
    12714.558200       1.000000
    12730.744700       0.999987
    12746.972600       0.999942
    12763.241900       0.999867
    12779.552700       0.999761
    12795.905300       0.999625
    12812.299800       0.999459
    12828.736400       0.999262
    12845.215200       0.999036
    12861.736300       0.998780
    12878.300100       0.998495
    12894.906500       0.998181
    12911.555800       0.997838
    12928.248200       0.997467
    12944.983800       0.997067
    12961.762800       0.996639
    12978.585300       0.996183
    12995.451600       0.995699
    13012.361700       0.995188
    13029.316000       0.994650
    13046.314400       0.994085
    13063.357300       0.993493
    13080.444700       0.992875
    13097.576900       0.992231
    13114.754100       0.991561
    13131.976400       0.990865
    13149.243900       0.990144
    13166.556900       0.989398
    13183.915600       0.988627
    13201.320100       0.987831
    13218.770700       0.987011
    13236.267400       0.986167
    13253.810500       0.985299
    13271.400100       0.984408
    13289.036500       0.983493
    13306.719900       0.982556
    13324.450400       0.981595
    13342.228200       0.980613
    13360.053400       0.979608
    13377.926400       0.978581
    13395.847300       0.977533
    13413.816200       0.976463
    13431.833400       0.975373
    13449.899100       0.974261
    13468.013500       0.973129
    13486.176700       0.971977
    13504.388900       0.970805
    13522.650400       0.969613
    13540.961400       0.968402
    13559.322000       0.967172
    13577.732500       0.965923
    13596.193100       0.964655
    13614.703900       0.963369
    13633.265200       0.962064
    13651.877100       0.960743
    13670.540000       0.959403
    13689.253900       0.958046
    13708.019200       0.956673
    13726.836000       0.955283
    13745.704500       0.953876
    13764.624900       0.952453
    13783.597500       0.951014
    13802.622500       0.949560
    13821.700100       0.948090
    13840.830400       0.946605
    13860.013900       0.945105
    13879.250500       0.943591
    13898.540700       0.942063
    13917.884500       0.940520
    13937.282200       0.938964
    13956.734100       0.937394
    13976.240400       0.935810
    13995.801300       0.934214
    14015.417000       0.932605
    14035.087700       0.930983
    14054.813800       0.929349
    14074.595400       0.927703
    14094.432700       0.926045
    14114.326000       0.924375
    14134.275600       0.922694
    14154.281700       0.921002
    14174.344400       0.919299
    14194.464200       0.917586
    14214.641100       0.915862
    14234.875400       0.914127
    14255.167500       0.912383
    14275.517500       0.910629
    14295.925700       0.908866
    14316.392300       0.907092
    14336.917600       0.905310
    14357.501800       0.903519
    14378.145200       0.901720
    14398.848100       0.899911
    14419.610700       0.898095
    14440.433200       0.896270
    14461.316000       0.894437
    14482.259200       0.892597
    14503.263200       0.890749
    14524.328200       0.888893
    14545.454500       0.887031
    14566.642400       0.885161
    14587.892000       0.883285
    14609.203800       0.881401
    14630.577900       0.879512
    14652.014700       0.877616
    14673.514300       0.875714
    14695.077100       0.873806
    14716.703500       0.871892
    14738.393500       0.869972
    14760.147600       0.868047
    14781.966000       0.866116
    14803.849000       0.864180
    14825.796900       0.862239
    14847.809900       0.860293
    14869.888500       0.858343
    14892.032800       0.856387
    14914.243100       0.854427
    14936.519800       0.852462
    14958.863100       0.850493
    14981.273400       0.848520
    15003.750900       0.846542
    15026.296000       0.844561
    15048.909000       0.842575
    15071.590100       0.840586
    15094.339600       0.838593
    15117.158000       0.836597
    15140.045400       0.834596
    15163.002300       0.832593
    15186.028900       0.830586
    15209.125500       0.828575
    15232.292500       0.826562
    15255.530100       0.824545
    15278.838800       0.822525
    15302.218800       0.820502
    15325.670500       0.818477
    15349.194200       0.816448
    15372.790200       0.814416
    15396.458800       0.812382
    15420.200500       0.810345
    15444.015400       0.808305
    15467.904100       0.806262
    15491.866800       0.804217
    15515.903800       0.802169
    15540.015500       0.800119
    15564.202300       0.798066
    15588.464500       0.796010
    15612.802500       0.793952
    15637.216600       0.791892
    15661.707100       0.789829
    15686.274500       0.787763
    15710.919100       0.785695
    15735.641200       0.783625
    15760.441300       0.781552
    15785.319700       0.779477
    15810.276700       0.777399
    15835.312700       0.775318
    15860.428200       0.773236
    15885.623500       0.771150
    15910.899000       0.769062
    15936.255000       0.766972
    15961.691900       0.764878
    15987.210200       0.762783
    16012.810200       0.760684
    16038.492400       0.758583
    16064.257000       0.756479
    16090.104600       0.754373
    16116.035500       0.752263
    16142.050000       0.750151
    16168.148700       0.748036
    16194.332000       0.745918
    16220.600200       0.743796
    16246.953700       0.741672
    16273.393000       0.739545
    16299.918500       0.737414
    16326.530600       0.735280
    16353.229800       0.733143
    16380.016400       0.731003
    16406.890900       0.728859
    16433.853700       0.726711
    16460.905300       0.724560
    16488.046200       0.722405
    16515.276600       0.720247
    16542.597200       0.718085
    16570.008300       0.715918
    16597.510400       0.713748
    16625.103900       0.711574
    16652.789300       0.709395
    16680.567100       0.707213
    16708.437800       0.705025
    16736.401700       0.702834
    16764.459300       0.700638
    16792.611300       0.698437
    16820.857900       0.696232
    16849.199700       0.694022
    16877.637100       0.691806
    16906.170800       0.689586
    16934.801000       0.687361
    16963.528400       0.685131
    16992.353400       0.682895
    17021.276600       0.680654
    17050.298400       0.678407
    17079.419300       0.676155
    17108.639900       0.673897
    17137.960600       0.671633
    17167.382000       0.669364
    17196.904600       0.667088
    17226.528900       0.664806
    17256.255400       0.662518
    17286.084700       0.660224
    17316.017300       0.657923
    17346.053800       0.655616
    17376.194600       0.653302
    17406.440400       0.650981
    17436.791600       0.648653
    17467.248900       0.646319
    17497.812800       0.643977
    17528.483800       0.641628
    17559.262500       0.639272
    17590.149500       0.636909
    17621.145400       0.634538
    17652.250700       0.632160
    17683.466000       0.629774
    17714.791900       0.627380
    17746.228900       0.624978
    17777.777800       0.622568
    17809.439000       0.620151
    17841.213200       0.617725
    17873.101000       0.615291
    17905.103000       0.612849
    17937.219700       0.610398
    17969.451900       0.607939
    18001.800200       0.605471
    18034.265100       0.602995
    18066.847300       0.600510
    18099.547500       0.598016
    18132.366300       0.595514
    18165.304300       0.593002
    18198.362100       0.590481
    18231.540600       0.587952
    18264.840200       0.585413
    18298.261700       0.582865
    18331.805700       0.580307
    18365.472900       0.577741
    18399.264000       0.575165
    18433.179700       0.572579
    18467.220700       0.569984
    18501.387600       0.567380
    18535.681200       0.564766
    18570.102100       0.562142
    18604.651200       0.559509
    18639.329000       0.556866
    18674.136300       0.554214
    18709.073900       0.551551
    18744.142500       0.548879
    18779.342700       0.546197
    18814.675400       0.543505
    18850.141400       0.540804
    18885.741300       0.538093
    18921.475900       0.535372
    18957.346000       0.532641
    18993.352300       0.529900
    19029.495700       0.527149
    19065.776900       0.524389
    19102.196800       0.521619
    19138.756000       0.518839
    19175.455400       0.516049
    19212.295900       0.513250
    19249.278200       0.510441
    19286.403100       0.507622
    19323.671500       0.504794
    19361.084200       0.501956
    19398.642100       0.499109
    19436.346000       0.496252
    19474.196700       0.493385
    19512.195100       0.490510
    19550.342100       0.487625
    19588.638600       0.484731
    19627.085400       0.481828
    19665.683400       0.478916
    19704.433500       0.475995
    19743.336600       0.473065
    19782.393700       0.470126
    19821.605600       0.467178
    19860.973200       0.464223
    19900.497500       0.461258
    19940.179500       0.458286
    19980.020000       0.455305
    20020.020000       0.452316
    20060.180500       0.449319
    20100.502500       0.446314
    20140.986900       0.443302
    20181.634700       0.440282
    20222.446900       0.437255
    20263.424500       0.434220
    20304.568500       0.431179
    20345.880000       0.428131
    20387.359800       0.425076
    20429.009200       0.422014
    20470.829100       0.418946
    20512.820500       0.415872
    20554.984600       0.412792
    20597.322300       0.409706
    20639.834900       0.406615
    20682.523300       0.403518
    20725.388600       0.400416
    20768.432000       0.397309
    20811.654500       0.394198
    20855.057400       0.391082
    20898.641600       0.387962
    20942.408400       0.384837
    20986.358900       0.381709
    21030.494200       0.378578
    21074.815600       0.375443
    21119.324200       0.372305
    21164.021200       0.369165
    21208.907700       0.366022
    21253.985100       0.362876
    21299.254500       0.359729
    21344.717200       0.356580
    21390.374300       0.353430
    21436.227200       0.350278
    21482.277100       0.347126
    21528.525300       0.343973
    21574.973000       0.340820
    21621.621600       0.337667
    21668.472400       0.334514
    21715.526600       0.331362
    21762.785600       0.328211
    21810.250800       0.325061
    21857.923500       0.321913
    21905.805000       0.318767
    21953.896800       0.315623
    22002.200200       0.312482
    22050.716600       0.309344
    22099.447500       0.306208
    22148.394200       0.303077
    22197.558300       0.299949
    22246.941000       0.296826
    22296.544000       0.293707
    22346.368700       0.290593
    22396.416600       0.287484
    22446.689100       0.284381
    22497.187900       0.281284
    22547.914300       0.278193
    22598.870100       0.275109
    22650.056600       0.272032
    22701.475600       0.268962
    22753.128600       0.265900
    22805.017100       0.262846
    22857.142900       0.259800
    22909.507400       0.256764
    22962.112500       0.253736
    23014.959700       0.250718
    23068.050700       0.247709
    23121.387300       0.244711
    23174.971000       0.241723
    23228.803700       0.238746
    23282.887100       0.235780
    23337.222900       0.232826
    23391.812900       0.229884
    23446.658900       0.226953
    23501.762600       0.224036
    23557.126000       0.221131
    23612.750900       0.218239
    23668.639100       0.215361
    23724.792400       0.212497
    23781.212800       0.209647
    23837.902300       0.206811
    23894.862600       0.203990
    23952.095800       0.201184
    24009.603800       0.198394
    24067.388700       0.195619
    24125.452400       0.192860
    24183.796900       0.190118
    24242.424200       0.187391
    24301.336600       0.184682
    24360.535900       0.181990
    24420.024400       0.179314
    24479.804200       0.176657
    24539.877300       0.174017
    24600.246000       0.171395
    24660.912500       0.168791
    24721.878900       0.166206
    24783.147500       0.163639
    24844.720500       0.161091
    24906.600200       0.158562
    24968.789000       0.156052
    25031.289100       0.153561
    25094.102900       0.151089
    25157.232700       0.148638
    25220.681000       0.146205
    25284.450100       0.143793
    25348.542500       0.141400
    25412.960600       0.139027
    25477.707000       0.136674
