           1  , Jan 12th 2012 http://fy3.satellite.cma.gov.cn/ArssEn/Download/FY3A_calibration_info_params.rar
Number of data points:
364
Wavenumber (cm-1)   Filter response
      654.279000       0.000236
      654.364600       0.001281
      654.450300       0.002892
      654.535900       0.004895
      654.621600       0.006574
      654.707300       0.007208
      654.793100       0.007846
      654.878800       0.006921
      654.964700       0.005853
      655.050500       0.004957
      655.136300       0.004182
      655.222100       0.003621
      655.308000       0.003686
      655.393900       0.003727
      655.479900       0.003866
      655.565800       0.004012
      655.651700       0.004421
      655.737700       0.005006
      655.823700       0.005642
      655.909700       0.006405
      655.995800       0.007173
      656.081900       0.007255
      656.168000       0.007303
      656.254100       0.007283
      656.340300       0.007308
      656.426400       0.007385
      656.512600       0.007578
      656.598800       0.007772
      656.685100       0.007444
      656.771300       0.007107
      656.857600       0.006449
      656.943900       0.005627
      657.030200       0.004777
      657.116600       0.003846
      657.202900       0.002968
      657.289400       0.002737
      657.375700       0.002505
      657.462200       0.002976
      657.548600       0.003726
      657.635100       0.004336
      657.721600       0.004738
      657.808200       0.005067
      657.894800       0.004683
      657.981300       0.004264
      658.067900       0.004294
      658.154500       0.004438
      658.241100       0.004861
      658.327900       0.005593
      658.414600       0.006292
      658.501300       0.006809
      658.588000       0.007329
      658.674700       0.007677
      658.761500       0.007998
      658.848300       0.007908
      658.935200       0.007596
      659.022000       0.007307
      659.108900       0.007085
      659.195800       0.006863
      659.282700       0.007757
      659.369600       0.008713
      659.456600       0.009476
      659.543600       0.010137
      659.630600       0.010391
      659.717700       0.009830
      659.804700       0.009365
      659.891800       0.009237
      659.978900       0.009107
      660.066000       0.009755
      660.153100       0.010660
      660.240400       0.011565
      660.327500       0.012470
      660.414700       0.013255
      660.502000       0.013423
      660.589300       0.013493
      660.676600       0.013388
      660.763900       0.013244
      660.851200       0.013427
      660.938500       0.013846
      661.025900       0.014350
      661.113300       0.015052
      661.200700       0.015754
      661.288200       0.015742
      661.375700       0.015730
      661.463100       0.015617
      661.550700       0.015619
      661.638200       0.016096
      661.725800       0.017192
      661.813400       0.018271
      661.901000       0.019207
      661.988600       0.020150
      662.076300       0.019951
      662.163900       0.019578
      662.251600       0.019460
      662.339400       0.021325
      662.427100       0.021698
      662.514900       0.023283
      662.602700       0.024835
      662.690500       0.026226
      662.778400       0.027590
      662.866200       0.027134
      662.954200       0.026101
      663.042100       0.024518
      663.130000       0.022352
      663.218000       0.020602
      663.305900       0.020575
      663.393900       0.020547
      663.482000       0.021980
      663.570000       0.023588
      663.658100       0.025783
      663.746200       0.028291
      663.834300       0.030851
      663.922400       0.033473
      664.010600       0.035908
      664.098800       0.036263
      664.187100       0.037073
      664.275300       0.037416
      664.363500       0.037680
      664.451800       0.039240
      664.540100       0.041742
      664.628500       0.044732
      664.716900       0.048723
      664.805200       0.052672
      664.893600       0.055116
      664.982100       0.056888
      665.070500       0.059201
      665.158900       0.061501
      665.247500       0.064965
      665.336000       0.069468
      665.424600       0.074075
      665.513100       0.078868
      665.601700       0.083730
      665.690300       0.088960
      665.778900       0.094261
      665.867600       0.098934
      665.956300       0.104977
      666.045000       0.111390
      666.133700       0.118172
      666.222500       0.125543
      666.311300       0.134495
      666.400100       0.143568
      666.489000       0.154588
      666.577800       0.165752
      666.666700       0.178573
      666.755600       0.189785
      666.844500       0.205356
      666.933400       0.223203
      667.022400       0.242096
      667.111400       0.263656
      667.200400       0.285518
      667.289500       0.311545
      667.378500       0.337706
      667.467600       0.373880
      667.556800       0.413841
      667.645900       0.474068
      667.735000       0.563457
      667.824200       0.660076
      667.913500       0.775741
      668.002700       0.889152
      668.091900       0.920608
      668.181200       0.952161
      668.270500       0.971788
      668.359900       0.988255
      668.449200       1.000000
      668.538600       0.995888
      668.628000       0.999427
      668.717400       0.993547
      668.806900       0.986980
      668.896300       0.972369
      668.985800       0.957712
      669.075300       0.933844
      669.164900       0.908201
      669.254500       0.877563
      669.344100       0.843651
      669.433700       0.798931
      669.523300       0.762510
      669.613000       0.725955
      669.702600       0.689167
      669.792400       0.652259
      669.882100       0.616912
      669.971900       0.581589
      670.061600       0.548219
      670.151400       0.515689
      670.241300       0.484270
      670.331100       0.448733
      670.421000       0.419567
      670.510900       0.392403
      670.600900       0.365188
      670.690800       0.341226
      670.780800       0.317202
      670.870800       0.296553
      670.960800       0.276785
      671.050800       0.259872
      671.140900       0.245157
      671.231000       0.198587
      671.321200       0.190205
      671.411300       0.181511
      671.501500       0.172923
      671.591700       0.163988
      671.681900       0.155790
      671.772200       0.147393
      671.862400       0.139960
      671.952700       0.132835
      672.043000       0.126488
      672.133400       0.121151
      672.223700       0.113833
      672.314100       0.107886
      672.404500       0.102058
      672.494900       0.097079
      672.585400       0.092168
      672.675900       0.086937
      672.766400       0.081706
      672.856900       0.077070
      672.947500       0.072803
      673.038100       0.070445
      673.128700       0.067331
      673.219400       0.064245
      673.310000       0.061145
      673.400600       0.058088
      673.491400       0.054896
      673.582100       0.051750
      673.672900       0.048489
      673.763700       0.045239
      673.854400       0.042680
      673.945300       0.041388
      674.036100       0.039796
      674.127000       0.038991
      674.217900       0.038105
      674.308800       0.036863
      674.399800       0.035638
      674.490700       0.034319
      674.581700       0.033020
      674.672800       0.032280
      674.763900       0.031683
      674.854900       0.031077
      674.946000       0.029465
      675.037100       0.027617
      675.128200       0.025496
      675.219400       0.023666
      675.310700       0.022543
      675.401900       0.021435
      675.493100       0.020786
      675.584400       0.020142
      675.675700       0.019551
      675.767000       0.019339
      675.858300       0.018946
      675.949700       0.018664
      676.041100       0.018325
      676.132500       0.017915
      676.223900       0.017463
      676.315400       0.016888
      676.406900       0.016358
      676.498500       0.016330
      676.590000       0.016301
      676.681600       0.016439
      676.773100       0.016252
      676.864700       0.015945
      676.956400       0.015590
      677.048000       0.015306
      677.139800       0.015084
      677.231500       0.014591
      677.323200       0.013580
      677.415000       0.012687
      677.506800       0.012370
      677.598600       0.012282
      677.690400       0.013128
      677.782300       0.013986
      677.874200       0.013686
      677.966100       0.013114
      678.058000       0.011905
      678.150000       0.010333
      678.242000       0.009289
      678.334000       0.008866
      678.426100       0.008744
      678.518100       0.009548
      678.610200       0.010186
      678.702300       0.010830
      678.794400       0.011468
      678.886700       0.011874
      678.978800       0.012280
      679.071000       0.012496
      679.163300       0.012648
      679.255600       0.012472
      679.347800       0.012078
      679.440100       0.011653
      679.532500       0.010672
      679.624900       0.009764
      679.717200       0.009055
      679.809600       0.008467
      679.902100       0.008913
      679.994600       0.009358
      680.087000       0.010439
      680.179600       0.011559
      680.272100       0.011970
      680.364700       0.011785
      680.457300       0.011267
      680.549900       0.010245
      680.642500       0.009156
      680.735200       0.007987
      680.827900       0.007064
      680.920600       0.006739
      681.013400       0.006451
      681.106100       0.006399
      681.198900       0.006347
      681.291700       0.005855
      681.384600       0.005328
      681.477500       0.004979
      681.570300       0.004665
      681.663300       0.004686
      681.756200       0.004864
      681.849200       0.004698
      681.942200       0.004223
      682.035200       0.003560
      682.128200       0.002587
      682.221300       0.001953
      682.314400       0.002428
      682.407500       0.003013
      682.500700       0.004841
      682.593900       0.006674
      682.687100       0.007780
      682.780300       0.008837
      682.873500       0.009164
      682.966800       0.009296
      683.060100       0.009053
      683.153400       0.008646
      683.246800       0.007958
      683.340100       0.007038
      683.433600       0.006491
      683.527000       0.006610
      683.620400       0.006759
      683.713900       0.007019
      683.807400       0.007194
      683.901000       0.006405
      683.994500       0.005617
      684.088100       0.005723
      684.181700       0.005854
      684.275300       0.006460
      684.369000       0.007180
      684.462700       0.007325
      684.556400       0.007185
      684.650100       0.006857
      684.743900       0.006366
      684.837700       0.005738
      684.931500       0.004908
      685.025400       0.004098
      685.119200       0.003255
      685.213100       0.002567
      685.307000       0.002828
      685.400900       0.003091
      685.494900       0.003656
      685.588900       0.004220
      685.683000       0.004104
      685.777000       0.003898
      685.871000       0.003067
      685.965100       0.002046
      686.059300       0.001344
      686.153400       0.000838
      686.247600       0.000975
      686.341800       0.001739
      686.436000       0.002333
      686.530300       0.002654
      686.624600       0.002653
      686.718900       0.001738
      686.813200       0.000846
      686.907500       0.000086
