   4  ,noaa_16_hirs_04.flt
Number of data points:
78
Wavenumber (cm-1)   Filter response
      679.000000       0.000000
      679.230000       0.007287
      679.670000       0.007356
      680.110000       0.007408
      680.690000       0.005228
      681.500000       0.007510
      682.450000       0.007577
      683.190000       0.007630
      683.410000       0.005352
      683.920000       0.001914
      684.360000       0.006566
      685.020000       0.013703
      685.540000       0.014978
      686.270000       0.015101
      687.150000       0.020087
      687.740000       0.026312
      688.180000       0.031342
      688.770000       0.036482
      689.060000       0.047739
      689.430000       0.059124
      689.870000       0.073175
      690.390000       0.089926
      690.900000       0.110650
      691.270000       0.128860
      691.790000       0.155110
      692.380000       0.184360
      692.820000       0.220100
      693.420000       0.273490
      694.010000       0.339310
      694.680000       0.396190
      695.270000       0.472890
      695.720000       0.529610
      696.240000       0.579620
      696.540000       0.620170
      696.910000       0.655120
      697.210000       0.696670
      697.650000       0.741760
      698.020000       0.779280
      698.390000       0.816510
      698.830000       0.846950
      699.130000       0.876300
      699.500000       0.903700
      699.870000       0.923910
      700.170000       0.943500
      700.610000       0.965950
      701.050000       0.982980
      701.420000       0.995100
      701.710000       0.999350
      702.080000       1.000000
      702.440000       0.999180
      702.810000       0.993960
      703.170000       0.978450
      703.760000       0.954560
      704.270000       0.928220
      704.780000       0.885110
      705.500000       0.832040
      706.230000       0.747810
      706.950000       0.659660
      707.610000       0.583970
      708.410000       0.498930
      708.910000       0.430370
      709.420000       0.364370
      710.000000       0.301110
      710.360000       0.267880
      710.870000       0.213000
      711.670000       0.158030
      712.620000       0.113520
      713.280000       0.085630
      714.080000       0.063877
      715.110000       0.045130
      715.840000       0.030888
      716.720000       0.019745
      717.530000       0.016593
      718.410000       0.011763
      719.290000       0.008516
      720.170000       0.010211
      721.200000       0.005231
      722.000000       0.000000
