138,   138, MVIRI VIS channel from srf_MET7_2014303_2014304_1801-Release_S10EE_10.dat
Number of data points:
793
Wavenumber (cm-1)   Filter response
     8442.380800       0.000000
     8449.514200       0.000000
     8456.659600       0.000004
     8463.817200       0.000057
     8470.986900       0.000168
     8478.168700       0.000337
     8485.362700       0.000561
     8492.569000       0.000838
     8499.787500       0.001168
     8507.018300       0.001548
     8514.261400       0.001977
     8521.516800       0.002454
     8528.784600       0.002978
     8536.064900       0.003547
     8543.357500       0.004159
     8550.662700       0.004814
     8557.980300       0.005510
     8565.310500       0.006247
     8572.653200       0.007023
     8580.008600       0.007837
     8587.376600       0.008688
     8594.757200       0.009576
     8602.150500       0.010498
     8609.556600       0.011456
     8616.975400       0.012446
     8624.407100       0.013470
     8631.851500       0.014526
     8639.308900       0.015612
     8646.779100       0.016729
     8654.262200       0.017876
     8661.758300       0.019053
     8669.267400       0.020258
     8676.789600       0.021491
     8684.324800       0.022751
     8691.873100       0.024039
     8699.434500       0.025353
     8707.009100       0.026693
     8714.596900       0.028058
     8722.198000       0.029449
     8729.812300       0.030864
     8737.439900       0.032304
     8745.080900       0.033767
     8752.735200       0.035255
     8760.403000       0.036766
     8768.084200       0.038300
     8775.778900       0.039857
     8783.487000       0.041436
     8791.208800       0.043038
     8798.944100       0.044662
     8806.693100       0.046308
     8814.455700       0.047976
     8822.232000       0.049665
     8830.022100       0.051376
     8837.825900       0.053109
     8845.643500       0.054863
     8853.475000       0.056637
     8861.320300       0.058433
     8869.179600       0.060250
     8877.052800       0.062088
     8884.940000       0.063947
     8892.841300       0.065827
     8900.756600       0.067728
     8908.686000       0.069649
     8916.629500       0.071591
     8924.587200       0.073554
     8932.559200       0.075538
     8940.545400       0.077543
     8948.545900       0.079569
     8956.560700       0.081615
     8964.589900       0.083682
     8972.633500       0.085771
     8980.691500       0.087880
     8988.764000       0.090011
     8996.851100       0.092162
     9004.952700       0.094335
     9013.068900       0.096529
     9021.199800       0.098744
     9029.345400       0.100981
     9037.505600       0.103239
     9045.680700       0.105519
     9053.870500       0.107820
     9062.075200       0.110143
     9070.294800       0.112488
     9078.529300       0.114854
     9086.778700       0.117243
     9095.043200       0.119654
     9103.322700       0.122087
     9111.617300       0.124542
     9119.927000       0.127020
     9128.251900       0.129520
     9136.592100       0.132042
     9144.947400       0.134587
     9153.318100       0.137155
     9161.704100       0.139745
     9170.105500       0.142358
     9178.522300       0.144994
     9186.954500       0.147653
     9195.402300       0.150336
     9203.865600       0.153041
     9212.344500       0.155770
     9220.839100       0.158521
     9229.349300       0.161296
     9237.875300       0.164095
     9246.417000       0.166917
     9254.974500       0.169762
     9263.547900       0.172631
     9272.137200       0.175524
     9280.742500       0.178440
     9289.363700       0.181380
     9298.000900       0.184344
     9306.654300       0.187331
     9315.323700       0.190342
     9324.009300       0.193377
     9332.711200       0.196436
     9341.429200       0.199518
     9350.163600       0.202624
     9358.914400       0.205754
     9367.681500       0.208908
     9376.465100       0.212085
     9385.265100       0.215286
     9394.081700       0.218511
     9402.914900       0.221759
     9411.764700       0.225032
     9420.631200       0.228328
     9429.514400       0.231647
     9438.414300       0.234990
     9447.331100       0.238355
     9456.264800       0.241745
     9465.215300       0.245158
     9474.182900       0.248594
     9483.167400       0.252053
     9492.169000       0.255535
     9501.187600       0.259040
     9510.223500       0.262568
     9519.276500       0.266118
     9528.346800       0.269691
     9537.434400       0.273287
     9546.539400       0.276904
     9555.661700       0.280544
     9564.801500       0.284206
     9573.958800       0.287890
     9583.133700       0.291596
     9592.326100       0.295322
     9601.536200       0.299071
     9610.764100       0.302840
     9620.009600       0.306631
     9629.273000       0.310443
     9638.554200       0.314274
     9647.853400       0.318127
     9657.170400       0.321999
     9666.505600       0.325892
     9675.858700       0.329804
     9685.230000       0.333736
     9694.619500       0.337687
     9704.027200       0.341657
     9713.453100       0.345646
     9722.897400       0.349654
     9732.360100       0.353679
     9741.841200       0.357723
     9751.340800       0.361784
     9760.859000       0.365863
     9770.395700       0.369959
     9779.951100       0.374072
     9789.525200       0.378202
     9799.118100       0.382348
     9808.729800       0.386509
     9818.360300       0.390687
     9828.009800       0.394879
     9837.678300       0.399087
     9847.365800       0.403310
     9857.072400       0.407546
     9866.798200       0.411797
     9876.543200       0.416061
     9886.307500       0.420339
     9896.091000       0.424630
     9905.894000       0.428933
     9915.716400       0.433248
     9925.558300       0.437575
     9935.419800       0.441914
     9945.300800       0.446264
     9955.201600       0.450624
     9965.122100       0.454995
     9975.062300       0.459376
     9985.022500       0.463766
     9995.002500       0.468166
    10005.002500       0.472574
    10015.022500       0.476991
    10025.062700       0.481415
    10035.122900       0.485847
    10045.203400       0.490285
    10055.304200       0.494731
    10065.425300       0.499183
    10075.566800       0.503640
    10085.728700       0.508103
    10095.911200       0.512571
    10106.114200       0.517043
    10116.337900       0.521520
    10126.582300       0.525999
    10136.847400       0.530482
    10147.133400       0.534968
    10157.440300       0.539456
    10167.768200       0.543946
    10178.117000       0.548437
    10188.487000       0.552929
    10198.878100       0.557421
    10209.290500       0.561913
    10219.724100       0.566405
    10230.179000       0.570896
    10240.655400       0.575385
    10251.153300       0.579873
    10261.672700       0.584358
    10272.213700       0.588840
    10282.776300       0.593318
    10293.360800       0.597793
    10303.967000       0.602264
    10314.595200       0.606730
    10325.245200       0.611190
    10335.917300       0.615645
    10346.611500       0.620094
    10357.327800       0.624536
    10368.066400       0.628971
    10378.827200       0.633398
    10389.610400       0.637817
    10400.416000       0.642228
    10411.244100       0.646629
    10422.094800       0.651021
    10432.968200       0.655403
    10443.864200       0.659775
    10454.783100       0.664135
    10465.724800       0.668484
    10476.689400       0.672821
    10487.677000       0.677146
    10498.687700       0.681458
    10509.721500       0.685756
    10520.778500       0.690041
    10531.858900       0.694311
    10542.962600       0.698567
    10554.089700       0.702808
    10565.240400       0.707033
    10576.414600       0.711241
    10587.612500       0.715433
    10598.834100       0.719609
    10610.079600       0.723766
    10621.348900       0.727906
    10632.642200       0.732027
    10643.959600       0.736130
    10655.301000       0.740213
    10666.666700       0.744276
    10678.056600       0.748320
    10689.470900       0.752342
    10700.909600       0.756344
    10712.372800       0.760324
    10723.860600       0.764283
    10735.373100       0.768219
    10746.910300       0.772132
    10758.472300       0.776022
    10770.059200       0.779889
    10781.671200       0.783731
    10793.308100       0.787549
    10804.970300       0.791343
    10816.657700       0.795111
    10828.370300       0.798854
    10840.108400       0.802571
    10851.871900       0.806261
    10863.661100       0.809925
    10875.475800       0.813561
    10887.316300       0.817170
    10899.182600       0.820751
    10911.074700       0.824304
    10922.992900       0.827829
    10934.937100       0.831324
    10946.907500       0.834790
    10958.904100       0.838227
    10970.927000       0.841634
    10982.976400       0.845010
    10995.052200       0.848356
    11007.154700       0.851670
    11019.283700       0.854954
    11031.439600       0.858206
    11043.622300       0.861425
    11055.832000       0.864613
    11068.068600       0.867768
    11080.332400       0.870891
    11092.623400       0.873980
    11104.941700       0.877036
    11117.287400       0.880058
    11129.660500       0.883047
    11142.061300       0.886001
    11154.489700       0.888921
    11166.945800       0.891806
    11179.429800       0.894656
    11191.941800       0.897471
    11204.481800       0.900251
    11217.049900       0.902995
    11229.646300       0.905703
    11242.270900       0.908375
    11254.924000       0.911011
    11267.605600       0.913610
    11280.315800       0.916172
    11293.054800       0.918698
    11305.822500       0.921186
    11318.619100       0.923638
    11331.444800       0.926052
    11344.299500       0.928428
    11357.183400       0.930767
    11370.096600       0.933067
    11383.039300       0.935330
    11396.011400       0.937554
    11409.013100       0.939740
    11422.044500       0.941888
    11435.105800       0.943997
    11448.196900       0.946068
    11461.318100       0.948099
    11474.469300       0.950092
    11487.650800       0.952046
    11500.862600       0.953961
    11514.104800       0.955837
    11527.377500       0.957673
    11540.680900       0.959470
    11554.015000       0.961228
    11567.380000       0.962946
    11580.775900       0.964625
    11594.202900       0.966265
    11607.661100       0.967865
    11621.150500       0.969426
    11634.671300       0.970947
    11648.223600       0.972428
    11661.807600       0.973870
    11675.423200       0.975272
    11689.070700       0.976635
    11702.750100       0.977959
    11716.461600       0.979242
    11730.205300       0.980487
    11743.981200       0.981692
    11757.789500       0.982857
    11771.630400       0.983983
    11785.503800       0.985070
    11799.410000       0.986118
    11813.349100       0.987126
    11827.321100       0.988096
    11841.326200       0.989026
    11855.364600       0.989918
    11869.436200       0.990771
    11883.541300       0.991585
    11897.680000       0.992360
    11911.852300       0.993098
    11926.058400       0.993796
    11940.298500       0.994457
    11954.572600       0.995079
    11968.880900       0.995664
    11983.223500       0.996211
    11997.600500       0.996720
    12012.012000       0.997191
    12026.458200       0.997626
    12040.939200       0.998023
    12055.455100       0.998383
    12070.006000       0.998707
    12084.592100       0.998994
    12099.213600       0.999245
    12113.870400       0.999459
    12128.562800       0.999638
    12143.290800       0.999781
    12158.054700       0.999888
    12172.854500       0.999961
    12187.690400       0.999998
    12202.562500       1.000000
    12217.471000       0.999968
    12232.415900       0.999901
    12247.397400       0.999801
    12262.415700       0.999667
    12277.470800       0.999499
    12292.563000       0.999298
    12307.692300       0.999064
    12322.858900       0.998797
    12338.062900       0.998498
    12353.304500       0.998167
    12368.583800       0.997804
    12383.900900       0.997410
    12399.256000       0.996985
    12414.649300       0.996528
    12430.080800       0.996042
    12445.550700       0.995525
    12461.059200       0.994978
    12476.606400       0.994401
    12492.192400       0.993796
    12507.817400       0.993161
    12523.481500       0.992498
    12539.185000       0.991807
    12554.927800       0.991089
    12570.710200       0.990342
    12586.532400       0.989569
    12602.394500       0.988769
    12618.296500       0.987942
    12634.238800       0.987090
    12650.221400       0.986212
    12666.244500       0.985309
    12682.308200       0.984381
    12698.412700       0.983429
    12714.558200       0.982452
    12730.744700       0.981452
    12746.972600       0.980429
    12763.241900       0.979383
    12779.552700       0.978315
    12795.905300       0.977224
    12812.299800       0.976112
    12828.736400       0.974979
    12845.215200       0.973825
    12861.736300       0.972651
    12878.300100       0.971457
    12894.906500       0.970243
    12911.555800       0.969010
    12928.248200       0.967759
    12944.983800       0.966489
    12961.762800       0.965202
    12978.585300       0.963897
    12995.451600       0.962576
    13012.361700       0.961238
    13029.316000       0.959884
    13046.314400       0.958514
    13063.357300       0.957129
    13080.444700       0.955730
    13097.576900       0.954316
    13114.754100       0.952889
    13131.976400       0.951448
    13149.243900       0.949995
    13166.556900       0.948528
    13183.915600       0.947050
    13201.320100       0.945561
    13218.770700       0.944060
    13236.267400       0.942549
    13253.810500       0.941027
    13271.400100       0.939496
    13289.036500       0.937955
    13306.719900       0.936406
    13324.450400       0.934848
    13342.228200       0.933283
    13360.053400       0.931710
    13377.926400       0.930130
    13395.847300       0.928543
    13413.816200       0.926950
    13431.833400       0.925352
    13449.899100       0.923748
    13468.013500       0.922140
    13486.176700       0.920527
    13504.388900       0.918910
    13522.650400       0.917290
    13540.961400       0.915667
    13559.322000       0.914042
    13577.732500       0.912414
    13596.193100       0.910785
    13614.703900       0.909154
    13633.265200       0.907523
    13651.877100       0.905891
    13670.540000       0.904259
    13689.253900       0.902628
    13708.019200       0.900998
    13726.836000       0.899369
    13745.704500       0.897741
    13764.624900       0.896116
    13783.597500       0.894494
    13802.622500       0.892874
    13821.700100       0.891258
    13840.830400       0.889646
    13860.013900       0.888038
    13879.250500       0.886434
    13898.540700       0.884836
    13917.884500       0.883243
    13937.282200       0.881655
    13956.734100       0.880074
    13976.240400       0.878500
    13995.801300       0.876932
    14015.417000       0.875372
    14035.087700       0.873819
    14054.813800       0.872274
    14074.595400       0.870738
    14094.432700       0.869210
    14114.326000       0.867692
    14134.275600       0.866182
    14154.281700       0.864683
    14174.344400       0.863194
    14194.464200       0.861715
    14214.641100       0.860247
    14234.875400       0.858790
    14255.167500       0.857344
    14275.517500       0.855911
    14295.925700       0.854489
    14316.392300       0.853079
    14336.917600       0.851682
    14357.501800       0.850298
    14378.145200       0.848927
    14398.848100       0.847570
    14419.610700       0.846226
    14440.433200       0.844896
    14461.316000       0.843581
    14482.259200       0.842280
    14503.263200       0.840993
    14524.328200       0.839722
    14545.454500       0.838466
    14566.642400       0.837225
    14587.892000       0.836000
    14609.203800       0.834791
    14630.577900       0.833597
    14652.014700       0.832420
    14673.514300       0.831260
    14695.077100       0.830116
    14716.703500       0.828989
    14738.393500       0.827879
    14760.147600       0.826786
    14781.966000       0.825710
    14803.849000       0.824652
    14825.796900       0.823611
    14847.809900       0.822588
    14869.888500       0.821583
    14892.032800       0.820596
    14914.243100       0.819627
    14936.519800       0.818676
    14958.863100       0.817743
    14981.273400       0.816829
    15003.750900       0.815933
    15026.296000       0.815056
    15048.909000       0.814197
    15071.590100       0.813356
    15094.339600       0.812535
    15117.158000       0.811732
    15140.045400       0.810947
    15163.002300       0.810182
    15186.028900       0.809435
    15209.125500       0.808707
    15232.292500       0.807997
    15255.530100       0.807307
    15278.838800       0.806635
    15302.218800       0.805981
    15325.670500       0.805347
    15349.194200       0.804731
    15372.790200       0.804133
    15396.458800       0.803554
    15420.200500       0.802993
    15444.015400       0.802451
    15467.904100       0.801926
    15491.866800       0.801420
    15515.903800       0.800932
    15540.015500       0.800462
    15564.202300       0.800009
    15588.464500       0.799574
    15612.802500       0.799157
    15637.216600       0.798756
    15661.707100       0.798373
    15686.274500       0.798007
    15710.919100       0.797657
    15735.641200       0.797325
    15760.441300       0.797008
    15785.319700       0.796708
    15810.276700       0.796423
    15835.312700       0.796155
    15860.428200       0.795902
    15885.623500       0.795664
    15910.899000       0.795441
    15936.255000       0.795233
    15961.691900       0.795039
    15987.210200       0.794859
    16012.810200       0.794693
    16038.492400       0.794541
    16064.257000       0.794402
    16090.104600       0.794276
    16116.035500       0.794163
    16142.050000       0.794062
    16168.148700       0.793973
    16194.332000       0.793895
    16220.600200       0.793829
    16246.953700       0.793773
    16273.393000       0.793728
    16299.918500       0.793693
    16326.530600       0.793668
    16353.229800       0.793652
    16380.016400       0.793645
    16406.890900       0.793646
    16433.853700       0.793656
    16460.905300       0.793673
    16488.046200       0.793697
    16515.276600       0.793727
    16542.597200       0.793764
    16570.008300       0.793807
    16597.510400       0.793855
    16625.103900       0.793908
    16652.789300       0.793965
    16680.567100       0.794025
    16708.437800       0.794089
    16736.401700       0.794156
    16764.459300       0.794225
    16792.611300       0.794295
    16820.857900       0.794367
    16849.199700       0.794440
    16877.637100       0.794512
    16906.170800       0.794584
    16934.801000       0.794655
    16963.528400       0.794724
    16992.353400       0.794790
    17021.276600       0.794854
    17050.298400       0.794915
    17079.419300       0.794971
    17108.639900       0.795023
    17137.960600       0.795070
    17167.382000       0.795111
    17196.904600       0.795145
    17226.528900       0.795172
    17256.255400       0.795191
    17286.084700       0.795202
    17316.017300       0.795203
    17346.053800       0.795195
    17376.194600       0.795177
    17406.440400       0.795147
    17436.791600       0.795106
    17467.248900       0.795052
    17497.812800       0.794986
    17528.483800       0.794905
    17559.262500       0.794810
    17590.149500       0.794700
    17621.145400       0.794574
    17652.250700       0.794431
    17683.466000       0.794271
    17714.791900       0.794094
    17746.228900       0.793897
    17777.777800       0.793681
    17809.439000       0.793445
    17841.213200       0.793188
    17873.101000       0.792910
    17905.103000       0.792610
    17937.219700       0.792286
    17969.451900       0.791939
    18001.800200       0.791567
    18034.265100       0.791170
    18066.847300       0.790747
    18099.547500       0.790297
    18132.366300       0.789821
    18165.304300       0.789315
    18198.362100       0.788782
    18231.540600       0.788218
    18264.840200       0.787624
    18298.261700       0.786999
    18331.805700       0.786343
    18365.472900       0.785653
    18399.264000       0.784931
    18433.179700       0.784175
    18467.220700       0.783383
    18501.387600       0.782557
    18535.681200       0.781694
    18570.102100       0.780794
    18604.651200       0.779857
    18639.329000       0.778881
    18674.136300       0.777866
    18709.073900       0.776811
    18744.142500       0.775716
    18779.342700       0.774580
    18814.675400       0.773402
    18850.141400       0.772181
    18885.741300       0.770917
    18921.475900       0.769608
    18957.346000       0.768255
    18993.352300       0.766857
    19029.495700       0.765413
    19065.776900       0.763922
    19102.196800       0.762384
    19138.756000       0.760797
    19175.455400       0.759162
    19212.295900       0.757478
    19249.278200       0.755744
    19286.403100       0.753959
    19323.671500       0.752123
    19361.084200       0.750235
    19398.642100       0.748295
    19436.346000       0.746302
    19474.196700       0.744255
    19512.195100       0.742155
    19550.342100       0.739999
    19588.638600       0.737788
    19627.085400       0.735522
    19665.683400       0.733199
    19704.433500       0.730819
    19743.336600       0.728382
    19782.393700       0.725887
    19821.605600       0.723334
    19860.973200       0.720722
    19900.497500       0.718051
    19940.179500       0.715320
    19980.020000       0.712529
    20020.020000       0.709677
    20060.180500       0.706764
    20100.502500       0.703790
    20140.986900       0.700755
    20181.634700       0.697657
    20222.446900       0.694497
    20263.424500       0.691275
    20304.568500       0.687989
    20345.880000       0.684640
    20387.359800       0.681228
    20429.009200       0.677751
    20470.829100       0.674211
    20512.820500       0.670606
    20554.984600       0.666937
    20597.322300       0.663204
    20639.834900       0.659405
    20682.523300       0.655542
    20725.388600       0.651614
    20768.432000       0.647620
    20811.654500       0.643562
    20855.057400       0.639438
    20898.641600       0.635249
    20942.408400       0.630994
    20986.358900       0.626675
    21030.494200       0.622290
    21074.815600       0.617840
    21119.324200       0.613326
    21164.021200       0.608746
    21208.907700       0.604101
    21253.985100       0.599392
    21299.254500       0.594619
    21344.717200       0.589781
    21390.374300       0.584880
    21436.227200       0.579915
    21482.277100       0.574887
    21528.525300       0.569795
    21574.973000       0.564641
    21621.621600       0.559425
    21668.472400       0.554148
    21715.526600       0.548809
    21762.785600       0.543409
    21810.250800       0.537949
    21857.923500       0.532429
    21905.805000       0.526850
    21953.896800       0.521212
    22002.200200       0.515517
    22050.716600       0.509764
    22099.447500       0.503955
    22148.394200       0.498091
    22197.558300       0.492171
    22246.941000       0.486198
    22296.544000       0.480171
    22346.368700       0.474092
    22396.416600       0.467961
    22446.689100       0.461780
    22497.187900       0.455550
    22547.914300       0.449272
    22598.870100       0.442946
    22650.056600       0.436575
    22701.475600       0.430158
    22753.128600       0.423698
    22805.017100       0.417196
    22857.142900       0.410652
    22909.507400       0.404069
    22962.112500       0.397447
    23014.959700       0.390788
    23068.050700       0.384094
    23121.387300       0.377366
    23174.971000       0.370606
    23228.803700       0.363815
    23282.887100       0.356995
    23337.222900       0.350147
    23391.812900       0.343274
    23446.658900       0.336377
    23501.762600       0.329459
    23557.126000       0.322520
    23612.750900       0.315563
    23668.639100       0.308590
    23724.792400       0.301603
    23781.212800       0.294604
    23837.902300       0.287595
    23894.862600       0.280578
    23952.095800       0.273556
    24009.603800       0.266531
    24067.388700       0.259506
    24125.452400       0.252482
    24183.796900       0.245463
    24242.424200       0.238450
    24301.336600       0.231447
    24360.535900       0.224455
    24420.024400       0.217479
    24479.804200       0.210519
    24539.877300       0.203581
    24600.246000       0.196665
    24660.912500       0.189775
    24721.878900       0.182915
    24783.147500       0.176086
    24844.720500       0.169293
    24906.600200       0.162538
    24968.789000       0.155825
    25031.289100       0.149157
    25094.102900       0.142538
    25157.232700       0.135970
    25220.681000       0.129457
    25284.450100       0.123003
    25348.542500       0.116612
    25412.960600       0.110287
    25477.707000       0.104032
