120,   120, MVIRI VIS channel from srf_MET5_2006078_2006079_1801-Release_S10EL_10.dat
Number of data points:
806
Wavenumber (cm-1)   Filter response
     8350.730700       0.000000
     8357.710000       0.000000
     8364.701000       0.000000
     8371.703600       0.000002
     8378.718100       0.000004
     8385.744200       0.000009
     8392.782200       0.000017
     8399.832000       0.000028
     8406.893700       0.000043
     8413.967200       0.000062
     8421.052600       0.000086
     8428.150000       0.000115
     8435.259400       0.000150
     8442.380800       0.000192
     8449.514200       0.000240
     8456.659600       0.000295
     8463.817200       0.000358
     8470.986900       0.000428
     8478.168700       0.000507
     8485.362700       0.000595
     8492.569000       0.000692
     8499.787500       0.000797
     8507.018300       0.000913
     8514.261400       0.001039
     8521.516800       0.001175
     8528.784600       0.001321
     8536.064900       0.001479
     8543.357500       0.001648
     8550.662700       0.001828
     8557.980300       0.002020
     8565.310500       0.002223
     8572.653200       0.002439
     8580.008600       0.002668
     8587.376600       0.002909
     8594.757200       0.003163
     8602.150500       0.003430
     8609.556600       0.003711
     8616.975400       0.004005
     8624.407100       0.004313
     8631.851500       0.004634
     8639.308900       0.004970
     8646.779100       0.005320
     8654.262200       0.005684
     8661.758300       0.006064
     8669.267400       0.006457
     8676.789600       0.006866
     8684.324800       0.007290
     8691.873100       0.007729
     8699.434500       0.008184
     8707.009100       0.008654
     8714.596900       0.009140
     8722.198000       0.009642
     8729.812300       0.010160
     8737.439900       0.010693
     8745.080900       0.011244
     8752.735200       0.011810
     8760.403000       0.012393
     8768.084200       0.012993
     8775.778900       0.013609
     8783.487000       0.014243
     8791.208800       0.014893
     8798.944100       0.015561
     8806.693100       0.016245
     8814.455700       0.016948
     8822.232000       0.017667
     8830.022100       0.018404
     8837.825900       0.019159
     8845.643500       0.019932
     8853.475000       0.020723
     8861.320300       0.021531
     8869.179600       0.022358
     8877.052800       0.023203
     8884.940000       0.024067
     8892.841300       0.024949
     8900.756600       0.025850
     8908.686000       0.026769
     8916.629500       0.027707
     8924.587200       0.028664
     8932.559200       0.029640
     8940.545400       0.030635
     8948.545900       0.031649
     8956.560700       0.032683
     8964.589900       0.033736
     8972.633500       0.034808
     8980.691500       0.035901
     8988.764000       0.037013
     8996.851100       0.038144
     9004.952700       0.039296
     9013.068900       0.040467
     9021.199800       0.041659
     9029.345400       0.042871
     9037.505600       0.044103
     9045.680700       0.045356
     9053.870500       0.046629
     9062.075200       0.047923
     9070.294800       0.049237
     9078.529300       0.050572
     9086.778700       0.051929
     9095.043200       0.053306
     9103.322700       0.054704
     9111.617300       0.056123
     9119.927000       0.057564
     9128.251900       0.059026
     9136.592100       0.060510
     9144.947400       0.062014
     9153.318100       0.063541
     9161.704100       0.065089
     9170.105500       0.066659
     9178.522300       0.068251
     9186.954500       0.069865
     9195.402300       0.071501
     9203.865600       0.073159
     9212.344500       0.074840
     9220.839100       0.076542
     9229.349300       0.078267
     9237.875300       0.080015
     9246.417000       0.081785
     9254.974500       0.083577
     9263.547900       0.085393
     9272.137200       0.087231
     9280.742500       0.089092
     9289.363700       0.090975
     9298.000900       0.092882
     9306.654300       0.094812
     9315.323700       0.096765
     9324.009300       0.098741
     9332.711200       0.100740
     9341.429200       0.102762
     9350.163600       0.104808
     9358.914400       0.106877
     9367.681500       0.108970
     9376.465100       0.111086
     9385.265100       0.113226
     9394.081700       0.115389
     9402.914900       0.117576
     9411.764700       0.119786
     9420.631200       0.122020
     9429.514400       0.124278
     9438.414300       0.126560
     9447.331100       0.128865
     9456.264800       0.131194
     9465.215300       0.133548
     9474.182900       0.135924
     9483.167400       0.138325
     9492.169000       0.140750
     9501.187600       0.143199
     9510.223500       0.145671
     9519.276500       0.148168
     9528.346800       0.150688
     9537.434400       0.153233
     9546.539400       0.155801
     9555.661700       0.158393
     9564.801500       0.161009
     9573.958800       0.163649
     9583.133700       0.166314
     9592.326100       0.169001
     9601.536200       0.171713
     9610.764100       0.174448
     9620.009600       0.177208
     9629.273000       0.179991
     9638.554200       0.182797
     9647.853400       0.185628
     9657.170400       0.188482
     9666.505600       0.191360
     9675.858700       0.194261
     9685.230000       0.197185
     9694.619500       0.200134
     9704.027200       0.203105
     9713.453100       0.206100
     9722.897400       0.209118
     9732.360100       0.212158
     9741.841200       0.215223
     9751.340800       0.218310
     9760.859000       0.221420
     9770.395700       0.224553
     9779.951100       0.227708
     9789.525200       0.230886
     9799.118100       0.234087
     9808.729800       0.237310
     9818.360300       0.240555
     9828.009800       0.243822
     9837.678300       0.247112
     9847.365800       0.250423
     9857.072400       0.253756
     9866.798200       0.257111
     9876.543200       0.260487
     9886.307500       0.263885
     9896.091000       0.267304
     9905.894000       0.270744
     9915.716400       0.274205
     9925.558300       0.277686
     9935.419800       0.281189
     9945.300800       0.284712
     9955.201600       0.288254
     9965.122100       0.291817
     9975.062300       0.295400
     9985.022500       0.299003
     9995.002500       0.302625
    10005.002500       0.306267
    10015.022500       0.309927
    10025.062700       0.313607
    10035.122900       0.317305
    10045.203400       0.321021
    10055.304200       0.324757
    10065.425300       0.328510
    10075.566800       0.332281
    10085.728700       0.336069
    10095.911200       0.339875
    10106.114200       0.343698
    10116.337900       0.347538
    10126.582300       0.351395
    10136.847400       0.355268
    10147.133400       0.359158
    10157.440300       0.363063
    10167.768200       0.366984
    10178.117000       0.370920
    10188.487000       0.374871
    10198.878100       0.378838
    10209.290500       0.382818
    10219.724100       0.386813
    10230.179000       0.390822
    10240.655400       0.394845
    10251.153300       0.398882
    10261.672700       0.402931
    10272.213700       0.406993
    10282.776300       0.411068
    10293.360800       0.415155
    10303.967000       0.419254
    10314.595200       0.423364
    10325.245200       0.427486
    10335.917300       0.431619
    10346.611500       0.435762
    10357.327800       0.439916
    10368.066400       0.444079
    10378.827200       0.448253
    10389.610400       0.452436
    10400.416000       0.456627
    10411.244100       0.460827
    10422.094800       0.465036
    10432.968200       0.469252
    10443.864200       0.473477
    10454.783100       0.477708
    10465.724800       0.481946
    10476.689400       0.486191
    10487.677000       0.490442
    10498.687700       0.494699
    10509.721500       0.498961
    10520.778500       0.503228
    10531.858900       0.507500
    10542.962600       0.511776
    10554.089700       0.516056
    10565.240400       0.520340
    10576.414600       0.524627
    10587.612500       0.528916
    10598.834100       0.533208
    10610.079600       0.537503
    10621.348900       0.541798
    10632.642200       0.546095
    10643.959600       0.550393
    10655.301000       0.554691
    10666.666700       0.558990
    10678.056600       0.563288
    10689.470900       0.567585
    10700.909600       0.571881
    10712.372800       0.576176
    10723.860600       0.580468
    10735.373100       0.584759
    10746.910300       0.589046
    10758.472300       0.593331
    10770.059200       0.597612
    10781.671200       0.601888
    10793.308100       0.606161
    10804.970300       0.610429
    10816.657700       0.614691
    10828.370300       0.618948
    10840.108400       0.623199
    10851.871900       0.627444
    10863.661100       0.631682
    10875.475800       0.635912
    10887.316300       0.640135
    10899.182600       0.644349
    10911.074700       0.648556
    10922.992900       0.652753
    10934.937100       0.656941
    10946.907500       0.661119
    10958.904100       0.665288
    10970.927000       0.669446
    10982.976400       0.673592
    10995.052200       0.677728
    11007.154700       0.681851
    11019.283700       0.685963
    11031.439600       0.690062
    11043.622300       0.694148
    11055.832000       0.698220
    11068.068600       0.702279
    11080.332400       0.706324
    11092.623400       0.710354
    11104.941700       0.714369
    11117.287400       0.718369
    11129.660500       0.722352
    11142.061300       0.726320
    11154.489700       0.730272
    11166.945800       0.734206
    11179.429800       0.738123
    11191.941800       0.742022
    11204.481800       0.745903
    11217.049900       0.749765
    11229.646300       0.753609
    11242.270900       0.757433
    11254.924000       0.761238
    11267.605600       0.765023
    11280.315800       0.768787
    11293.054800       0.772531
    11305.822500       0.776253
    11318.619100       0.779954
    11331.444800       0.783633
    11344.299500       0.787290
    11357.183400       0.790925
    11370.096600       0.794536
    11383.039300       0.798124
    11396.011400       0.801689
    11409.013100       0.805230
    11422.044500       0.808746
    11435.105800       0.812238
    11448.196900       0.815705
    11461.318100       0.819146
    11474.469300       0.822562
    11487.650800       0.825952
    11500.862600       0.829316
    11514.104800       0.832653
    11527.377500       0.835963
    11540.680900       0.839246
    11554.015000       0.842502
    11567.380000       0.845729
    11580.775900       0.848929
    11594.202900       0.852100
    11607.661100       0.855243
    11621.150500       0.858357
    11634.671300       0.861441
    11648.223600       0.864496
    11661.807600       0.867521
    11675.423200       0.870517
    11689.070700       0.873482
    11702.750100       0.876416
    11716.461600       0.879320
    11730.205300       0.882192
    11743.981200       0.885034
    11757.789500       0.887844
    11771.630400       0.890622
    11785.503800       0.893368
    11799.410000       0.896082
    11813.349100       0.898764
    11827.321100       0.901413
    11841.326200       0.904029
    11855.364600       0.906612
    11869.436200       0.909162
    11883.541300       0.911679
    11897.680000       0.914162
    11911.852300       0.916611
    11926.058400       0.919026
    11940.298500       0.921408
    11954.572600       0.923755
    11968.880900       0.926068
    11983.223500       0.928346
    11997.600500       0.930589
    12012.012000       0.932798
    12026.458200       0.934971
    12040.939200       0.937110
    12055.455100       0.939213
    12070.006000       0.941281
    12084.592100       0.943314
    12099.213600       0.945311
    12113.870400       0.947272
    12128.562800       0.949198
    12143.290800       0.951088
    12158.054700       0.952941
    12172.854500       0.954759
    12187.690400       0.956541
    12202.562500       0.958287
    12217.471000       0.959997
    12232.415900       0.961670
    12247.397400       0.963308
    12262.415700       0.964908
    12277.470800       0.966473
    12292.563000       0.968001
    12307.692300       0.969493
    12322.858900       0.970949
    12338.062900       0.972368
    12353.304500       0.973751
    12368.583800       0.975097
    12383.900900       0.976408
    12399.256000       0.977681
    12414.649300       0.978919
    12430.080800       0.980120
    12445.550700       0.981285
    12461.059200       0.982414
    12476.606400       0.983506
    12492.192400       0.984563
    12507.817400       0.985583
    12523.481500       0.986568
    12539.185000       0.987516
    12554.927800       0.988429
    12570.710200       0.989306
    12586.532400       0.990148
    12602.394500       0.990954
    12618.296500       0.991724
    12634.238800       0.992460
    12650.221400       0.993159
    12666.244500       0.993824
    12682.308200       0.994454
    12698.412700       0.995050
    12714.558200       0.995610
    12730.744700       0.996136
    12746.972600       0.996628
    12763.241900       0.997085
    12779.552700       0.997508
    12795.905300       0.997898
    12812.299800       0.998253
    12828.736400       0.998576
    12845.215200       0.998865
    12861.736300       0.999120
    12878.300100       0.999343
    12894.906500       0.999533
    12911.555800       0.999691
    12928.248200       0.999816
    12944.983800       0.999909
    12961.762800       0.999970
    12978.585300       1.000000
    12995.451600       0.999998
    13012.361700       0.999965
    13029.316000       0.999901
    13046.314400       0.999807
    13063.357300       0.999682
    13080.444700       0.999527
    13097.576900       0.999342
    13114.754100       0.999128
    13131.976400       0.998884
    13149.243900       0.998611
    13166.556900       0.998309
    13183.915600       0.997979
    13201.320100       0.997621
    13218.770700       0.997235
    13236.267400       0.996821
    13253.810500       0.996380
    13271.400100       0.995912
    13289.036500       0.995418
    13306.719900       0.994897
    13324.450400       0.994350
    13342.228200       0.993778
    13360.053400       0.993180
    13377.926400       0.992557
    13395.847300       0.991910
    13413.816200       0.991239
    13431.833400       0.990543
    13449.899100       0.989824
    13468.013500       0.989082
    13486.176700       0.988316
    13504.388900       0.987529
    13522.650400       0.986719
    13540.961400       0.985887
    13559.322000       0.985034
    13577.732500       0.984160
    13596.193100       0.983266
    13614.703900       0.982351
    13633.265200       0.981416
    13651.877100       0.980462
    13670.540000       0.979489
    13689.253900       0.978497
    13708.019200       0.977486
    13726.836000       0.976458
    13745.704500       0.975412
    13764.624900       0.974350
    13783.597500       0.973270
    13802.622500       0.972174
    13821.700100       0.971062
    13840.830400       0.969935
    13860.013900       0.968793
    13879.250500       0.967636
    13898.540700       0.966465
    13917.884500       0.965280
    13937.282200       0.964081
    13956.734100       0.962869
    13976.240400       0.961645
    13995.801300       0.960409
    14015.417000       0.959161
    14035.087700       0.957902
    14054.813800       0.956631
    14074.595400       0.955350
    14094.432700       0.954060
    14114.326000       0.952759
    14134.275600       0.951449
    14154.281700       0.950131
    14174.344400       0.948804
    14194.464200       0.947469
    14214.641100       0.946126
    14234.875400       0.944776
    14255.167500       0.943420
    14275.517500       0.942057
    14295.925700       0.940689
    14316.392300       0.939314
    14336.917600       0.937935
    14357.501800       0.936551
    14378.145200       0.935163
    14398.848100       0.933772
    14419.610700       0.932376
    14440.433200       0.930978
    14461.316000       0.929577
    14482.259200       0.928174
    14503.263200       0.926769
    14524.328200       0.925363
    14545.454500       0.923956
    14566.642400       0.922548
    14587.892000       0.921140
    14609.203800       0.919732
    14630.577900       0.918325
    14652.014700       0.916918
    14673.514300       0.915514
    14695.077100       0.914110
    14716.703500       0.912709
    14738.393500       0.911310
    14760.147600       0.909914
    14781.966000       0.908522
    14803.849000       0.907133
    14825.796900       0.905748
    14847.809900       0.904367
    14869.888500       0.902990
    14892.032800       0.901619
    14914.243100       0.900253
    14936.519800       0.898893
    14958.863100       0.897538
    14981.273400       0.896190
    15003.750900       0.894849
    15026.296000       0.893514
    15048.909000       0.892187
    15071.590100       0.890868
    15094.339600       0.889556
    15117.158000       0.888252
    15140.045400       0.886957
    15163.002300       0.885671
    15186.028900       0.884394
    15209.125500       0.883126
    15232.292500       0.881867
    15255.530100       0.880619
    15278.838800       0.879381
    15302.218800       0.878153
    15325.670500       0.876935
    15349.194200       0.875729
    15372.790200       0.874533
    15396.458800       0.873349
    15420.200500       0.872177
    15444.015400       0.871016
    15467.904100       0.869867
    15491.866800       0.868731
    15515.903800       0.867606
    15540.015500       0.866495
    15564.202300       0.865396
    15588.464500       0.864310
    15612.802500       0.863237
    15637.216600       0.862177
    15661.707100       0.861130
    15686.274500       0.860097
    15710.919100       0.859078
    15735.641200       0.858073
    15760.441300       0.857081
    15785.319700       0.856103
    15810.276700       0.855140
    15835.312700       0.854191
    15860.428200       0.853256
    15885.623500       0.852335
    15910.899000       0.851429
    15936.255000       0.850537
    15961.691900       0.849660
    15987.210200       0.848798
    16012.810200       0.847950
    16038.492400       0.847117
    16064.257000       0.846298
    16090.104600       0.845494
    16116.035500       0.844705
    16142.050000       0.843930
    16168.148700       0.843171
    16194.332000       0.842425
    16220.600200       0.841695
    16246.953700       0.840979
    16273.393000       0.840277
    16299.918500       0.839590
    16326.530600       0.838917
    16353.229800       0.838258
    16380.016400       0.837614
    16406.890900       0.836984
    16433.853700       0.836367
    16460.905300       0.835765
    16488.046200       0.835176
    16515.276600       0.834601
    16542.597200       0.834039
    16570.008300       0.833490
    16597.510400       0.832955
    16625.103900       0.832432
    16652.789300       0.831922
    16680.567100       0.831425
    16708.437800       0.830940
    16736.401700       0.830467
    16764.459300       0.830006
    16792.611300       0.829556
    16820.857900       0.829118
    16849.199700       0.828691
    16877.637100       0.828275
    16906.170800       0.827869
    16934.801000       0.827474
    16963.528400       0.827089
    16992.353400       0.826713
    17021.276600       0.826346
    17050.298400       0.825989
    17079.419300       0.825640
    17108.639900       0.825300
    17137.960600       0.824967
    17167.382000       0.824642
    17196.904600       0.824325
    17226.528900       0.824014
    17256.255400       0.823709
    17286.084700       0.823411
    17316.017300       0.823118
    17346.053800       0.822830
    17376.194600       0.822547
    17406.440400       0.822269
    17436.791600       0.821994
    17467.248900       0.821722
    17497.812800       0.821454
    17528.483800       0.821188
    17559.262500       0.820923
    17590.149500       0.820660
    17621.145400       0.820398
    17652.250700       0.820136
    17683.466000       0.819875
    17714.791900       0.819612
    17746.228900       0.819348
    17777.777800       0.819082
    17809.439000       0.818814
    17841.213200       0.818543
    17873.101000       0.818268
    17905.103000       0.817990
    17937.219700       0.817706
    17969.451900       0.817417
    18001.800200       0.817122
    18034.265100       0.816820
    18066.847300       0.816512
    18099.547500       0.816195
    18132.366300       0.815870
    18165.304300       0.815535
    18198.362100       0.815191
    18231.540600       0.814836
    18264.840200       0.814469
    18298.261700       0.814091
    18331.805700       0.813700
    18365.472900       0.813296
    18399.264000       0.812878
    18433.179700       0.812445
    18467.220700       0.811997
    18501.387600       0.811532
    18535.681200       0.811051
    18570.102100       0.810551
    18604.651200       0.810034
    18639.329000       0.809497
    18674.136300       0.808940
    18709.073900       0.808362
    18744.142500       0.807763
    18779.342700       0.807141
    18814.675400       0.806497
    18850.141400       0.805828
    18885.741300       0.805135
    18921.475900       0.804417
    18957.346000       0.803672
    18993.352300       0.802900
    19029.495700       0.802101
    19065.776900       0.801272
    19102.196800       0.800415
    19138.756000       0.799527
    19175.455400       0.798607
    19212.295900       0.797656
    19249.278200       0.796672
    19286.403100       0.795654
    19323.671500       0.794602
    19361.084200       0.793515
    19398.642100       0.792392
    19436.346000       0.791231
    19474.196700       0.790033
    19512.195100       0.788796
    19550.342100       0.787520
    19588.638600       0.786203
    19627.085400       0.784846
    19665.683400       0.783446
    19704.433500       0.782003
    19743.336600       0.780517
    19782.393700       0.778986
    19821.605600       0.777410
    19860.973200       0.775788
    19900.497500       0.774119
    19940.179500       0.772401
    19980.020000       0.770636
    20020.020000       0.768820
    20060.180500       0.766954
    20100.502500       0.765037
    20140.986900       0.763069
    20181.634700       0.761047
    20222.446900       0.758972
    20263.424500       0.756842
    20304.568500       0.754657
    20345.880000       0.752416
    20387.359800       0.750118
    20429.009200       0.747763
    20470.829100       0.745349
    20512.820500       0.742876
    20554.984600       0.740344
    20597.322300       0.737750
    20639.834900       0.735095
    20682.523300       0.732378
    20725.388600       0.729598
    20768.432000       0.726755
    20811.654500       0.723847
    20855.057400       0.720873
    20898.641600       0.717835
    20942.408400       0.714729
    20986.358900       0.711557
    21030.494200       0.708316
    21074.815600       0.705008
    21119.324200       0.701630
    21164.021200       0.698182
    21208.907700       0.694664
    21253.985100       0.691075
    21299.254500       0.687414
    21344.717200       0.683681
    21390.374300       0.679876
    21436.227200       0.675997
    21482.277100       0.672044
    21528.525300       0.668016
    21574.973000       0.663914
    21621.621600       0.659736
    21668.472400       0.655482
    21715.526600       0.651152
    21762.785600       0.646746
    21810.250800       0.642261
    21857.923500       0.637700
    21905.805000       0.633060
    21953.896800       0.628341
    22002.200200       0.623544
    22050.716600       0.618668
    22099.447500       0.613712
    22148.394200       0.608676
    22197.558300       0.603560
    22246.941000       0.598364
    22296.544000       0.593088
    22346.368700       0.587730
    22396.416600       0.582292
    22446.689100       0.576772
    22497.187900       0.571171
    22547.914300       0.565489
    22598.870100       0.559725
    22650.056600       0.553879
    22701.475600       0.547952
    22753.128600       0.541943
    22805.017100       0.535853
    22857.142900       0.529681
    22909.507400       0.523427
    22962.112500       0.517092
    23014.959700       0.510675
    23068.050700       0.504177
    23121.387300       0.497598
    23174.971000       0.490938
    23228.803700       0.484198
    23282.887100       0.477377
    23337.222900       0.470476
    23391.812900       0.463495
    23446.658900       0.456435
    23501.762600       0.449295
    23557.126000       0.442077
    23612.750900       0.434781
    23668.639100       0.427407
    23724.792400       0.419956
    23781.212800       0.412428
    23837.902300       0.404824
    23894.862600       0.397145
    23952.095800       0.389391
    24009.603800       0.381563
    24067.388700       0.373662
    24125.452400       0.365688
    24183.796900       0.357642
    24242.424200       0.349525
    24301.336600       0.341339
    24360.535900       0.333083
    24420.024400       0.324759
    24479.804200       0.316368
    24539.877300       0.307911
    24600.246000       0.299389
    24660.912500       0.290802
    24721.878900       0.282154
    24783.147500       0.273444
    24844.720500       0.264673
    24906.600200       0.255844
    24968.789000       0.246957
    25031.289100       0.238015
    25094.102900       0.229017
    25157.232700       0.219966
    25220.681000       0.210863
    25284.450100       0.201711
    25348.542500       0.192510
    25412.960600       0.183262
    25477.707000       0.173969
