7,   channel 7 SRF from file SRF_SSH-1_Delivery_220520/SRF_DMSP-F2_SSH_Chan07.asc received June 2022 from SPASCIA
Number of data points:
1291
Wavenumber (cm-1)   Filter response
      371.000000       0.001800
      371.100000       0.001800
      371.200000       0.001800
      371.300000       0.001800
      371.400000       0.001800
      371.500000       0.001800
      371.600000       0.001800
      371.700000       0.001800
      371.800000       0.001800
      371.900000       0.001800
      372.000000       0.001800
      372.100000       0.001900
      372.200000       0.001900
      372.300000       0.001900
      372.400000       0.002000
      372.500000       0.002000
      372.600000       0.002000
      372.700000       0.002000
      372.800000       0.002000
      372.900000       0.002000
      373.000000       0.002000
      373.100000       0.002000
      373.200000       0.002000
      373.300000       0.002000
      373.400000       0.002000
      373.500000       0.002000
      373.600000       0.002000
      373.700000       0.002000
      373.800000       0.002000
      373.900000       0.002000
      374.000000       0.002000
      374.100000       0.002000
      374.200000       0.002100
      374.300000       0.002100
      374.400000       0.002100
      374.500000       0.002200
      374.600000       0.002200
      374.700000       0.002200
      374.800000       0.002200
      374.900000       0.002200
      375.000000       0.002200
      375.100000       0.002200
      375.200000       0.002200
      375.300000       0.002200
      375.400000       0.002200
      375.500000       0.002200
      375.600000       0.002200
      375.700000       0.002200
      375.800000       0.002200
      375.900000       0.002200
      376.000000       0.002200
      376.100000       0.002200
      376.200000       0.002200
      376.300000       0.002200
      376.400000       0.002200
      376.500000       0.002200
      376.600000       0.002200
      376.700000       0.002300
      376.800000       0.002300
      376.900000       0.002300
      377.000000       0.002400
      377.100000       0.002400
      377.200000       0.002400
      377.300000       0.002400
      377.400000       0.002400
      377.500000       0.002400
      377.600000       0.002400
      377.700000       0.002400
      377.800000       0.002400
      377.900000       0.002400
      378.000000       0.002400
      378.100000       0.002400
      378.200000       0.002400
      378.300000       0.002500
      378.400000       0.002500
      378.500000       0.002500
      378.600000       0.002500
      378.700000       0.002500
      378.800000       0.002500
      378.900000       0.002500
      379.000000       0.002500
      379.100000       0.002600
      379.200000       0.002600
      379.300000       0.002700
      379.400000       0.002700
      379.500000       0.002700
      379.600000       0.002700
      379.700000       0.002700
      379.800000       0.002700
      379.900000       0.002700
      380.000000       0.002700
      380.100000       0.002700
      380.200000       0.002700
      380.300000       0.002700
      380.400000       0.002700
      380.500000       0.002700
      380.600000       0.002700
      380.700000       0.002700
      380.800000       0.002700
      380.900000       0.002700
      381.000000       0.002700
      381.100000       0.002700
      381.200000       0.002700
      381.300000       0.002700
      381.400000       0.002700
      381.500000       0.002700
      381.600000       0.002700
      381.700000       0.002700
      381.800000       0.002700
      381.900000       0.002700
      382.000000       0.002700
      382.100000       0.002700
      382.200000       0.002700
      382.300000       0.002700
      382.400000       0.002700
      382.500000       0.002700
      382.600000       0.002700
      382.700000       0.002700
      382.800000       0.002700
      382.900000       0.002700
      383.000000       0.002700
      383.100000       0.002800
      383.200000       0.002800
      383.300000       0.002800
      383.400000       0.002900
      383.500000       0.002900
      383.600000       0.002900
      383.700000       0.003000
      383.800000       0.003000
      383.900000       0.003100
      384.000000       0.003100
      384.100000       0.003100
      384.200000       0.003100
      384.300000       0.003100
      384.400000       0.003100
      384.500000       0.003100
      384.600000       0.003100
      384.700000       0.003100
      384.800000       0.003100
      384.900000       0.003100
      385.000000       0.003100
      385.100000       0.003100
      385.200000       0.003200
      385.300000       0.003200
      385.400000       0.003200
      385.500000       0.003300
      385.600000       0.003300
      385.700000       0.003300
      385.800000       0.003300
      385.900000       0.003300
      386.000000       0.003300
      386.100000       0.003300
      386.200000       0.003300
      386.300000       0.003300
      386.400000       0.003300
      386.500000       0.003300
      386.600000       0.003300
      386.700000       0.003300
      386.800000       0.003400
      386.900000       0.003400
      387.000000       0.003500
      387.100000       0.003500
      387.200000       0.003500
      387.300000       0.003500
      387.400000       0.003500
      387.500000       0.003500
      387.600000       0.003500
      387.700000       0.003500
      387.800000       0.003600
      387.900000       0.003600
      388.000000       0.003600
      388.100000       0.003600
      388.200000       0.003600
      388.300000       0.003600
      388.400000       0.003600
      388.500000       0.003600
      388.600000       0.003700
      388.700000       0.003700
      388.800000       0.003700
      388.900000       0.003800
      389.000000       0.003800
      389.100000       0.003800
      389.200000       0.003800
      389.300000       0.003800
      389.400000       0.003800
      389.500000       0.003800
      389.600000       0.003900
      389.700000       0.003900
      389.800000       0.003900
      389.900000       0.004000
      390.000000       0.004000
      390.100000       0.004000
      390.200000       0.004100
      390.300000       0.004100
      390.400000       0.004100
      390.500000       0.004200
      390.600000       0.004200
      390.700000       0.004200
      390.800000       0.004200
      390.900000       0.004200
      391.000000       0.004200
      391.100000       0.004200
      391.200000       0.004300
      391.300000       0.004300
      391.400000       0.004300
      391.500000       0.004400
      391.600000       0.004400
      391.700000       0.004400
      391.800000       0.004400
      391.900000       0.004400
      392.000000       0.004400
      392.100000       0.004400
      392.200000       0.004400
      392.300000       0.004400
      392.400000       0.004400
      392.500000       0.004400
      392.600000       0.004400
      392.700000       0.004400
      392.800000       0.004500
      392.900000       0.004500
      393.000000       0.004500
      393.100000       0.004500
      393.200000       0.004500
      393.300000       0.004500
      393.400000       0.004500
      393.500000       0.004500
      393.600000       0.004600
      393.700000       0.004600
      393.800000       0.004700
      393.900000       0.004700
      394.000000       0.004700
      394.100000       0.004700
      394.200000       0.004700
      394.300000       0.004700
      394.400000       0.004700
      394.500000       0.004700
      394.600000       0.004800
      394.700000       0.004800
      394.800000       0.004800
      394.900000       0.004900
      395.000000       0.004900
      395.100000       0.004900
      395.200000       0.004900
      395.300000       0.004900
      395.400000       0.004900
      395.500000       0.004900
      395.600000       0.004900
      395.700000       0.005000
      395.800000       0.005000
      395.900000       0.005100
      396.000000       0.005100
      396.100000       0.005100
      396.200000       0.005200
      396.300000       0.005200
      396.400000       0.005200
      396.500000       0.005300
      396.600000       0.005300
      396.700000       0.005300
      396.800000       0.005400
      396.900000       0.005400
      397.000000       0.005500
      397.100000       0.005500
      397.200000       0.005500
      397.300000       0.005600
      397.400000       0.005600
      397.500000       0.005600
      397.600000       0.005700
      397.700000       0.005700
      397.800000       0.005700
      397.900000       0.005800
      398.000000       0.005800
      398.100000       0.005900
      398.200000       0.005900
      398.300000       0.005900
      398.400000       0.006000
      398.500000       0.006000
      398.600000       0.006000
      398.700000       0.006100
      398.800000       0.006100
      398.900000       0.006100
      399.000000       0.006200
      399.100000       0.006300
      399.200000       0.006300
      399.300000       0.006400
      399.400000       0.006500
      399.500000       0.006500
      399.600000       0.006600
      399.700000       0.006600
      399.800000       0.006700
      399.900000       0.006700
      400.000000       0.006700
      400.100000       0.006800
      400.200000       0.006800
      400.300000       0.006800
      400.400000       0.006900
      400.500000       0.006900
      400.600000       0.006900
      400.700000       0.007000
      400.800000       0.007000
      400.900000       0.007100
      401.000000       0.007100
      401.100000       0.007200
      401.200000       0.007200
      401.300000       0.007300
      401.400000       0.007400
      401.500000       0.007500
      401.600000       0.007500
      401.700000       0.007500
      401.800000       0.007600
      401.900000       0.007600
      402.000000       0.007600
      402.100000       0.007700
      402.200000       0.007700
      402.300000       0.007700
      402.400000       0.007800
      402.500000       0.007800
      402.600000       0.007900
      402.700000       0.007900
      402.800000       0.007900
      402.900000       0.008000
      403.000000       0.008000
      403.100000       0.008000
      403.200000       0.008100
      403.300000       0.008100
      403.400000       0.008100
      403.500000       0.008200
      403.600000       0.008200
      403.700000       0.008300
      403.800000       0.008300
      403.900000       0.008300
      404.000000       0.008400
      404.100000       0.008400
      404.200000       0.008400
      404.300000       0.008500
      404.400000       0.008500
      404.500000       0.008500
      404.600000       0.008600
      404.700000       0.008600
      404.800000       0.008700
      404.900000       0.008700
      405.000000       0.008700
      405.100000       0.008800
      405.200000       0.008900
      405.300000       0.008900
      405.400000       0.009000
      405.500000       0.009100
      405.600000       0.009200
      405.700000       0.009200
      405.800000       0.009300
      405.900000       0.009400
      406.000000       0.009500
      406.100000       0.009500
      406.200000       0.009600
      406.300000       0.009700
      406.400000       0.009700
      406.500000       0.009800
      406.600000       0.009900
      406.700000       0.009900
      406.800000       0.009900
      406.900000       0.010000
      407.000000       0.010000
      407.100000       0.010000
      407.200000       0.010100
      407.300000       0.010100
      407.400000       0.010100
      407.500000       0.010200
      407.600000       0.010300
      407.700000       0.010300
      407.800000       0.010400
      407.900000       0.010500
      408.000000       0.010500
      408.100000       0.010700
      408.200000       0.010800
      408.300000       0.011000
      408.400000       0.011100
      408.500000       0.011300
      408.600000       0.011300
      408.700000       0.011400
      408.800000       0.011500
      408.900000       0.011600
      409.000000       0.011600
      409.100000       0.011700
      409.200000       0.011800
      409.300000       0.011900
      409.400000       0.011900
      409.500000       0.012000
      409.600000       0.012100
      409.700000       0.012300
      409.800000       0.012400
      409.900000       0.012600
      410.000000       0.012700
      410.100000       0.012800
      410.200000       0.012900
      410.300000       0.013100
      410.400000       0.013200
      410.500000       0.013300
      410.600000       0.013400
      410.700000       0.013500
      410.800000       0.013600
      410.900000       0.013700
      411.000000       0.013800
      411.100000       0.014000
      411.200000       0.014300
      411.300000       0.014500
      411.400000       0.014700
      411.500000       0.014900
      411.600000       0.015100
      411.700000       0.015300
      411.800000       0.015600
      411.900000       0.015800
      412.000000       0.016000
      412.100000       0.016200
      412.200000       0.016400
      412.300000       0.016700
      412.400000       0.016900
      412.500000       0.017100
      412.600000       0.017300
      412.700000       0.017500
      412.800000       0.017700
      412.900000       0.018000
      413.000000       0.018200
      413.100000       0.018500
      413.200000       0.018900
      413.300000       0.019300
      413.400000       0.019600
      413.500000       0.020000
      413.600000       0.020200
      413.700000       0.020400
      413.800000       0.020500
      413.900000       0.020700
      414.000000       0.020900
      414.100000       0.021200
      414.200000       0.021400
      414.300000       0.021700
      414.400000       0.021900
      414.500000       0.022200
      414.600000       0.022500
      414.700000       0.022800
      414.800000       0.023100
      414.900000       0.023300
      415.000000       0.023600
      415.100000       0.024400
      415.200000       0.025100
      415.300000       0.025800
      415.400000       0.026500
      415.500000       0.027300
      415.600000       0.027600
      415.700000       0.028000
      415.800000       0.028400
      415.900000       0.028700
      416.000000       0.029100
      416.100000       0.029500
      416.200000       0.029800
      416.300000       0.030200
      416.400000       0.030500
      416.500000       0.030900
      416.600000       0.031300
      416.700000       0.031600
      416.800000       0.032000
      416.900000       0.032400
      417.000000       0.032700
      417.100000       0.033500
      417.200000       0.034200
      417.300000       0.034900
      417.400000       0.035600
      417.500000       0.036400
      417.600000       0.037100
      417.700000       0.037800
      417.800000       0.038500
      417.900000       0.039300
      418.000000       0.040000
      418.100000       0.040400
      418.200000       0.040700
      418.300000       0.041100
      418.400000       0.041500
      418.500000       0.041800
      418.600000       0.042500
      418.700000       0.043300
      418.800000       0.044000
      418.900000       0.044700
      419.000000       0.045500
      419.100000       0.046500
      419.200000       0.047600
      419.300000       0.048700
      419.400000       0.049800
      419.500000       0.050900
      419.600000       0.052000
      419.700000       0.053100
      419.800000       0.054200
      419.900000       0.055300
      420.000000       0.056400
      420.100000       0.057100
      420.200000       0.057800
      420.300000       0.058500
      420.400000       0.059300
      420.500000       0.060000
      420.600000       0.061100
      420.700000       0.062200
      420.800000       0.063300
      420.900000       0.064400
      421.000000       0.065500
      421.100000       0.067300
      421.200000       0.069100
      421.300000       0.070900
      421.400000       0.072700
      421.500000       0.074500
      421.600000       0.075600
      421.700000       0.076700
      421.800000       0.077800
      421.900000       0.078900
      422.000000       0.080000
      422.100000       0.081100
      422.200000       0.082200
      422.300000       0.083300
      422.400000       0.084400
      422.500000       0.085500
      422.600000       0.086500
      422.700000       0.087600
      422.800000       0.088700
      422.900000       0.089800
      423.000000       0.090900
      423.100000       0.092700
      423.200000       0.094500
      423.300000       0.096400
      423.400000       0.098200
      423.500000       0.100000
      423.600000       0.102500
      423.700000       0.105100
      423.800000       0.107600
      423.900000       0.110200
      424.000000       0.112700
      424.100000       0.114900
      424.200000       0.117100
      424.300000       0.119300
      424.400000       0.121500
      424.500000       0.123600
      424.600000       0.126200
      424.700000       0.128700
      424.800000       0.131300
      424.900000       0.133800
      425.000000       0.136400
      425.100000       0.140000
      425.200000       0.143600
      425.300000       0.147300
      425.400000       0.150900
      425.500000       0.154500
      425.600000       0.157800
      425.700000       0.161100
      425.800000       0.164400
      425.900000       0.167600
      426.000000       0.170900
      426.100000       0.174200
      426.200000       0.177500
      426.300000       0.180700
      426.400000       0.184000
      426.500000       0.187300
      426.600000       0.190900
      426.700000       0.194500
      426.800000       0.198200
      426.900000       0.201800
      427.000000       0.205500
      427.100000       0.209500
      427.200000       0.213500
      427.300000       0.217500
      427.400000       0.221500
      427.500000       0.225500
      427.600000       0.229500
      427.700000       0.233500
      427.800000       0.237500
      427.900000       0.241500
      428.000000       0.245500
      428.100000       0.247300
      428.200000       0.249100
      428.300000       0.250900
      428.400000       0.252700
      428.500000       0.254500
      428.600000       0.262500
      428.700000       0.270500
      428.800000       0.278500
      428.900000       0.286500
      429.000000       0.294500
      429.100000       0.299300
      429.200000       0.304000
      429.300000       0.308700
      429.400000       0.313500
      429.500000       0.318200
      429.600000       0.324400
      429.700000       0.330500
      429.800000       0.336700
      429.900000       0.342900
      430.000000       0.349100
      430.100000       0.356400
      430.200000       0.363600
      430.300000       0.370900
      430.400000       0.378200
      430.500000       0.385500
      430.600000       0.392700
      430.700000       0.400000
      430.800000       0.407300
      430.900000       0.414500
      431.000000       0.421800
      431.100000       0.428700
      431.200000       0.435600
      431.300000       0.442500
      431.400000       0.449500
      431.500000       0.456400
      431.600000       0.465500
      431.700000       0.474500
      431.800000       0.483600
      431.900000       0.492700
      432.000000       0.501800
      432.100000       0.511600
      432.200000       0.521500
      432.300000       0.531300
      432.400000       0.541100
      432.500000       0.550900
      432.600000       0.558900
      432.700000       0.566900
      432.800000       0.574900
      432.900000       0.582900
      433.000000       0.590900
      433.100000       0.598200
      433.200000       0.605500
      433.300000       0.612700
      433.400000       0.620000
      433.500000       0.627300
      433.600000       0.636400
      433.700000       0.645500
      433.800000       0.654500
      433.900000       0.663600
      434.000000       0.672700
      434.100000       0.681800
      434.200000       0.690900
      434.300000       0.700000
      434.400000       0.709100
      434.500000       0.718200
      434.600000       0.725500
      434.700000       0.732700
      434.800000       0.740000
      434.900000       0.747300
      435.000000       0.754500
      435.100000       0.762200
      435.200000       0.769800
      435.300000       0.777500
      435.400000       0.785100
      435.500000       0.792700
      435.600000       0.800400
      435.700000       0.808000
      435.800000       0.815600
      435.900000       0.823300
      436.000000       0.830900
      436.100000       0.837100
      436.200000       0.843300
      436.300000       0.849500
      436.400000       0.855600
      436.500000       0.861800
      436.600000       0.868400
      436.700000       0.874900
      436.800000       0.881500
      436.900000       0.888000
      437.000000       0.894500
      437.100000       0.899300
      437.200000       0.904000
      437.300000       0.908700
      437.400000       0.913500
      437.500000       0.918200
      437.600000       0.921800
      437.700000       0.925500
      437.800000       0.929100
      437.900000       0.932700
      438.000000       0.936400
      438.100000       0.940400
      438.200000       0.944400
      438.300000       0.948400
      438.400000       0.952400
      438.500000       0.956400
      438.600000       0.958900
      438.700000       0.961500
      438.800000       0.964000
      438.900000       0.966500
      439.000000       0.969100
      439.100000       0.971600
      439.200000       0.974200
      439.300000       0.976700
      439.400000       0.979300
      439.500000       0.981800
      439.600000       0.982500
      439.700000       0.983300
      439.800000       0.984000
      439.900000       0.984700
      440.000000       0.985500
      440.100000       0.987300
      440.200000       0.989100
      440.300000       0.990900
      440.400000       0.992700
      440.500000       0.994500
      440.600000       0.995600
      440.700000       0.996700
      440.800000       0.997800
      440.900000       0.998900
      441.000000       1.000000
      441.100000       0.999600
      441.200000       0.999300
      441.300000       0.998900
      441.400000       0.998500
      441.500000       0.998200
      441.600000       0.997500
      441.700000       0.996700
      441.800000       0.996000
      441.900000       0.995300
      442.000000       0.994500
      442.100000       0.993800
      442.200000       0.993100
      442.300000       0.992400
      442.400000       0.991600
      442.500000       0.990900
      442.600000       0.988700
      442.700000       0.986500
      442.800000       0.984400
      442.900000       0.982200
      443.000000       0.980000
      443.100000       0.977800
      443.200000       0.975600
      443.300000       0.973500
      443.400000       0.971300
      443.500000       0.969100
      443.600000       0.966200
      443.700000       0.963300
      443.800000       0.960400
      443.900000       0.957500
      444.000000       0.954500
      444.100000       0.951300
      444.200000       0.948000
      444.300000       0.944700
      444.400000       0.941500
      444.500000       0.938200
      444.600000       0.933500
      444.700000       0.928700
      444.800000       0.924000
      444.900000       0.919300
      445.000000       0.914500
      445.100000       0.909100
      445.200000       0.903600
      445.300000       0.898200
      445.400000       0.892700
      445.500000       0.887300
      445.600000       0.882500
      445.700000       0.877800
      445.800000       0.873100
      445.900000       0.868400
      446.000000       0.863600
      446.100000       0.858200
      446.200000       0.852700
      446.300000       0.847300
      446.400000       0.841800
      446.500000       0.836400
      446.600000       0.830200
      446.700000       0.824000
      446.800000       0.817800
      446.900000       0.811600
      447.000000       0.805500
      447.100000       0.797800
      447.200000       0.790200
      447.300000       0.782500
      447.400000       0.774900
      447.500000       0.767300
      447.600000       0.760700
      447.700000       0.754200
      447.800000       0.747600
      447.900000       0.741100
      448.000000       0.734500
      448.100000       0.727600
      448.200000       0.720700
      448.300000       0.713800
      448.400000       0.706900
      448.500000       0.700000
      448.600000       0.693100
      448.700000       0.686200
      448.800000       0.679300
      448.900000       0.672400
      449.000000       0.665500
      449.100000       0.657800
      449.200000       0.650200
      449.300000       0.642500
      449.400000       0.634900
      449.500000       0.627300
      449.600000       0.620400
      449.700000       0.613500
      449.800000       0.606500
      449.900000       0.599600
      450.000000       0.592700
      450.100000       0.584700
      450.200000       0.576700
      450.300000       0.568700
      450.400000       0.560700
      450.500000       0.552700
      450.600000       0.544000
      450.700000       0.535300
      450.800000       0.526500
      450.900000       0.517800
      451.000000       0.509100
      451.100000       0.501100
      451.200000       0.493100
      451.300000       0.485100
      451.400000       0.477100
      451.500000       0.469100
      451.600000       0.462900
      451.700000       0.456700
      451.800000       0.450500
      451.900000       0.444400
      452.000000       0.438200
      452.100000       0.432000
      452.200000       0.425800
      452.300000       0.419600
      452.400000       0.413500
      452.500000       0.407300
      452.600000       0.401100
      452.700000       0.394900
      452.800000       0.388700
      452.900000       0.382500
      453.000000       0.376400
      453.100000       0.370200
      453.200000       0.364000
      453.300000       0.357800
      453.400000       0.351600
      453.500000       0.345500
      453.600000       0.340000
      453.700000       0.334500
      453.800000       0.329100
      453.900000       0.323600
      454.000000       0.318200
      454.100000       0.311600
      454.200000       0.305100
      454.300000       0.298500
      454.400000       0.292000
      454.500000       0.285500
      454.600000       0.280700
      454.700000       0.276000
      454.800000       0.271300
      454.900000       0.266500
      455.000000       0.261800
      455.100000       0.257100
      455.200000       0.252400
      455.300000       0.247600
      455.400000       0.242900
      455.500000       0.238200
      455.600000       0.234900
      455.700000       0.231600
      455.800000       0.228400
      455.900000       0.225100
      456.000000       0.221800
      456.100000       0.217500
      456.200000       0.213100
      456.300000       0.208700
      456.400000       0.204400
      456.500000       0.200000
      456.600000       0.196400
      456.700000       0.192700
      456.800000       0.189100
      456.900000       0.185500
      457.000000       0.181800
      457.100000       0.179300
      457.200000       0.176700
      457.300000       0.174200
      457.400000       0.171600
      457.500000       0.169100
      457.600000       0.165800
      457.700000       0.162500
      457.800000       0.159300
      457.900000       0.156000
      458.000000       0.152700
      458.100000       0.150200
      458.200000       0.147600
      458.300000       0.145100
      458.400000       0.142500
      458.500000       0.140000
      458.600000       0.137500
      458.700000       0.134900
      458.800000       0.132400
      458.900000       0.129800
      459.000000       0.127300
      459.100000       0.125100
      459.200000       0.122900
      459.300000       0.120700
      459.400000       0.118500
      459.500000       0.116400
      459.600000       0.114200
      459.700000       0.112000
      459.800000       0.109800
      459.900000       0.107600
      460.000000       0.105500
      460.100000       0.103600
      460.200000       0.101800
      460.300000       0.100000
      460.400000       0.098200
      460.500000       0.096400
      460.600000       0.094500
      460.700000       0.092700
      460.800000       0.090900
      460.900000       0.089100
      461.000000       0.087300
      461.100000       0.085800
      461.200000       0.084400
      461.300000       0.082900
      461.400000       0.081500
      461.500000       0.080000
      461.600000       0.078500
      461.700000       0.077100
      461.800000       0.075600
      461.900000       0.074200
      462.000000       0.072700
      462.100000       0.071600
      462.200000       0.070500
      462.300000       0.069500
      462.400000       0.068400
      462.500000       0.067300
      462.600000       0.066200
      462.700000       0.065100
      462.800000       0.064000
      462.900000       0.062900
      463.000000       0.061800
      463.100000       0.060700
      463.200000       0.059600
      463.300000       0.058500
      463.400000       0.057500
      463.500000       0.056400
      463.600000       0.055600
      463.700000       0.054900
      463.800000       0.054200
      463.900000       0.053500
      464.000000       0.052700
      464.100000       0.052000
      464.200000       0.051300
      464.300000       0.050500
      464.400000       0.049800
      464.500000       0.049100
      464.600000       0.048400
      464.700000       0.047600
      464.800000       0.046900
      464.900000       0.046200
      465.000000       0.045500
      465.100000       0.044700
      465.200000       0.044000
      465.300000       0.043300
      465.400000       0.042500
      465.500000       0.041800
      465.600000       0.041100
      465.700000       0.040400
      465.800000       0.039600
      465.900000       0.038900
      466.000000       0.038200
      466.100000       0.037800
      466.200000       0.037500
      466.300000       0.037100
      466.400000       0.036700
      466.500000       0.036400
      466.600000       0.036000
      466.700000       0.035600
      466.800000       0.035300
      466.900000       0.034900
      467.000000       0.034500
      467.100000       0.033800
      467.200000       0.033100
      467.300000       0.032400
      467.400000       0.031600
      467.500000       0.030900
      467.600000       0.030500
      467.700000       0.030200
      467.800000       0.029800
      467.900000       0.029500
      468.000000       0.029100
      468.100000       0.028700
      468.200000       0.028400
      468.300000       0.028000
      468.400000       0.027600
      468.500000       0.027300
      468.600000       0.026900
      468.700000       0.026500
      468.800000       0.026200
      468.900000       0.025800
      469.000000       0.025500
      469.100000       0.025100
      469.200000       0.024700
      469.300000       0.024400
      469.400000       0.024000
      469.500000       0.023600
      469.600000       0.023300
      469.700000       0.022900
      469.800000       0.022500
      469.900000       0.022200
      470.000000       0.021800
      470.100000       0.021500
      470.200000       0.021100
      470.300000       0.020700
      470.400000       0.020400
      470.500000       0.020000
      470.600000       0.020000
      470.700000       0.020000
      470.800000       0.020000
      470.900000       0.020000
      471.000000       0.020000
      471.100000       0.019600
      471.200000       0.019100
      471.300000       0.018700
      471.400000       0.018300
      471.500000       0.017800
      471.600000       0.017600
      471.700000       0.017500
      471.800000       0.017300
      471.900000       0.017100
      472.000000       0.016900
      472.100000       0.016700
      472.200000       0.016500
      472.300000       0.016300
      472.400000       0.016000
      472.500000       0.015800
      472.600000       0.015600
      472.700000       0.015500
      472.800000       0.015300
      472.900000       0.015100
      473.000000       0.014900
      473.100000       0.014800
      473.200000       0.014600
      473.300000       0.014500
      473.400000       0.014300
      473.500000       0.014200
      473.600000       0.014000
      473.700000       0.013900
      473.800000       0.013700
      473.900000       0.013600
      474.000000       0.013500
      474.100000       0.013300
      474.200000       0.013200
      474.300000       0.013000
      474.400000       0.012900
      474.500000       0.012700
      474.600000       0.012700
      474.700000       0.012600
      474.800000       0.012500
      474.900000       0.012400
      475.000000       0.012400
      475.100000       0.012200
      475.200000       0.012100
      475.300000       0.011900
      475.400000       0.011800
      475.500000       0.011600
      475.600000       0.011600
      475.700000       0.011500
      475.800000       0.011400
      475.900000       0.011300
      476.000000       0.011300
      476.100000       0.011200
      476.200000       0.011100
      476.300000       0.010900
      476.400000       0.010800
      476.500000       0.010700
      476.600000       0.010600
      476.700000       0.010400
      476.800000       0.010300
      476.900000       0.010100
      477.000000       0.010000
      477.100000       0.009900
      477.200000       0.009800
      477.300000       0.009700
      477.400000       0.009600
      477.500000       0.009500
      477.600000       0.009400
      477.700000       0.009300
      477.800000       0.009200
      477.900000       0.009200
      478.000000       0.009100
      478.100000       0.009000
      478.200000       0.008900
      478.300000       0.008900
      478.400000       0.008800
      478.500000       0.008700
      478.600000       0.008700
      478.700000       0.008600
      478.800000       0.008500
      478.900000       0.008400
      479.000000       0.008400
      479.100000       0.008300
      479.200000       0.008100
      479.300000       0.008000
      479.400000       0.007900
      479.500000       0.007800
      479.600000       0.007700
      479.700000       0.007700
      479.800000       0.007600
      479.900000       0.007500
      480.000000       0.007500
      480.100000       0.007400
      480.200000       0.007300
      480.300000       0.007200
      480.400000       0.007200
      480.500000       0.007100
      480.600000       0.007000
      480.700000       0.006900
      480.800000       0.006900
      480.900000       0.006800
      481.000000       0.006700
      481.100000       0.006700
      481.200000       0.006700
      481.300000       0.006600
      481.400000       0.006600
      481.500000       0.006500
      481.600000       0.006500
      481.700000       0.006400
      481.800000       0.006300
      481.900000       0.006300
      482.000000       0.006200
      482.100000       0.006100
      482.200000       0.006100
      482.300000       0.006100
      482.400000       0.006000
      482.500000       0.006000
      482.600000       0.006000
      482.700000       0.005900
      482.800000       0.005900
      482.900000       0.005900
      483.000000       0.005800
      483.100000       0.005800
      483.200000       0.005700
      483.300000       0.005700
      483.400000       0.005700
      483.500000       0.005600
      483.600000       0.005600
      483.700000       0.005600
      483.800000       0.005500
      483.900000       0.005500
      484.000000       0.005500
      484.100000       0.005500
      484.200000       0.005500
      484.300000       0.005500
      484.400000       0.005500
      484.500000       0.005500
      484.600000       0.005400
      484.700000       0.005400
      484.800000       0.005300
      484.900000       0.005300
      485.000000       0.005300
      485.100000       0.005300
      485.200000       0.005300
      485.300000       0.005300
      485.400000       0.005300
      485.500000       0.005300
      485.600000       0.005200
      485.700000       0.005200
      485.800000       0.005200
      485.900000       0.005100
      486.000000       0.005100
      486.100000       0.005100
      486.200000       0.005100
      486.300000       0.005100
      486.400000       0.005100
      486.500000       0.005100
      486.600000       0.005100
      486.700000       0.005100
      486.800000       0.005100
      486.900000       0.005100
      487.000000       0.005100
      487.100000       0.005100
      487.200000       0.005000
      487.300000       0.005000
      487.400000       0.004900
      487.500000       0.004900
      487.600000       0.004900
      487.700000       0.004900
      487.800000       0.004900
      487.900000       0.004900
      488.000000       0.004900
      488.100000       0.004900
      488.200000       0.004900
      488.300000       0.004900
      488.400000       0.004900
      488.500000       0.004900
      488.600000       0.004900
      488.700000       0.004900
      488.800000       0.004900
      488.900000       0.004900
      489.000000       0.004900
      489.100000       0.004900
      489.200000       0.004900
      489.300000       0.004900
      489.400000       0.004900
      489.500000       0.004900
      489.600000       0.004900
      489.700000       0.004900
      489.800000       0.004900
      489.900000       0.004900
      490.000000       0.004900
      490.100000       0.004900
      490.200000       0.004800
      490.300000       0.004800
      490.400000       0.004800
      490.500000       0.004700
      490.600000       0.004700
      490.700000       0.004700
      490.800000       0.004700
      490.900000       0.004700
      491.000000       0.004700
      491.100000       0.004700
      491.200000       0.004700
      491.300000       0.004700
      491.400000       0.004700
      491.500000       0.004700
      491.600000       0.004700
      491.700000       0.004700
      491.800000       0.004600
      491.900000       0.004600
      492.000000       0.004500
      492.100000       0.004500
      492.200000       0.004500
      492.300000       0.004500
      492.400000       0.004500
      492.500000       0.004500
      492.600000       0.004500
      492.700000       0.004500
      492.800000       0.004500
      492.900000       0.004500
      493.000000       0.004500
      493.100000       0.004500
      493.200000       0.004500
      493.300000       0.004500
      493.400000       0.004500
      493.500000       0.004500
      493.600000       0.004500
      493.700000       0.004500
      493.800000       0.004500
      493.900000       0.004500
      494.000000       0.004500
      494.100000       0.004500
      494.200000       0.004500
      494.300000       0.004500
      494.400000       0.004500
      494.500000       0.004500
      494.600000       0.004600
      494.700000       0.004600
      494.800000       0.004700
      494.900000       0.004700
      495.000000       0.004700
      495.100000       0.004700
      495.200000       0.004700
      495.300000       0.004700
      495.400000       0.004700
      495.500000       0.004700
      495.600000       0.004700
      495.700000       0.004700
      495.800000       0.004700
      495.900000       0.004700
      496.000000       0.004700
      496.100000       0.004700
      496.200000       0.004700
      496.300000       0.004700
      496.400000       0.004700
      496.500000       0.004700
      496.600000       0.004700
      496.700000       0.004700
      496.800000       0.004700
      496.900000       0.004700
      497.000000       0.004700
      497.100000       0.004800
      497.200000       0.004800
      497.300000       0.004800
      497.400000       0.004900
      497.500000       0.004900
      497.600000       0.004900
      497.700000       0.004900
      497.800000       0.004900
      497.900000       0.004900
      498.000000       0.004900
      498.100000       0.004900
      498.200000       0.004900
      498.300000       0.004900
      498.400000       0.004900
      498.500000       0.004900
      498.600000       0.004900
      498.700000       0.005000
      498.800000       0.005000
      498.900000       0.005100
      499.000000       0.005100
      499.100000       0.005100
      499.200000       0.005100
      499.300000       0.005100
      499.400000       0.005100
      499.500000       0.005100
      499.600000       0.005100
      499.700000       0.005200
      499.800000       0.005200
      499.900000       0.005200
      500.000000       0.005300
