  12  ,noaa_11_hirs_12.flt
Number of data points:
101
Wavenumber (cm-1)   Filter response
     1408.800000       0.000000
     1410.400000       0.004499
     1411.900000       0.004635
     1413.400000       0.000121
     1414.900000       0.004899
     1416.400000       0.007188
     1417.900000       0.002241
     1419.400000       0.007917
     1420.900000       0.014912
     1422.400000       0.014891
     1423.900000       0.018999
     1425.400000       0.023754
     1426.900000       0.027903
     1428.400000       0.040842
     1429.900000       0.056369
     1431.400000       0.070079
     1432.900000       0.092267
     1434.400000       0.120190
     1435.900000       0.159470
     1437.400000       0.217320
     1438.900000       0.300810
     1440.300000       0.391400
     1441.800000       0.495210
     1443.300000       0.611580
     1444.800000       0.727960
     1446.300000       0.823560
     1447.800000       0.895690
     1449.300000       0.949580
     1450.800000       0.979940
     1452.400000       0.994360
     1453.900000       0.998430
     1455.400000       1.000000
     1456.900000       0.989040
     1458.500000       0.990850
     1460.000000       0.986830
     1461.500000       0.978690
     1463.000000       0.971370
     1464.500000       0.968650
     1466.100000       0.966610
     1467.600000       0.958620
     1469.200000       0.947730
     1470.700000       0.936520
     1472.200000       0.915360
     1473.800000       0.887280
     1475.300000       0.865180
     1476.900000       0.834960
     1478.400000       0.813280
     1479.900000       0.798410
     1481.500000       0.786000
     1483.100000       0.778130
     1484.600000       0.771380
     1486.200000       0.769150
     1487.700000       0.767380
     1489.300000       0.767230
     1490.800000       0.754890
     1492.400000       0.740030
     1493.900000       0.724420
     1495.500000       0.710910
     1497.100000       0.703960
     1498.600000       0.707950
     1500.100000       0.713140
     1501.700000       0.717120
     1503.200000       0.724790
     1504.700000       0.724260
     1506.300000       0.714230
     1507.800000       0.692970
     1509.300000       0.666650
     1510.800000       0.634710
     1512.300000       0.610530
     1513.800000       0.584430
     1515.300000       0.565590
     1516.900000       0.546010
     1518.400000       0.525300
     1519.900000       0.503170
     1521.400000       0.473530
     1522.900000       0.435900
     1524.500000       0.394060
     1526.000000       0.352990
     1527.500000       0.304440
     1529.100000       0.257730
     1530.600000       0.212400
     1532.200000       0.170130
     1533.800000       0.138160
     1535.300000       0.104950
     1536.800000       0.081406
     1538.400000       0.061560
     1539.900000       0.046723
     1541.400000       0.032518
     1542.900000       0.024351
     1544.400000       0.017487
     1545.900000       0.014592
     1547.400000       0.010378
     1548.900000       0.006484
     1550.400000       0.005488
     1551.900000       0.004799
     1553.400000       0.002328
     1554.900000       0.001461
     1556.400000       0.001321
     1557.900000       0.001184
     1559.400000       0.000112
     1560.900000       0.000000
