  12  ,noaa_09_hirs_12.flt
Number of data points:
78
Wavenumber (cm-1)   Filter response
     1399.800000       0.000000
     1407.000000       0.006539
     1415.500000       0.011747
     1421.100000       0.014163
     1423.900000       0.016723
     1426.000000       0.028511
     1428.000000       0.051177
     1430.000000       0.080927
     1431.800000       0.118010
     1433.300000       0.166560
     1435.000000       0.231760
     1436.300000       0.307090
     1437.600000       0.413750
     1438.900000       0.508540
     1439.600000       0.576840
     1440.700000       0.642970
     1441.900000       0.741530
     1443.200000       0.840180
     1444.200000       0.890400
     1445.000000       0.931160
     1445.900000       0.957670
     1446.500000       0.972100
     1447.900000       0.987020
     1449.000000       0.998410
     1450.500000       1.000000
     1452.000000       0.992980
     1454.500000       0.967990
     1458.000000       0.930990
     1462.000000       0.895090
     1465.100000       0.869510
     1467.400000       0.857400
     1468.900000       0.855470
     1471.000000       0.854770
     1472.900000       0.859860
     1474.800000       0.867250
     1478.000000       0.890130
     1479.900000       0.898970
     1481.200000       0.901960
     1482.500000       0.902910
     1484.600000       0.893160
     1486.100000       0.879580
     1487.500000       0.862060
     1489.600000       0.957450
     1490.900000       0.931310
     1493.700000       0.879310
     1496.200000       0.838400
     1498.300000       0.810620
     1500.600000       0.785180
     1503.200000       0.767900
     1505.400000       0.757760
     1507.700000       0.753400
     1509.700000       0.754260
     1512.000000       0.758760
     1513.500000       0.762170
     1515.300000       0.763060
     1517.500000       0.760120
     1519.100000       0.756570
     1520.800000       0.753880
     1523.100000       0.754910
     1524.300000       0.759580
     1525.600000       0.760010
     1526.900000       0.753840
     1527.800000       0.740980
     1528.600000       0.718730
     1529.800000       0.674120
     1531.200000       0.578530
     1532.300000       0.491710
     1533.100000       0.413470
     1534.300000       0.308900
     1535.600000       0.230250
     1536.600000       0.159500
     1538.600000       0.095887
     1540.600000       0.058968
     1542.200000       0.037454
     1543.700000       0.023118
     1548.100000       0.011859
     1557.900000       0.005082
     1566.100000       0.000000
