7,   7, MVIRI VIS channel from srf_MET5_1992033_1992034_1801-Release_S10EL_10.dat
Number of data points:
806
Wavenumber (cm-1)   Filter response
     8350.730700       0.000000
     8357.710000       0.000000
     8364.701000       0.000000
     8371.703600       0.000001
     8378.718100       0.000004
     8385.744200       0.000009
     8392.782200       0.000016
     8399.832000       0.000026
     8406.893700       0.000040
     8413.967200       0.000058
     8421.052600       0.000080
     8428.150000       0.000107
     8435.259400       0.000140
     8442.380800       0.000178
     8449.514200       0.000223
     8456.659600       0.000275
     8463.817200       0.000333
     8470.986900       0.000399
     8478.168700       0.000473
     8485.362700       0.000554
     8492.569000       0.000644
     8499.787500       0.000743
     8507.018300       0.000851
     8514.261400       0.000968
     8521.516800       0.001095
     8528.784600       0.001232
     8536.064900       0.001379
     8543.357500       0.001536
     8550.662700       0.001704
     8557.980300       0.001883
     8565.310500       0.002074
     8572.653200       0.002276
     8580.008600       0.002489
     8587.376600       0.002714
     8594.757200       0.002952
     8602.150500       0.003201
     8609.556600       0.003463
     8616.975400       0.003738
     8624.407100       0.004026
     8631.851500       0.004327
     8639.308900       0.004641
     8646.779100       0.004968
     8654.262200       0.005309
     8661.758300       0.005664
     8669.267400       0.006033
     8676.789600       0.006415
     8684.324800       0.006812
     8691.873100       0.007223
     8699.434500       0.007649
     8707.009100       0.008090
     8714.596900       0.008545
     8722.198000       0.009015
     8729.812300       0.009500
     8737.439900       0.010001
     8745.080900       0.010516
     8752.735200       0.011048
     8760.403000       0.011595
     8768.084200       0.012157
     8775.778900       0.012735
     8783.487000       0.013330
     8791.208800       0.013940
     8798.944100       0.014567
     8806.693100       0.015210
     8814.455700       0.015869
     8822.232000       0.016545
     8830.022100       0.017237
     8837.825900       0.017946
     8845.643500       0.018673
     8853.475000       0.019416
     8861.320300       0.020176
     8869.179600       0.020953
     8877.052800       0.021748
     8884.940000       0.022560
     8892.841300       0.023390
     8900.756600       0.024237
     8908.686000       0.025102
     8916.629500       0.025985
     8924.587200       0.026886
     8932.559200       0.027805
     8940.545400       0.028742
     8948.545900       0.029698
     8956.560700       0.030671
     8964.589900       0.031663
     8972.633500       0.032674
     8980.691500       0.033704
     8988.764000       0.034752
     8996.851100       0.035819
     9004.952700       0.036905
     9013.068900       0.038010
     9021.199800       0.039135
     9029.345400       0.040278
     9037.505600       0.041441
     9045.680700       0.042624
     9053.870500       0.043826
     9062.075200       0.045048
     9070.294800       0.046290
     9078.529300       0.047551
     9086.778700       0.048833
     9095.043200       0.050134
     9103.322700       0.051456
     9111.617300       0.052798
     9119.927000       0.054160
     9128.251900       0.055543
     9136.592100       0.056946
     9144.947400       0.058370
     9153.318100       0.059815
     9161.704100       0.061281
     9170.105500       0.062768
     9178.522300       0.064275
     9186.954500       0.065804
     9195.402300       0.067354
     9203.865600       0.068925
     9212.344500       0.070517
     9220.839100       0.072132
     9229.349300       0.073767
     9237.875300       0.075424
     9246.417000       0.077103
     9254.974500       0.078804
     9263.547900       0.080526
     9272.137200       0.082271
     9280.742500       0.084037
     9289.363700       0.085826
     9298.000900       0.087637
     9306.654300       0.089470
     9315.323700       0.091325
     9324.009300       0.093203
     9332.711200       0.095103
     9341.429200       0.097026
     9350.163600       0.098971
     9358.914400       0.100939
     9367.681500       0.102930
     9376.465100       0.104943
     9385.265100       0.106979
     9394.081700       0.109038
     9402.914900       0.111120
     9411.764700       0.113225
     9420.631200       0.115354
     9429.514400       0.117504
     9438.414300       0.119679
     9447.331100       0.121876
     9456.264800       0.124097
     9465.215300       0.126340
     9474.182900       0.128607
     9483.167400       0.130898
     9492.169000       0.133211
     9501.187600       0.135548
     9510.223500       0.137908
     9519.276500       0.140292
     9528.346800       0.142699
     9537.434400       0.145129
     9546.539400       0.147583
     9555.661700       0.150060
     9564.801500       0.152561
     9573.958800       0.155085
     9583.133700       0.157633
     9592.326100       0.160203
     9601.536200       0.162798
     9610.764100       0.165415
     9620.009600       0.168057
     9629.273000       0.170721
     9638.554200       0.173409
     9647.853400       0.176120
     9657.170400       0.178854
     9666.505600       0.181612
     9675.858700       0.184393
     9685.230000       0.187196
     9694.619500       0.190024
     9704.027200       0.192873
     9713.453100       0.195747
     9722.897400       0.198643
     9732.360100       0.201562
     9741.841200       0.204504
     9751.340800       0.207468
     9760.859000       0.210456
     9770.395700       0.213466
     9779.951100       0.216498
     9789.525200       0.219553
     9799.118100       0.222631
     9808.729800       0.225730
     9818.360300       0.228852
     9828.009800       0.231996
     9837.678300       0.235162
     9847.365800       0.238350
     9857.072400       0.241560
     9866.798200       0.244791
     9876.543200       0.248044
     9886.307500       0.251318
     9896.091000       0.254614
     9905.894000       0.257931
     9915.716400       0.261269
     9925.558300       0.264627
     9935.419800       0.268007
     9945.300800       0.271407
     9955.201600       0.274827
     9965.122100       0.278268
     9975.062300       0.281729
     9985.022500       0.285210
     9995.002500       0.288711
    10005.002500       0.292231
    10015.022500       0.295771
    10025.062700       0.299330
    10035.122900       0.302908
    10045.203400       0.306506
    10055.304200       0.310121
    10065.425300       0.313756
    10075.566800       0.317408
    10085.728700       0.321079
    10095.911200       0.324768
    10106.114200       0.328474
    10116.337900       0.332198
    10126.582300       0.335939
    10136.847400       0.339697
    10147.133400       0.343472
    10157.440300       0.347263
    10167.768200       0.351071
    10178.117000       0.354894
    10188.487000       0.358734
    10198.878100       0.362589
    10209.290500       0.366460
    10219.724100       0.370345
    10230.179000       0.374246
    10240.655400       0.378161
    10251.153300       0.382090
    10261.672700       0.386033
    10272.213700       0.389990
    10282.776300       0.393960
    10293.360800       0.397944
    10303.967000       0.401940
    10314.595200       0.405949
    10325.245200       0.409970
    10335.917300       0.414004
    10346.611500       0.418049
    10357.327800       0.422105
    10368.066400       0.426173
    10378.827200       0.430251
    10389.610400       0.434340
    10400.416000       0.438438
    10411.244100       0.442547
    10422.094800       0.446665
    10432.968200       0.450793
    10443.864200       0.454929
    10454.783100       0.459074
    10465.724800       0.463227
    10476.689400       0.467387
    10487.677000       0.471556
    10498.687700       0.475731
    10509.721500       0.479913
    10520.778500       0.484102
    10531.858900       0.488297
    10542.962600       0.492498
    10554.089700       0.496704
    10565.240400       0.500915
    10576.414600       0.505131
    10587.612500       0.509351
    10598.834100       0.513575
    10610.079600       0.517803
    10621.348900       0.522034
    10632.642200       0.526267
    10643.959600       0.530504
    10655.301000       0.534742
    10666.666700       0.538982
    10678.056600       0.543224
    10689.470900       0.547466
    10700.909600       0.551710
    10712.372800       0.555953
    10723.860600       0.560196
    10735.373100       0.564439
    10746.910300       0.568681
    10758.472300       0.572921
    10770.059200       0.577160
    10781.671200       0.581396
    10793.308100       0.585630
    10804.970300       0.589861
    10816.657700       0.594089
    10828.370300       0.598314
    10840.108400       0.602534
    10851.871900       0.606749
    10863.661100       0.610960
    10875.475800       0.615166
    10887.316300       0.619366
    10899.182600       0.623560
    10911.074700       0.627748
    10922.992900       0.631928
    10934.937100       0.636102
    10946.907500       0.640267
    10958.904100       0.644425
    10970.927000       0.648575
    10982.976400       0.652715
    10995.052200       0.656846
    11007.154700       0.660968
    11019.283700       0.665080
    11031.439600       0.669181
    11043.622300       0.673272
    11055.832000       0.677351
    11068.068600       0.681419
    11080.332400       0.685474
    11092.623400       0.689518
    11104.941700       0.693548
    11117.287400       0.697566
    11129.660500       0.701570
    11142.061300       0.705560
    11154.489700       0.709535
    11166.945800       0.713496
    11179.429800       0.717442
    11191.941800       0.721373
    11204.481800       0.725287
    11217.049900       0.729186
    11229.646300       0.733067
    11242.270900       0.736932
    11254.924000       0.740780
    11267.605600       0.744610
    11280.315800       0.748421
    11293.054800       0.752215
    11305.822500       0.755989
    11318.619100       0.759744
    11331.444800       0.763480
    11344.299500       0.767196
    11357.183400       0.770892
    11370.096600       0.774567
    11383.039300       0.778221
    11396.011400       0.781854
    11409.013100       0.785465
    11422.044500       0.789054
    11435.105800       0.792621
    11448.196900       0.796165
    11461.318100       0.799687
    11474.469300       0.803185
    11487.650800       0.806659
    11500.862600       0.810110
    11514.104800       0.813536
    11527.377500       0.816937
    11540.680900       0.820314
    11554.015000       0.823666
    11567.380000       0.826992
    11580.775900       0.830292
    11594.202900       0.833566
    11607.661100       0.836814
    11621.150500       0.840035
    11634.671300       0.843229
    11648.223600       0.846396
    11661.807600       0.849536
    11675.423200       0.852647
    11689.070700       0.855731
    11702.750100       0.858786
    11716.461600       0.861813
    11730.205300       0.864811
    11743.981200       0.867779
    11757.789500       0.870719
    11771.630400       0.873629
    11785.503800       0.876509
    11799.410000       0.879359
    11813.349100       0.882179
    11827.321100       0.884968
    11841.326200       0.887727
    11855.364600       0.890455
    11869.436200       0.893151
    11883.541300       0.895817
    11897.680000       0.898451
    11911.852300       0.901053
    11926.058400       0.903623
    11940.298500       0.906161
    11954.572600       0.908667
    11968.880900       0.911141
    11983.223500       0.913582
    11997.600500       0.915990
    12012.012000       0.918365
    12026.458200       0.920707
    12040.939200       0.923016
    12055.455100       0.925292
    12070.006000       0.927535
    12084.592100       0.929743
    12099.213600       0.931918
    12113.870400       0.934059
    12128.562800       0.936167
    12143.290800       0.938240
    12158.054700       0.940279
    12172.854500       0.942284
    12187.690400       0.944255
    12202.562500       0.946191
    12217.471000       0.948093
    12232.415900       0.949960
    12247.397400       0.951792
    12262.415700       0.953590
    12277.470800       0.955353
    12292.563000       0.957082
    12307.692300       0.958776
    12322.858900       0.960434
    12338.062900       0.962058
    12353.304500       0.963648
    12368.583800       0.965202
    12383.900900       0.966721
    12399.256000       0.968206
    12414.649300       0.969655
    12430.080800       0.971070
    12445.550700       0.972450
    12461.059200       0.973794
    12476.606400       0.975105
    12492.192400       0.976380
    12507.817400       0.977620
    12523.481500       0.978826
    12539.185000       0.979997
    12554.927800       0.981134
    12570.710200       0.982236
    12586.532400       0.983304
    12602.394500       0.984337
    12618.296500       0.985336
    12634.238800       0.986300
    12650.221400       0.987231
    12666.244500       0.988127
    12682.308200       0.988990
    12698.412700       0.989819
    12714.558200       0.990614
    12730.744700       0.991375
    12746.972600       0.992103
    12763.241900       0.992798
    12779.552700       0.993459
    12795.905300       0.994088
    12812.299800       0.994683
    12828.736400       0.995246
    12845.215200       0.995777
    12861.736300       0.996275
    12878.300100       0.996741
    12894.906500       0.997174
    12911.555800       0.997576
    12928.248200       0.997947
    12944.983800       0.998286
    12961.762800       0.998593
    12978.585300       0.998870
    12995.451600       0.999116
    13012.361700       0.999331
    13029.316000       0.999516
    13046.314400       0.999670
    13063.357300       0.999795
    13080.444700       0.999890
    13097.576900       0.999956
    13114.754100       0.999992
    13131.976400       1.000000
    13149.243900       0.999979
    13166.556900       0.999930
    13183.915600       0.999852
    13201.320100       0.999747
    13218.770700       0.999614
    13236.267400       0.999453
    13253.810500       0.999266
    13271.400100       0.999052
    13289.036500       0.998812
    13306.719900       0.998546
    13324.450400       0.998254
    13342.228200       0.997936
    13360.053400       0.997593
    13377.926400       0.997226
    13395.847300       0.996834
    13413.816200       0.996417
    13431.833400       0.995977
    13449.899100       0.995514
    13468.013500       0.995027
    13486.176700       0.994517
    13504.388900       0.993985
    13522.650400       0.993431
    13540.961400       0.992855
    13559.322000       0.992257
    13577.732500       0.991639
    13596.193100       0.991000
    13614.703900       0.990340
    13633.265200       0.989661
    13651.877100       0.988962
    13670.540000       0.988244
    13689.253900       0.987507
    13708.019200       0.986752
    13726.836000       0.985978
    13745.704500       0.985187
    13764.624900       0.984379
    13783.597500       0.983553
    13802.622500       0.982712
    13821.700100       0.981854
    13840.830400       0.980980
    13860.013900       0.980091
    13879.250500       0.979188
    13898.540700       0.978270
    13917.884500       0.977337
    13937.282200       0.976391
    13956.734100       0.975432
    13976.240400       0.974460
    13995.801300       0.973476
    14015.417000       0.972479
    14035.087700       0.971471
    14054.813800       0.970452
    14074.595400       0.969422
    14094.432700       0.968382
    14114.326000       0.967332
    14134.275600       0.966272
    14154.281700       0.965203
    14174.344400       0.964125
    14194.464200       0.963039
    14214.641100       0.961945
    14234.875400       0.960844
    14255.167500       0.959736
    14275.517500       0.958621
    14295.925700       0.957500
    14316.392300       0.956374
    14336.917600       0.955242
    14357.501800       0.954105
    14378.145200       0.952963
    14398.848100       0.951818
    14419.610700       0.950668
    14440.433200       0.949516
    14461.316000       0.948360
    14482.259200       0.947203
    14503.263200       0.946043
    14524.328200       0.944881
    14545.454500       0.943718
    14566.642400       0.942555
    14587.892000       0.941391
    14609.203800       0.940227
    14630.577900       0.939063
    14652.014700       0.937900
    14673.514300       0.936738
    14695.077100       0.935578
    14716.703500       0.934419
    14738.393500       0.933263
    14760.147600       0.932110
    14781.966000       0.930959
    14803.849000       0.929812
    14825.796900       0.928669
    14847.809900       0.927530
    14869.888500       0.926396
    14892.032800       0.925266
    14914.243100       0.924142
    14936.519800       0.923023
    14958.863100       0.921910
    14981.273400       0.920803
    15003.750900       0.919703
    15026.296000       0.918610
    15048.909000       0.917524
    15071.590100       0.916446
    15094.339600       0.915376
    15117.158000       0.914314
    15140.045400       0.913260
    15163.002300       0.912216
    15186.028900       0.911180
    15209.125500       0.910154
    15232.292500       0.909138
    15255.530100       0.908131
    15278.838800       0.907135
    15302.218800       0.906150
    15325.670500       0.905175
    15349.194200       0.904211
    15372.790200       0.903259
    15396.458800       0.902318
    15420.200500       0.901389
    15444.015400       0.900472
    15467.904100       0.899567
    15491.866800       0.898675
    15515.903800       0.897795
    15540.015500       0.896929
    15564.202300       0.896075
    15588.464500       0.895235
    15612.802500       0.894408
    15637.216600       0.893595
    15661.707100       0.892795
    15686.274500       0.892010
    15710.919100       0.891239
    15735.641200       0.890482
    15760.441300       0.889739
    15785.319700       0.889011
    15810.276700       0.888298
    15835.312700       0.887599
    15860.428200       0.886915
    15885.623500       0.886246
    15910.899000       0.885593
    15936.255000       0.884954
    15961.691900       0.884330
    15987.210200       0.883722
    16012.810200       0.883129
    16038.492400       0.882552
    16064.257000       0.881989
    16090.104600       0.881443
    16116.035500       0.880911
    16142.050000       0.880395
    16168.148700       0.879895
    16194.332000       0.879410
    16220.600200       0.878940
    16246.953700       0.878486
    16273.393000       0.878047
    16299.918500       0.877623
    16326.530600       0.877214
    16353.229800       0.876821
    16380.016400       0.876442
    16406.890900       0.876079
    16433.853700       0.875730
    16460.905300       0.875396
    16488.046200       0.875077
    16515.276600       0.874772
    16542.597200       0.874481
    16570.008300       0.874205
    16597.510400       0.873943
    16625.103900       0.873694
    16652.789300       0.873460
    16680.567100       0.873238
    16708.437800       0.873030
    16736.401700       0.872835
    16764.459300       0.872653
    16792.611300       0.872483
    16820.857900       0.872326
    16849.199700       0.872180
    16877.637100       0.872047
    16906.170800       0.871925
    16934.801000       0.871814
    16963.528400       0.871714
    16992.353400       0.871625
    17021.276600       0.871546
    17050.298400       0.871477
    17079.419300       0.871418
    17108.639900       0.871367
    17137.960600       0.871326
    17167.382000       0.871293
    17196.904600       0.871268
    17226.528900       0.871251
    17256.255400       0.871241
    17286.084700       0.871238
    17316.017300       0.871241
    17346.053800       0.871251
    17376.194600       0.871266
    17406.440400       0.871286
    17436.791600       0.871310
    17467.248900       0.871339
    17497.812800       0.871371
    17528.483800       0.871406
    17559.262500       0.871443
    17590.149500       0.871483
    17621.145400       0.871524
    17652.250700       0.871566
    17683.466000       0.871609
    17714.791900       0.871651
    17746.228900       0.871692
    17777.777800       0.871732
    17809.439000       0.871770
    17841.213200       0.871806
    17873.101000       0.871838
    17905.103000       0.871866
    17937.219700       0.871889
    17969.451900       0.871908
    18001.800200       0.871920
    18034.265100       0.871926
    18066.847300       0.871925
    18099.547500       0.871916
    18132.366300       0.871898
    18165.304300       0.871871
    18198.362100       0.871833
    18231.540600       0.871785
    18264.840200       0.871726
    18298.261700       0.871654
    18331.805700       0.871569
    18365.472900       0.871470
    18399.264000       0.871357
    18433.179700       0.871228
    18467.220700       0.871083
    18501.387600       0.870921
    18535.681200       0.870741
    18570.102100       0.870542
    18604.651200       0.870324
    18639.329000       0.870086
    18674.136300       0.869827
    18709.073900       0.869546
    18744.142500       0.869241
    18779.342700       0.868913
    18814.675400       0.868561
    18850.141400       0.868183
    18885.741300       0.867779
    18921.475900       0.867347
    18957.346000       0.866888
    18993.352300       0.866399
    19029.495700       0.865881
    19065.776900       0.865331
    19102.196800       0.864750
    19138.756000       0.864136
    19175.455400       0.863489
    19212.295900       0.862807
    19249.278200       0.862089
    19286.403100       0.861335
    19323.671500       0.860544
    19361.084200       0.859714
    19398.642100       0.858845
    19436.346000       0.857936
    19474.196700       0.856986
    19512.195100       0.855993
    19550.342100       0.854958
    19588.638600       0.853878
    19627.085400       0.852753
    19665.683400       0.851582
    19704.433500       0.850364
    19743.336600       0.849098
    19782.393700       0.847784
    19821.605600       0.846419
    19860.973200       0.845003
    19900.497500       0.843536
    19940.179500       0.842015
    19980.020000       0.840441
    20020.020000       0.838812
    20060.180500       0.837127
    20100.502500       0.835386
    20140.986900       0.833586
    20181.634700       0.831728
    20222.446900       0.829811
    20263.424500       0.827833
    20304.568500       0.825793
    20345.880000       0.823691
    20387.359800       0.821525
    20429.009200       0.819295
    20470.829100       0.816999
    20512.820500       0.814637
    20554.984600       0.812208
    20597.322300       0.809711
    20639.834900       0.807145
    20682.523300       0.804508
    20725.388600       0.801801
    20768.432000       0.799022
    20811.654500       0.796170
    20855.057400       0.793245
    20898.641600       0.790245
    20942.408400       0.787170
    20986.358900       0.784019
    21030.494200       0.780791
    21074.815600       0.777485
    21119.324200       0.774100
    21164.021200       0.770636
    21208.907700       0.767092
    21253.985100       0.763466
    21299.254500       0.759759
    21344.717200       0.755969
    21390.374300       0.752095
    21436.227200       0.748138
    21482.277100       0.744095
    21528.525300       0.739967
    21574.973000       0.735753
    21621.621600       0.731452
    21668.472400       0.727063
    21715.526600       0.722586
    21762.785600       0.718021
    21810.250800       0.713365
    21857.923500       0.708620
    21905.805000       0.703784
    21953.896800       0.698857
    22002.200200       0.693838
    22050.716600       0.688726
    22099.447500       0.683522
    22148.394200       0.678225
    22197.558300       0.672835
    22246.941000       0.667349
    22296.544000       0.661770
    22346.368700       0.656096
    22396.416600       0.650326
    22446.689100       0.644461
    22497.187900       0.638500
    22547.914300       0.632442
    22598.870100       0.626288
    22650.056600       0.620038
    22701.475600       0.613691
    22753.128600       0.607246
    22805.017100       0.600705
    22857.142900       0.594066
    22909.507400       0.587330
    22962.112500       0.580496
    23014.959700       0.573564
    23068.050700       0.566535
    23121.387300       0.559409
    23174.971000       0.552185
    23228.803700       0.544865
    23282.887100       0.537447
    23337.222900       0.529931
    23391.812900       0.522320
    23446.658900       0.514611
    23501.762600       0.506806
    23557.126000       0.498906
    23612.750900       0.490910
    23668.639100       0.482818
    23724.792400       0.474632
    23781.212800       0.466351
    23837.902300       0.457977
    23894.862600       0.449510
    23952.095800       0.440949
    24009.603800       0.432297
    24067.388700       0.423553
    24125.452400       0.414719
    24183.796900       0.405795
    24242.424200       0.396782
    24301.336600       0.387681
    24360.535900       0.378492
    24420.024400       0.369217
    24479.804200       0.359857
    24539.877300       0.350413
    24600.246000       0.340885
    24660.912500       0.331275
    24721.878900       0.321584
    24783.147500       0.311814
    24844.720500       0.301966
    24906.600200       0.292040
    24968.789000       0.282039
    25031.289100       0.271964
    25094.102900       0.261816
    25157.232700       0.251597
    25220.681000       0.241309
    25284.450100       0.230953
    25348.542500       0.220531
    25412.960600       0.210045
    25477.707000       0.199496
