15, GOES 12.3um ABI FM3 SRF CWG processed March 10, 2016
Number of data points:
1438
Wavenumber (cm-1)   Filter response
      752.100000       0.001051
      752.200000       0.001130
      752.300000       0.001190
      752.400000       0.001255
      752.500000       0.001328
      752.600000       0.001393
      752.700000       0.001458
      752.800000       0.001525
      752.900000       0.001597
      753.000000       0.001659
      753.100000       0.001640
      753.200000       0.001616
      753.300000       0.001581
      753.400000       0.001016
      753.500000       0.001142
      753.600000       0.001250
      753.700000       0.001352
      753.800000       0.001455
      753.900000       0.001558
      754.000000       0.001661
      754.100000       0.001764
      754.200000       0.001867
      754.300000       0.001970
      754.400000       0.002078
      754.500000       0.002113
      754.600000       0.002074
      754.700000       0.002036
      754.800000       0.001998
      754.900000       0.001960
      755.000000       0.001922
      755.100000       0.001884
      755.200000       0.001845
      755.300000       0.001806
      755.400000       0.001789
      755.500000       0.001862
      755.600000       0.001942
      755.700000       0.002023
      755.800000       0.002103
      755.900000       0.002184
      756.000000       0.002265
      756.100000       0.002345
      756.200000       0.002426
      756.300000       0.002510
      756.400000       0.002546
      756.500000       0.002571
      756.600000       0.002597
      756.700000       0.002623
      756.800000       0.002649
      756.900000       0.002675
      757.000000       0.002700
      757.100000       0.002726
      757.200000       0.002751
      757.300000       0.002861
      757.400000       0.003098
      757.500000       0.003331
      757.600000       0.003564
      757.700000       0.003797
      757.800000       0.004030
      757.900000       0.004264
      758.000000       0.004497
      758.100000       0.004730
      758.200000       0.004950
      758.300000       0.005051
      758.400000       0.005149
      758.500000       0.005247
      758.600000       0.005344
      758.700000       0.005442
      758.800000       0.005539
      758.900000       0.005636
      759.000000       0.005731
      759.100000       0.005824
      759.200000       0.005821
      759.300000       0.005772
      759.400000       0.005725
      759.500000       0.005677
      759.600000       0.005630
      759.700000       0.005583
      759.800000       0.005536
      759.900000       0.005489
      760.000000       0.005441
      760.100000       0.005335
      760.200000       0.005138
      760.300000       0.004938
      760.400000       0.004738
      760.500000       0.004539
      760.600000       0.004339
      760.700000       0.004140
      760.800000       0.003941
      760.900000       0.003741
      761.000000       0.003587
      761.100000       0.003648
      761.200000       0.003747
      761.300000       0.003845
      761.400000       0.003943
      761.500000       0.004042
      761.600000       0.004140
      761.700000       0.004239
      761.800000       0.004337
      761.900000       0.004433
      762.000000       0.004437
      762.100000       0.004389
      762.200000       0.004343
      762.300000       0.004297
      762.400000       0.004250
      762.500000       0.004203
      762.600000       0.004157
      762.700000       0.004111
      762.800000       0.004062
      762.900000       0.004057
      763.000000       0.004124
      763.100000       0.004192
      763.200000       0.004260
      763.300000       0.004329
      763.400000       0.004397
      763.500000       0.004465
      763.600000       0.004533
      763.700000       0.004601
      763.800000       0.004648
      763.900000       0.004582
      764.000000       0.004494
      764.100000       0.004406
      764.200000       0.004317
      764.300000       0.004228
      764.400000       0.004140
      764.500000       0.004051
      764.600000       0.003963
      764.700000       0.003873
      764.800000       0.003956
      764.900000       0.004142
      765.000000       0.004326
      765.100000       0.004509
      765.200000       0.004692
      765.300000       0.004876
      765.400000       0.005060
      765.500000       0.005243
      765.600000       0.005427
      765.700000       0.005615
      765.800000       0.005816
      765.900000       0.006017
      766.000000       0.006217
      766.100000       0.006418
      766.200000       0.006619
      766.300000       0.006820
      766.400000       0.007021
      766.500000       0.007222
      766.600000       0.007432
      766.700000       0.007712
      766.800000       0.008006
      766.900000       0.008301
      767.000000       0.008596
      767.100000       0.008891
      767.200000       0.009186
      767.300000       0.009481
      767.400000       0.009776
      767.500000       0.010072
      767.600000       0.010303
      767.700000       0.010483
      767.800000       0.010664
      767.900000       0.010848
      768.000000       0.011030
      768.100000       0.011212
      768.200000       0.011395
      768.300000       0.011578
      768.400000       0.011761
      768.500000       0.012045
      768.600000       0.012622
      768.700000       0.013205
      768.800000       0.013788
      768.900000       0.014369
      769.000000       0.014950
      769.100000       0.015530
      769.200000       0.016109
      769.300000       0.016685
      769.400000       0.017255
      769.500000       0.017777
      769.600000       0.018285
      769.700000       0.018792
      769.800000       0.019299
      769.900000       0.019805
      770.000000       0.020310
      770.100000       0.020814
      770.200000       0.021317
      770.300000       0.021821
      770.400000       0.022221
      770.500000       0.022533
      770.600000       0.022846
      770.700000       0.023158
      770.800000       0.023466
      770.900000       0.023753
      771.000000       0.024039
      771.100000       0.024328
      771.200000       0.024618
      771.300000       0.024913
      771.400000       0.025338
      771.500000       0.025823
      771.600000       0.026304
      771.700000       0.026784
      771.800000       0.027265
      771.900000       0.027746
      772.000000       0.028228
      772.100000       0.028709
      772.200000       0.029190
      772.300000       0.029663
      772.400000       0.030341
      772.500000       0.031191
      772.600000       0.032034
      772.700000       0.032876
      772.800000       0.033717
      772.900000       0.034553
      773.000000       0.035393
      773.100000       0.036233
      773.200000       0.037068
      773.300000       0.037903
      773.400000       0.038837
      773.500000       0.039928
      773.600000       0.041019
      773.700000       0.042115
      773.800000       0.043206
      773.900000       0.044301
      774.000000       0.045396
      774.100000       0.046493
      774.200000       0.047562
      774.300000       0.048599
      774.400000       0.049671
      774.500000       0.050932
      774.600000       0.052227
      774.700000       0.053523
      774.800000       0.054820
      774.900000       0.056117
      775.000000       0.057414
      775.100000       0.058711
      775.200000       0.060003
      775.300000       0.061302
      775.400000       0.062595
      775.500000       0.064054
      775.600000       0.065938
      775.700000       0.067858
      775.800000       0.069778
      775.900000       0.071702
      776.000000       0.073630
      776.100000       0.075554
      776.200000       0.077490
      776.300000       0.079428
      776.400000       0.081372
      776.500000       0.083312
      776.600000       0.085409
      776.700000       0.087721
      776.800000       0.090039
      776.900000       0.092353
      777.000000       0.094661
      777.100000       0.096974
      777.200000       0.099285
      777.300000       0.101599
      777.400000       0.103911
      777.500000       0.106221
      777.600000       0.108516
      777.700000       0.111083
      777.800000       0.113854
      777.900000       0.116620
      778.000000       0.119386
      778.100000       0.122152
      778.200000       0.124921
      778.300000       0.127685
      778.400000       0.130449
      778.500000       0.133214
      778.600000       0.135977
      778.700000       0.138751
      778.800000       0.141982
      778.900000       0.145412
      779.000000       0.148847
      779.100000       0.152278
      779.200000       0.155684
      779.300000       0.159107
      779.400000       0.162510
      779.500000       0.165928
      779.600000       0.169338
      779.700000       0.172745
      779.800000       0.176260
      779.900000       0.180405
      780.000000       0.184687
      780.100000       0.188967
      780.200000       0.193230
      780.300000       0.197504
      780.400000       0.201776
      780.500000       0.206040
      780.600000       0.210301
      780.700000       0.214556
      780.800000       0.218796
      780.900000       0.223320
      781.000000       0.228461
      781.100000       0.233644
      781.200000       0.238828
      781.300000       0.244035
      781.400000       0.249248
      781.500000       0.254462
      781.600000       0.259678
      781.700000       0.264894
      781.800000       0.270110
      781.900000       0.275310
      782.000000       0.280812
      782.100000       0.286600
      782.200000       0.292256
      782.300000       0.297853
      782.400000       0.303451
      782.500000       0.309047
      782.600000       0.314649
      782.700000       0.320257
      782.800000       0.325875
      782.900000       0.331499
      783.000000       0.337110
      783.100000       0.343043
      783.200000       0.349344
      783.300000       0.355663
      783.400000       0.361988
      783.500000       0.368317
      783.600000       0.374645
      783.700000       0.380966
      783.800000       0.387243
      783.900000       0.393566
      784.000000       0.399887
      784.100000       0.406200
      784.200000       0.412628
      784.300000       0.419328
      784.400000       0.425981
      784.500000       0.432674
      784.600000       0.439341
      784.700000       0.445997
      784.800000       0.452684
      784.900000       0.459326
      785.000000       0.465968
      785.100000       0.472599
      785.200000       0.479235
      785.300000       0.485922
      785.400000       0.492721
      785.500000       0.499545
      785.600000       0.506375
      785.700000       0.513209
      785.800000       0.520045
      785.900000       0.526850
      786.000000       0.533609
      786.100000       0.540438
      786.200000       0.547230
      786.300000       0.554019
      786.400000       0.560834
      786.500000       0.567463
      786.600000       0.574026
      786.700000       0.580592
      786.800000       0.587163
      786.900000       0.593731
      787.000000       0.600296
      787.100000       0.606844
      787.200000       0.613394
      787.300000       0.619931
      787.400000       0.626464
      787.500000       0.632978
      787.600000       0.639374
      787.700000       0.645581
      787.800000       0.651745
      787.900000       0.657897
      788.000000       0.664053
      788.100000       0.670195
      788.200000       0.676341
      788.300000       0.682475
      788.400000       0.688604
      788.500000       0.694625
      788.600000       0.700764
      788.700000       0.706943
      788.800000       0.712663
      788.900000       0.718256
      789.000000       0.723910
      789.100000       0.729497
      789.200000       0.734943
      789.300000       0.740504
      789.400000       0.746117
      789.500000       0.751767
      789.600000       0.757358
      789.700000       0.763050
      789.800000       0.768717
      789.900000       0.774294
      790.000000       0.779452
      790.100000       0.784474
      790.200000       0.789519
      790.300000       0.794467
      790.400000       0.799495
      790.500000       0.804483
      790.600000       0.809452
      790.700000       0.814416
      790.800000       0.819372
      790.900000       0.824319
      791.000000       0.829189
      791.100000       0.833822
      791.200000       0.837924
      791.300000       0.841822
      791.400000       0.845699
      791.500000       0.849562
      791.600000       0.853412
      791.700000       0.857256
      791.800000       0.861087
      791.900000       0.864899
      792.000000       0.868705
      792.100000       0.872493
      792.200000       0.876272
      792.300000       0.879982
      792.400000       0.883299
      792.500000       0.886491
      792.600000       0.889675
      792.700000       0.892848
      792.800000       0.896018
      792.900000       0.899180
      793.000000       0.902329
      793.100000       0.905473
      793.200000       0.908614
      793.300000       0.911719
      793.400000       0.914811
      793.500000       0.917868
      793.600000       0.920386
      793.700000       0.922739
      793.800000       0.925118
      793.900000       0.927532
      794.000000       0.929956
      794.100000       0.932384
      794.200000       0.934825
      794.300000       0.937267
      794.400000       0.939718
      794.500000       0.942189
      794.600000       0.944665
      794.700000       0.947149
      794.800000       0.948866
      794.900000       0.950435
      795.000000       0.952009
      795.100000       0.953572
      795.200000       0.955024
      795.300000       0.956587
      795.400000       0.958060
      795.500000       0.959580
      795.600000       0.961123
      795.700000       0.962646
      795.800000       0.964162
      795.900000       0.965626
      796.000000       0.966556
      796.100000       0.967301
      796.200000       0.968043
      796.300000       0.968682
      796.400000       0.969404
      796.500000       0.970133
      796.600000       0.970851
      796.700000       0.971552
      796.800000       0.971876
      796.900000       0.972052
      797.000000       0.972231
      797.100000       0.972384
      797.200000       0.972391
      797.300000       0.972324
      797.400000       0.972257
      797.500000       0.972188
      797.600000       0.972121
      797.700000       0.972070
      797.800000       0.972007
      797.900000       0.971951
      798.000000       0.971654
      798.100000       0.971564
      798.200000       0.971536
      798.300000       0.971509
      798.400000       0.971274
      798.500000       0.970952
      798.600000       0.970647
      798.700000       0.970362
      798.800000       0.970106
      798.900000       0.969907
      799.000000       0.969761
      799.100000       0.969641
      799.200000       0.969552
      799.300000       0.969473
      799.400000       0.969385
      799.500000       0.969297
      799.600000       0.969034
      799.700000       0.968668
      799.800000       0.968289
      799.900000       0.967893
      800.000000       0.967488
      800.100000       0.967053
      800.200000       0.966611
      800.300000       0.966144
      800.400000       0.965671
      800.500000       0.965198
      800.600000       0.964725
      800.700000       0.964150
      800.800000       0.963550
      800.900000       0.962835
      801.000000       0.962129
      801.100000       0.961424
      801.200000       0.960709
      801.300000       0.959986
      801.400000       0.959264
      801.500000       0.958545
      801.600000       0.957818
      801.700000       0.957076
      801.800000       0.956324
      801.900000       0.955534
      802.000000       0.954700
      802.100000       0.953807
      802.200000       0.952894
      802.300000       0.951959
      802.400000       0.951002
      802.500000       0.949978
      802.600000       0.949246
      802.700000       0.948615
      802.800000       0.947971
      802.900000       0.947358
      803.000000       0.946774
      803.100000       0.946196
      803.200000       0.945684
      803.300000       0.945239
      803.400000       0.944800
      803.500000       0.944355
      803.600000       0.943895
      803.700000       0.943442
      803.800000       0.942989
      803.900000       0.942525
      804.000000       0.942058
      804.100000       0.941580
      804.200000       0.941106
      804.300000       0.940637
      804.400000       0.940112
      804.500000       0.939805
      804.600000       0.939520
      804.700000       0.939271
      804.800000       0.939058
      804.900000       0.938890
      805.000000       0.938752
      805.100000       0.938664
      805.200000       0.938590
      805.300000       0.938583
      805.400000       0.938601
      805.500000       0.938637
      805.600000       0.938593
      805.700000       0.938626
      805.800000       0.938621
      805.900000       0.938590
      806.000000       0.938550
      806.100000       0.938512
      806.200000       0.938443
      806.300000       0.938335
      806.400000       0.938184
      806.500000       0.937986
      806.600000       0.937778
      806.700000       0.937476
      806.800000       0.937216
      806.900000       0.936911
      807.000000       0.936576
      807.100000       0.936242
      807.200000       0.935868
      807.300000       0.935393
      807.400000       0.935018
      807.500000       0.934633
      807.600000       0.934243
      807.700000       0.933846
      807.800000       0.933431
      807.900000       0.932969
      808.000000       0.932526
      808.100000       0.932221
      808.200000       0.931922
      808.300000       0.931517
      808.400000       0.931250
      808.500000       0.931214
      808.600000       0.931190
      808.700000       0.931116
      808.800000       0.931042
      808.900000       0.931009
      809.000000       0.930992
      809.100000       0.930983
      809.200000       0.931042
      809.300000       0.931337
      809.400000       0.931704
      809.500000       0.932101
      809.600000       0.932530
      809.700000       0.932961
      809.800000       0.933421
      809.900000       0.933934
      810.000000       0.934489
      810.100000       0.935082
      810.200000       0.935691
      810.300000       0.936326
      810.400000       0.936987
      810.500000       0.937884
      810.600000       0.938862
      810.700000       0.939858
      810.800000       0.940863
      810.900000       0.941859
      811.000000       0.942842
      811.100000       0.943805
      811.200000       0.944733
      811.300000       0.945633
      811.400000       0.946402
      811.500000       0.947182
      811.600000       0.947953
      811.700000       0.948586
      811.800000       0.949169
      811.900000       0.949738
      812.000000       0.950234
      812.100000       0.950780
      812.200000       0.951355
      812.300000       0.951942
      812.400000       0.952465
      812.500000       0.953054
      812.600000       0.953667
      812.700000       0.954296
      812.800000       0.954925
      812.900000       0.955459
      813.000000       0.955961
      813.100000       0.956479
      813.200000       0.956985
      813.300000       0.957496
      813.400000       0.958006
      813.500000       0.958535
      813.600000       0.959064
      813.700000       0.959586
      813.800000       0.960093
      813.900000       0.960608
      814.000000       0.961138
      814.100000       0.961707
      814.200000       0.962189
      814.300000       0.962771
      814.400000       0.963379
      814.500000       0.964034
      814.600000       0.964713
      814.700000       0.965393
      814.800000       0.966077
      814.900000       0.966774
      815.000000       0.967469
      815.100000       0.968171
      815.200000       0.968882
      815.300000       0.969691
      815.400000       0.970578
      815.500000       0.971459
      815.600000       0.972338
      815.700000       0.973187
      815.800000       0.974001
      815.900000       0.974712
      816.000000       0.975516
      816.100000       0.976315
      816.200000       0.977120
      816.300000       0.977902
      816.400000       0.978694
      816.500000       0.979478
      816.600000       0.980389
      816.700000       0.981185
      816.800000       0.981967
      816.900000       0.982746
      817.000000       0.983505
      817.100000       0.984254
      817.200000       0.984979
      817.300000       0.985694
      817.400000       0.986397
      817.500000       0.987103
      817.600000       0.987812
      817.700000       0.988524
      817.800000       0.989242
      817.900000       0.989959
      818.000000       0.990658
      818.100000       0.991334
      818.200000       0.992020
      818.300000       0.992706
      818.400000       0.993357
      818.500000       0.993965
      818.600000       0.994550
      818.700000       0.995135
      818.800000       0.995702
      818.900000       0.996225
      819.000000       0.996579
      819.100000       0.996886
      819.200000       0.997175
      819.300000       0.997383
      819.400000       0.997571
      819.500000       0.997810
      819.600000       0.998077
      819.700000       0.998237
      819.800000       0.998545
      819.900000       0.998852
      820.000000       0.999192
      820.100000       0.999518
      820.200000       0.999679
      820.300000       0.999820
      820.400000       0.999987
      820.500000       0.999988
      820.600000       0.999889
      820.700000       0.999847
      820.800000       0.999843
      820.900000       0.999868
      821.000000       0.999887
      821.100000       0.999908
      821.200000       0.999928
      821.300000       0.999952
      821.400000       0.999825
      821.500000       0.999660
      821.600000       0.999421
      821.700000       0.999227
      821.800000       0.999073
      821.900000       0.998952
      822.000000       0.998841
      822.100000       0.998745
      822.200000       0.998654
      822.300000       0.998552
      822.400000       0.998436
      822.500000       0.998279
      822.600000       0.998103
      822.700000       0.997899
      822.800000       0.997687
      822.900000       0.997440
      823.000000       0.997036
      823.100000       0.996729
      823.200000       0.996387
      823.300000       0.996018
      823.400000       0.995643
      823.500000       0.995256
      823.600000       0.994870
      823.700000       0.994480
      823.800000       0.993970
      823.900000       0.993288
      824.000000       0.992610
      824.100000       0.991998
      824.200000       0.991386
      824.300000       0.990730
      824.400000       0.990094
      824.500000       0.989423
      824.600000       0.988735
      824.700000       0.988084
      824.800000       0.987429
      824.900000       0.986760
      825.000000       0.986033
      825.100000       0.985232
      825.200000       0.984409
      825.300000       0.983554
      825.400000       0.982685
      825.500000       0.981800
      825.600000       0.980910
      825.700000       0.980023
      825.800000       0.979140
      825.900000       0.978277
      826.000000       0.977430
      826.100000       0.976606
      826.200000       0.975760
      826.300000       0.974829
      826.400000       0.973928
      826.500000       0.973053
      826.600000       0.972103
      826.700000       0.970930
      826.800000       0.969820
      826.900000       0.968740
      827.000000       0.967669
      827.100000       0.966599
      827.200000       0.965529
      827.300000       0.964454
      827.400000       0.963275
      827.500000       0.961917
      827.600000       0.960458
      827.700000       0.958971
      827.800000       0.957450
      827.900000       0.955904
      828.000000       0.954304
      828.100000       0.952688
      828.200000       0.951054
      828.300000       0.949414
      828.400000       0.947788
      828.500000       0.946179
      828.600000       0.944566
      828.700000       0.942958
      828.800000       0.941273
      828.900000       0.939711
      829.000000       0.938166
      829.100000       0.936648
      829.200000       0.935192
      829.300000       0.933770
      829.400000       0.932368
      829.500000       0.931012
      829.600000       0.929693
      829.700000       0.928421
      829.800000       0.927202
      829.900000       0.926110
      830.000000       0.925120
      830.100000       0.924214
      830.200000       0.923325
      830.300000       0.922451
      830.400000       0.921584
      830.500000       0.920709
      830.600000       0.919826
      830.700000       0.918946
      830.800000       0.918056
      830.900000       0.917153
      831.000000       0.916235
      831.100000       0.915310
      831.200000       0.914390
      831.300000       0.913445
      831.400000       0.912488
      831.500000       0.911516
      831.600000       0.910532
      831.700000       0.909523
      831.800000       0.908499
      831.900000       0.907465
      832.000000       0.906412
      832.100000       0.905345
      832.200000       0.904282
      832.300000       0.903124
      832.400000       0.901773
      832.500000       0.900406
      832.600000       0.899052
      832.700000       0.897698
      832.800000       0.896489
      832.900000       0.895701
      833.000000       0.895033
      833.100000       0.894353
      833.200000       0.893667
      833.300000       0.892978
      833.400000       0.892246
      833.500000       0.891532
      833.600000       0.890985
      833.700000       0.890359
      833.800000       0.889843
      833.900000       0.889329
      834.000000       0.888819
      834.100000       0.888299
      834.200000       0.887789
      834.300000       0.887278
      834.400000       0.886771
      834.500000       0.886343
      834.600000       0.885861
      834.700000       0.885379
      834.800000       0.885067
      834.900000       0.884789
      835.000000       0.884524
      835.100000       0.884323
      835.200000       0.884119
      835.300000       0.883916
      835.400000       0.883710
      835.500000       0.883525
      835.600000       0.883349
      835.700000       0.883171
      835.800000       0.882993
      835.900000       0.882818
      836.000000       0.882549
      836.100000       0.882227
      836.200000       0.881892
      836.300000       0.881593
      836.400000       0.881280
      836.500000       0.880933
      836.600000       0.880583
      836.700000       0.880234
      836.800000       0.879881
      836.900000       0.879528
      837.000000       0.879189
      837.100000       0.878850
      837.200000       0.878270
      837.300000       0.877173
      837.400000       0.876102
      837.500000       0.875029
      837.600000       0.873933
      837.700000       0.872816
      837.800000       0.871680
      837.900000       0.870550
      838.000000       0.869405
      838.100000       0.868257
      838.200000       0.867115
      838.300000       0.865975
      838.400000       0.864759
      838.500000       0.863010
      838.600000       0.861211
      838.700000       0.859383
      838.800000       0.857545
      838.900000       0.855683
      839.000000       0.853815
      839.100000       0.851911
      839.200000       0.849914
      839.300000       0.847867
      839.400000       0.845815
      839.500000       0.843752
      839.600000       0.841679
      839.700000       0.839425
      839.800000       0.836719
      839.900000       0.834028
      840.000000       0.831324
      840.100000       0.828634
      840.200000       0.825960
      840.300000       0.823316
      840.400000       0.820700
      840.500000       0.818080
      840.600000       0.815469
      840.700000       0.812871
      840.800000       0.810301
      840.900000       0.807774
      841.000000       0.805143
      841.100000       0.802302
      841.200000       0.799107
      841.300000       0.795935
      841.400000       0.792795
      841.500000       0.789674
      841.600000       0.786576
      841.700000       0.783485
      841.800000       0.780404
      841.900000       0.777367
      842.000000       0.774352
      842.100000       0.771326
      842.200000       0.768308
      842.300000       0.765278
      842.400000       0.762172
      842.500000       0.758404
      842.600000       0.754300
      842.700000       0.750105
      842.800000       0.745592
      842.900000       0.740995
      843.000000       0.736335
      843.100000       0.731616
      843.200000       0.726940
      843.300000       0.722153
      843.400000       0.717329
      843.500000       0.712475
      843.600000       0.707602
      843.700000       0.702683
      843.800000       0.697069
      843.900000       0.691145
      844.000000       0.685173
      844.100000       0.679169
      844.200000       0.673156
      844.300000       0.667174
      844.400000       0.661186
      844.500000       0.655220
      844.600000       0.649320
      844.700000       0.643459
      844.800000       0.637606
      844.900000       0.631768
      845.000000       0.625857
      845.100000       0.619444
      845.200000       0.612997
      845.300000       0.606596
      845.400000       0.600240
      845.500000       0.593893
      845.600000       0.587558
      845.700000       0.581231
      845.800000       0.574897
      845.900000       0.568561
      846.000000       0.562216
      846.100000       0.555862
      846.200000       0.549508
      846.300000       0.543100
      846.400000       0.536609
      846.500000       0.530103
      846.600000       0.523604
      846.700000       0.517119
      846.800000       0.510656
      846.900000       0.504162
      847.000000       0.497670
      847.100000       0.491051
      847.200000       0.484308
      847.300000       0.477564
      847.400000       0.470822
      847.500000       0.464114
      847.600000       0.457728
      847.700000       0.451454
      847.800000       0.445191
      847.900000       0.438939
      848.000000       0.432697
      848.100000       0.426465
      848.200000       0.420247
      848.300000       0.414027
      848.400000       0.407814
      848.500000       0.401604
      848.600000       0.395399
      848.700000       0.389217
      848.800000       0.383382
      848.900000       0.377795
      849.000000       0.372212
      849.100000       0.366633
      849.200000       0.361056
      849.300000       0.355475
      849.400000       0.349897
      849.500000       0.344325
      849.600000       0.338756
      849.700000       0.333187
      849.800000       0.327593
      849.900000       0.322014
      850.000000       0.316782
      850.100000       0.311863
      850.200000       0.306990
      850.300000       0.302111
      850.400000       0.297232
      850.500000       0.292120
      850.600000       0.286815
      850.700000       0.281515
      850.800000       0.276214
      850.900000       0.270918
      851.000000       0.265621
      851.100000       0.260368
      851.200000       0.255616
      851.300000       0.251028
      851.400000       0.246423
      851.500000       0.241828
      851.600000       0.237242
      851.700000       0.232662
      851.800000       0.228087
      851.900000       0.223515
      852.000000       0.218944
      852.100000       0.214372
      852.200000       0.209785
      852.300000       0.205628
      852.400000       0.201776
      852.500000       0.197925
      852.600000       0.194080
      852.700000       0.190238
      852.800000       0.186400
      852.900000       0.182565
      853.000000       0.178732
      853.100000       0.174902
      853.200000       0.171075
      853.300000       0.167247
      853.400000       0.163630
      853.500000       0.160588
      853.600000       0.157533
      853.700000       0.154478
      853.800000       0.151424
      853.900000       0.148371
      854.000000       0.145308
      854.100000       0.142232
      854.200000       0.139157
      854.300000       0.136082
      854.400000       0.133008
      854.500000       0.130025
      854.600000       0.127535
      854.700000       0.125095
      854.800000       0.122651
      854.900000       0.120205
      855.000000       0.117755
      855.100000       0.115308
      855.200000       0.112865
      855.300000       0.110427
      855.400000       0.107991
      855.500000       0.105561
      855.600000       0.103227
      855.700000       0.101287
      855.800000       0.099504
      855.900000       0.097716
      856.000000       0.095933
      856.100000       0.094152
      856.200000       0.092377
      856.300000       0.090606
      856.400000       0.088839
      856.500000       0.087075
      856.600000       0.085313
      856.700000       0.083584
      856.800000       0.082128
      856.900000       0.080807
      857.000000       0.079489
      857.100000       0.078164
      857.200000       0.076841
      857.300000       0.075520
      857.400000       0.074201
      857.500000       0.072886
      857.600000       0.071570
      857.700000       0.070257
      857.800000       0.068967
      857.900000       0.067922
      858.000000       0.067045
      858.100000       0.066168
      858.200000       0.065293
      858.300000       0.064418
      858.400000       0.063543
      858.500000       0.062668
      858.600000       0.061792
      858.700000       0.060916
      858.800000       0.060040
      858.900000       0.059164
      859.000000       0.058299
      859.100000       0.057456
      859.200000       0.056614
      859.300000       0.055773
      859.400000       0.054933
      859.500000       0.054093
      859.600000       0.053256
      859.700000       0.052419
      859.800000       0.051584
      859.900000       0.050751
      860.000000       0.049919
      860.100000       0.049085
      860.200000       0.048245
      860.300000       0.047410
      860.400000       0.046578
      860.500000       0.045749
      860.600000       0.044920
      860.700000       0.044097
      860.800000       0.043276
      860.900000       0.042457
      861.000000       0.041639
      861.100000       0.040824
      861.200000       0.040011
      861.300000       0.039207
      861.400000       0.038405
      861.500000       0.037602
      861.600000       0.036799
      861.700000       0.035995
      861.800000       0.035192
      861.900000       0.034387
      862.000000       0.033582
      862.100000       0.032775
      862.200000       0.031967
      862.300000       0.031174
      862.400000       0.030641
      862.500000       0.030176
      862.600000       0.029711
      862.700000       0.029247
      862.800000       0.028781
      862.900000       0.028317
      863.000000       0.027851
      863.100000       0.027387
      863.200000       0.026922
      863.300000       0.026458
      863.400000       0.025991
      863.500000       0.025636
      863.600000       0.025349
      863.700000       0.025064
      863.800000       0.024778
      863.900000       0.024493
      864.000000       0.024209
      864.100000       0.023925
      864.200000       0.023642
      864.300000       0.023349
      864.400000       0.023018
      864.500000       0.022667
      864.600000       0.022195
      864.700000       0.021667
      864.800000       0.021140
      864.900000       0.020613
      865.000000       0.020088
      865.100000       0.019565
      865.200000       0.019042
      865.300000       0.018519
      865.400000       0.017998
      865.500000       0.017456
      865.600000       0.016884
      865.700000       0.016314
      865.800000       0.015742
      865.900000       0.015170
      866.000000       0.014598
      866.100000       0.014026
      866.200000       0.013455
      866.300000       0.012878
      866.400000       0.012385
      866.500000       0.012279
      866.600000       0.012283
      866.700000       0.012287
      866.800000       0.012291
      866.900000       0.012294
      867.000000       0.012298
      867.100000       0.012302
      867.200000       0.012305
      867.300000       0.012309
      867.400000       0.012373
      867.500000       0.012514
      867.600000       0.012649
      867.700000       0.012783
      867.800000       0.012917
      867.900000       0.013051
      868.000000       0.013184
      868.100000       0.013316
      868.200000       0.013448
      868.300000       0.013573
      868.400000       0.013678
      868.500000       0.013778
      868.600000       0.013877
      868.700000       0.013976
      868.800000       0.014075
      868.900000       0.014175
      869.000000       0.014274
      869.100000       0.014373
      869.200000       0.014460
      869.300000       0.014385
      869.400000       0.014154
      869.500000       0.013941
      869.600000       0.013730
      869.700000       0.013519
      869.800000       0.013308
      869.900000       0.013098
      870.000000       0.012889
      870.100000       0.012677
      870.200000       0.012514
      870.300000       0.012437
      870.400000       0.012375
      870.500000       0.012313
      870.600000       0.012250
      870.700000       0.012189
      870.800000       0.012126
      870.900000       0.012064
      871.000000       0.012004
      871.100000       0.011930
      871.200000       0.011708
      871.300000       0.011419
      871.400000       0.011135
      871.500000       0.010852
      871.600000       0.010569
      871.700000       0.010286
      871.800000       0.010002
      871.900000       0.009719
      872.000000       0.009436
      872.100000       0.009222
      872.200000       0.009105
      872.300000       0.008996
      872.400000       0.008886
      872.500000       0.008776
      872.600000       0.008666
      872.700000       0.008555
      872.800000       0.008445
      872.900000       0.008335
      873.000000       0.008229
      873.100000       0.008157
      873.200000       0.008094
      873.300000       0.008030
      873.400000       0.007966
      873.500000       0.007902
      873.600000       0.007839
      873.700000       0.007776
      873.800000       0.007713
      873.900000       0.007654
      874.000000       0.007671
      874.100000       0.007814
      874.200000       0.007942
      874.300000       0.008070
      874.400000       0.008198
      874.500000       0.008326
      874.600000       0.008454
      874.700000       0.008582
      874.800000       0.008713
      874.900000       0.008787
      875.000000       0.008692
      875.100000       0.008559
      875.200000       0.008430
      875.300000       0.008301
      875.400000       0.008172
      875.500000       0.008043
      875.600000       0.007915
      875.700000       0.007786
      875.800000       0.007658
      875.900000       0.007496
      876.000000       0.007313
      876.100000       0.007132
      876.200000       0.006951
      876.300000       0.006769
      876.400000       0.006588
      876.500000       0.006406
      876.600000       0.006225
      876.700000       0.006043
      876.800000       0.005857
      876.900000       0.005660
      877.000000       0.005463
      877.100000       0.005266
      877.200000       0.005069
      877.300000       0.004871
      877.400000       0.004674
      877.500000       0.004477
      877.600000       0.004278
      877.700000       0.004095
      877.800000       0.004140
      877.900000       0.004263
      878.000000       0.004386
      878.100000       0.004509
      878.200000       0.004633
      878.300000       0.004756
      878.400000       0.004880
      878.500000       0.005003
      878.600000       0.005128
      878.700000       0.005280
      878.800000       0.005475
      878.900000       0.005674
      879.000000       0.005872
      879.100000       0.006070
      879.200000       0.006268
      879.300000       0.006463
      879.400000       0.006661
      879.500000       0.006857
      879.600000       0.007052
      879.700000       0.007236
      879.800000       0.007418
      879.900000       0.007599
      880.000000       0.007781
      880.100000       0.007982
      880.200000       0.007987
      880.300000       0.008121
      880.400000       0.008152
      880.500000       0.008343
      880.600000       0.008468
      880.700000       0.008552
      880.800000       0.008499
      880.900000       0.008531
      881.000000       0.008610
      881.100000       0.008688
      881.200000       0.008767
      881.300000       0.008830
      881.400000       0.008738
      881.500000       0.008824
      881.600000       0.008897
      881.700000       0.008969
      881.800000       0.009050
      881.900000       0.008950
      882.000000       0.009006
      882.100000       0.009085
      882.200000       0.009084
      882.300000       0.009133
      882.400000       0.009200
      882.500000       0.009204
      882.600000       0.009158
      882.700000       0.009113
      882.800000       0.009080
      882.900000       0.009098
      883.000000       0.009071
      883.100000       0.009058
      883.200000       0.009167
      883.300000       0.009117
      883.400000       0.009060
      883.500000       0.008972
      883.600000       0.008882
      883.700000       0.008789
      883.800000       0.008890
      883.900000       0.008789
      884.000000       0.008697
      884.100000       0.008605
      884.200000       0.008565
      884.300000       0.008595
      884.400000       0.008454
      884.500000       0.008299
      884.600000       0.008223
      884.700000       0.008166
      884.800000       0.008005
      884.900000       0.008027
      885.000000       0.007850
      885.100000       0.007691
      885.200000       0.007532
      885.300000       0.007359
      885.400000       0.007153
      885.500000       0.006948
      885.600000       0.006744
      885.700000       0.006539
      885.800000       0.006334
      885.900000       0.006129
      886.000000       0.005924
      886.100000       0.005715
      886.200000       0.005538
      886.300000       0.005532
      886.400000       0.005576
      886.500000       0.005617
      886.600000       0.005659
      886.700000       0.005700
      886.800000       0.005741
      886.900000       0.005782
      887.000000       0.005823
      887.100000       0.005855
      887.200000       0.005816
      887.300000       0.005677
      887.400000       0.005538
      887.500000       0.005398
      887.600000       0.005258
      887.700000       0.005118
      887.800000       0.004978
      887.900000       0.004837
      888.000000       0.004697
      888.100000       0.004559
      888.200000       0.004466
      888.300000       0.004373
      888.400000       0.004279
      888.500000       0.004185
      888.600000       0.004092
      888.700000       0.003998
      888.800000       0.003905
      888.900000       0.003812
      889.000000       0.003712
      889.100000       0.003555
      889.200000       0.003354
      889.300000       0.003152
      889.400000       0.002950
      889.500000       0.002747
      889.600000       0.002545
      889.700000       0.002342
      889.800000       0.002139
      889.900000       0.001932
      890.000000       0.001798
      890.100000       0.001799
      890.200000       0.001825
      890.300000       0.001848
      890.400000       0.001872
      890.500000       0.001895
      890.600000       0.001918
      890.700000       0.001942
      890.800000       0.001965
      890.900000       0.001997
      891.000000       0.002117
      891.100000       0.002286
      891.200000       0.002451
      891.300000       0.002616
      891.400000       0.002781
      891.500000       0.002946
      891.600000       0.003111
      891.700000       0.003276
      891.800000       0.003440
      891.900000       0.003636
      892.000000       0.003887
      892.100000       0.004139
      892.200000       0.004391
      892.300000       0.004643
      892.400000       0.004895
      892.500000       0.005147
      892.600000       0.005399
      892.700000       0.005650
      892.800000       0.005834
      892.900000       0.005633
      893.000000       0.005281
      893.100000       0.004943
      893.200000       0.004605
      893.300000       0.004267
      893.400000       0.003929
      893.500000       0.003591
      893.600000       0.003254
      893.700000       0.002921
      893.800000       0.002526
      893.900000       0.001589
      894.000000       0.001620
      894.100000       0.001682
      894.200000       0.001749
      894.300000       0.001811
      894.400000       0.001870
      894.500000       0.001940
      894.600000       0.002000
      894.700000       0.002060
      894.800000       0.002122
      894.900000       0.002188
      895.000000       0.002215
      895.100000       0.002077
      895.200000       0.001905
      895.300000       0.001738
      895.400000       0.001563
      895.500000       0.001399
      895.600000       0.001225
      895.700000       0.001053
      895.800000       0.000882
