5,   5, MVIRI VIS channel from srf_MET3_1989168_1989169_1801-Release_S10EE_10.dat
Number of data points:
743
Wavenumber (cm-1)   Filter response
     8814.455700       0.000000
     8822.232000       0.000000
     8830.022100       0.000700
     8837.825900       0.002937
     8845.643500       0.005193
     8853.475000       0.007468
     8861.320300       0.009760
     8869.179600       0.012067
     8877.052800       0.014390
     8884.940000       0.016727
     8892.841300       0.019077
     8900.756600       0.021439
     8908.686000       0.023812
     8916.629500       0.026196
     8924.587200       0.028589
     8932.559200       0.030992
     8940.545400       0.033402
     8948.545900       0.035821
     8956.560700       0.038246
     8964.589900       0.040679
     8972.633500       0.043117
     8980.691500       0.045561
     8988.764000       0.048011
     8996.851100       0.050465
     9004.952700       0.052924
     9013.068900       0.055387
     9021.199800       0.057854
     9029.345400       0.060325
     9037.505600       0.062800
     9045.680700       0.065278
     9053.870500       0.067758
     9062.075200       0.070243
     9070.294800       0.072730
     9078.529300       0.075220
     9086.778700       0.077713
     9095.043200       0.080210
     9103.322700       0.082708
     9111.617300       0.085210
     9119.927000       0.087714
     9128.251900       0.090222
     9136.592100       0.092733
     9144.947400       0.095247
     9153.318100       0.097764
     9161.704100       0.100284
     9170.105500       0.102808
     9178.522300       0.105336
     9186.954500       0.107868
     9195.402300       0.110404
     9203.865600       0.112944
     9212.344500       0.115488
     9220.839100       0.118037
     9229.349300       0.120591
     9237.875300       0.123151
     9246.417000       0.125715
     9254.974500       0.128285
     9263.547900       0.130862
     9272.137200       0.133444
     9280.742500       0.136033
     9289.363700       0.138628
     9298.000900       0.141231
     9306.654300       0.143840
     9315.323700       0.146458
     9324.009300       0.149083
     9332.711200       0.151716
     9341.429200       0.154358
     9350.163600       0.157009
     9358.914400       0.159668
     9367.681500       0.162338
     9376.465100       0.165016
     9385.265100       0.167705
     9394.081700       0.170404
     9402.914900       0.173113
     9411.764700       0.175834
     9420.631200       0.178566
     9429.514400       0.181309
     9438.414300       0.184064
     9447.331100       0.186830
     9456.264800       0.189609
     9465.215300       0.192401
     9474.182900       0.195206
     9483.167400       0.198024
     9492.169000       0.200855
     9501.187600       0.203700
     9510.223500       0.206559
     9519.276500       0.209432
     9528.346800       0.212320
     9537.434400       0.215222
     9546.539400       0.218139
     9555.661700       0.221072
     9564.801500       0.224020
     9573.958800       0.226983
     9583.133700       0.229963
     9592.326100       0.232958
     9601.536200       0.235969
     9610.764100       0.238997
     9620.009600       0.242042
     9629.273000       0.245103
     9638.554200       0.248181
     9647.853400       0.251277
     9657.170400       0.254389
     9666.505600       0.257519
     9675.858700       0.260667
     9685.230000       0.263832
     9694.619500       0.267015
     9704.027200       0.270216
     9713.453100       0.273435
     9722.897400       0.276672
     9732.360100       0.279927
     9741.841200       0.283200
     9751.340800       0.286492
     9760.859000       0.289802
     9770.395700       0.293130
     9779.951100       0.296477
     9789.525200       0.299842
     9799.118100       0.303226
     9808.729800       0.306628
     9818.360300       0.310049
     9828.009800       0.313488
     9837.678300       0.316946
     9847.365800       0.320423
     9857.072400       0.323917
     9866.798200       0.327430
     9876.543200       0.330961
     9886.307500       0.334511
     9896.091000       0.338079
     9905.894000       0.341665
     9915.716400       0.345269
     9925.558300       0.348891
     9935.419800       0.352530
     9945.300800       0.356188
     9955.201600       0.359863
     9965.122100       0.363555
     9975.062300       0.367265
     9985.022500       0.370992
     9995.002500       0.374736
    10005.002500       0.378497
    10015.022500       0.382274
    10025.062700       0.386068
    10035.122900       0.389879
    10045.203400       0.393705
    10055.304200       0.397547
    10065.425300       0.401405
    10075.566800       0.405279
    10085.728700       0.409167
    10095.911200       0.413071
    10106.114200       0.416989
    10116.337900       0.420922
    10126.582300       0.424869
    10136.847400       0.428830
    10147.133400       0.432805
    10157.440300       0.436793
    10167.768200       0.440795
    10178.117000       0.444809
    10188.487000       0.448835
    10198.878100       0.452874
    10209.290500       0.456925
    10219.724100       0.460988
    10230.179000       0.465061
    10240.655400       0.469146
    10251.153300       0.473241
    10261.672700       0.477346
    10272.213700       0.481462
    10282.776300       0.485586
    10293.360800       0.489721
    10303.967000       0.493864
    10314.595200       0.498015
    10325.245200       0.502174
    10335.917300       0.506342
    10346.611500       0.510516
    10357.327800       0.514697
    10368.066400       0.518885
    10378.827200       0.523079
    10389.610400       0.527279
    10400.416000       0.531484
    10411.244100       0.535694
    10422.094800       0.539909
    10432.968200       0.544127
    10443.864200       0.548350
    10454.783100       0.552575
    10465.724800       0.556803
    10476.689400       0.561034
    10487.677000       0.565267
    10498.687700       0.569501
    10509.721500       0.573736
    10520.778500       0.577972
    10531.858900       0.582209
    10542.962600       0.586445
    10554.089700       0.590680
    10565.240400       0.594914
    10576.414600       0.599147
    10587.612500       0.603377
    10598.834100       0.607605
    10610.079600       0.611831
    10621.348900       0.616052
    10632.642200       0.620270
    10643.959600       0.624484
    10655.301000       0.628693
    10666.666700       0.632897
    10678.056600       0.637095
    10689.470900       0.641286
    10700.909600       0.645472
    10712.372800       0.649650
    10723.860600       0.653821
    10735.373100       0.657984
    10746.910300       0.662138
    10758.472300       0.666284
    10770.059200       0.670420
    10781.671200       0.674547
    10793.308100       0.678663
    10804.970300       0.682769
    10816.657700       0.686863
    10828.370300       0.690946
    10840.108400       0.695016
    10851.871900       0.699075
    10863.661100       0.703120
    10875.475800       0.707152
    10887.316300       0.711170
    10899.182600       0.715174
    10911.074700       0.719163
    10922.992900       0.723137
    10934.937100       0.727096
    10946.907500       0.731038
    10958.904100       0.734964
    10970.927000       0.738874
    10982.976400       0.742765
    10995.052200       0.746639
    11007.154700       0.750495
    11019.283700       0.754333
    11031.439600       0.758152
    11043.622300       0.761951
    11055.832000       0.765730
    11068.068600       0.769489
    11080.332400       0.773228
    11092.623400       0.776946
    11104.941700       0.780642
    11117.287400       0.784317
    11129.660500       0.787969
    11142.061300       0.791599
    11154.489700       0.795206
    11166.945800       0.798790
    11179.429800       0.802350
    11191.941800       0.805886
    11204.481800       0.809398
    11217.049900       0.812885
    11229.646300       0.816347
    11242.270900       0.819784
    11254.924000       0.823195
    11267.605600       0.826580
    11280.315800       0.829938
    11293.054800       0.833270
    11305.822500       0.836575
    11318.619100       0.839852
    11331.444800       0.843102
    11344.299500       0.846324
    11357.183400       0.849517
    11370.096600       0.852682
    11383.039300       0.855818
    11396.011400       0.858924
    11409.013100       0.862002
    11422.044500       0.865049
    11435.105800       0.868067
    11448.196900       0.871054
    11461.318100       0.874011
    11474.469300       0.876937
    11487.650800       0.879832
    11500.862600       0.882696
    11514.104800       0.885529
    11527.377500       0.888329
    11540.680900       0.891098
    11554.015000       0.893834
    11567.380000       0.896539
    11580.775900       0.899210
    11594.202900       0.901849
    11607.661100       0.904455
    11621.150500       0.907028
    11634.671300       0.909567
    11648.223600       0.912073
    11661.807600       0.914545
    11675.423200       0.916983
    11689.070700       0.919387
    11702.750100       0.921757
    11716.461600       0.924093
    11730.205300       0.926394
    11743.981200       0.928661
    11757.789500       0.930893
    11771.630400       0.933090
    11785.503800       0.935252
    11799.410000       0.937379
    11813.349100       0.939471
    11827.321100       0.941527
    11841.326200       0.943548
    11855.364600       0.945534
    11869.436200       0.947484
    11883.541300       0.949398
    11897.680000       0.951277
    11911.852300       0.953120
    11926.058400       0.954927
    11940.298500       0.956699
    11954.572600       0.958434
    11968.880900       0.960133
    11983.223500       0.961797
    11997.600500       0.963424
    12012.012000       0.965015
    12026.458200       0.966571
    12040.939200       0.968090
    12055.455100       0.969573
    12070.006000       0.971020
    12084.592100       0.972431
    12099.213600       0.973806
    12113.870400       0.975144
    12128.562800       0.976447
    12143.290800       0.977714
    12158.054700       0.978945
    12172.854500       0.980139
    12187.690400       0.981298
    12202.562500       0.982421
    12217.471000       0.983509
    12232.415900       0.984560
    12247.397400       0.985576
    12262.415700       0.986557
    12277.470800       0.987502
    12292.563000       0.988411
    12307.692300       0.989285
    12322.858900       0.990124
    12338.062900       0.990928
    12353.304500       0.991696
    12368.583800       0.992430
    12383.900900       0.993129
    12399.256000       0.993793
    12414.649300       0.994422
    12430.080800       0.995017
    12445.550700       0.995578
    12461.059200       0.996105
    12476.606400       0.996597
    12492.192400       0.997055
    12507.817400       0.997480
    12523.481500       0.997871
    12539.185000       0.998229
    12554.927800       0.998553
    12570.710200       0.998844
    12586.532400       0.999102
    12602.394500       0.999327
    12618.296500       0.999520
    12634.238800       0.999680
    12650.221400       0.999808
    12666.244500       0.999903
    12682.308200       0.999967
    12698.412700       0.999999
    12714.558200       1.000000
    12730.744700       0.999969
    12746.972600       0.999907
    12763.241900       0.999815
    12779.552700       0.999691
    12795.905300       0.999537
    12812.299800       0.999353
    12828.736400       0.999139
    12845.215200       0.998895
    12861.736300       0.998621
    12878.300100       0.998318
    12894.906500       0.997986
    12911.555800       0.997625
    12928.248200       0.997236
    12944.983800       0.996817
    12961.762800       0.996371
    12978.585300       0.995897
    12995.451600       0.995395
    13012.361700       0.994866
    13029.316000       0.994309
    13046.314400       0.993725
    13063.357300       0.993115
    13080.444700       0.992478
    13097.576900       0.991816
    13114.754100       0.991127
    13131.976400       0.990412
    13149.243900       0.989672
    13166.556900       0.988907
    13183.915600       0.988117
    13201.320100       0.987303
    13218.770700       0.986464
    13236.267400       0.985601
    13253.810500       0.984714
    13271.400100       0.983804
    13289.036500       0.982871
    13306.719900       0.981914
    13324.450400       0.980935
    13342.228200       0.979933
    13360.053400       0.978909
    13377.926400       0.977863
    13395.847300       0.976796
    13413.816200       0.975707
    13431.833400       0.974597
    13449.899100       0.973467
    13468.013500       0.972315
    13486.176700       0.971144
    13504.388900       0.969953
    13522.650400       0.968742
    13540.961400       0.967511
    13559.322000       0.966261
    13577.732500       0.964993
    13596.193100       0.963706
    13614.703900       0.962400
    13633.265200       0.961077
    13651.877100       0.959735
    13670.540000       0.958377
    13689.253900       0.957001
    13708.019200       0.955608
    13726.836000       0.954198
    13745.704500       0.952772
    13764.624900       0.951329
    13783.597500       0.949871
    13802.622500       0.948398
    13821.700100       0.946908
    13840.830400       0.945404
    13860.013900       0.943885
    13879.250500       0.942351
    13898.540700       0.940803
    13917.884500       0.939241
    13937.282200       0.937666
    13956.734100       0.936076
    13976.240400       0.934473
    13995.801300       0.932858
    14015.417000       0.931229
    14035.087700       0.929588
    14054.813800       0.927935
    14074.595400       0.926269
    14094.432700       0.924592
    14114.326000       0.922903
    14134.275600       0.921203
    14154.281700       0.919491
    14174.344400       0.917769
    14194.464200       0.916036
    14214.641100       0.914293
    14234.875400       0.912539
    14255.167500       0.910776
    14275.517500       0.909002
    14295.925700       0.907219
    14316.392300       0.905427
    14336.917600       0.903626
    14357.501800       0.901816
    14378.145200       0.899997
    14398.848100       0.898169
    14419.610700       0.896333
    14440.433200       0.894489
    14461.316000       0.892637
    14482.259200       0.890778
    14503.263200       0.888911
    14524.328200       0.887036
    14545.454500       0.885155
    14566.642400       0.883266
    14587.892000       0.881371
    14609.203800       0.879468
    14630.577900       0.877560
    14652.014700       0.875645
    14673.514300       0.873724
    14695.077100       0.871797
    14716.703500       0.869864
    14738.393500       0.867926
    14760.147600       0.865982
    14781.966000       0.864032
    14803.849000       0.862077
    14825.796900       0.860118
    14847.809900       0.858153
    14869.888500       0.856183
    14892.032800       0.854209
    14914.243100       0.852230
    14936.519800       0.850247
    14958.863100       0.848259
    14981.273400       0.846267
    15003.750900       0.844271
    15026.296000       0.842271
    15048.909000       0.840267
    15071.590100       0.838259
    15094.339600       0.836248
    15117.158000       0.834233
    15140.045400       0.832214
    15163.002300       0.830192
    15186.028900       0.828167
    15209.125500       0.826138
    15232.292500       0.824106
    15255.530100       0.822071
    15278.838800       0.820033
    15302.218800       0.817992
    15325.670500       0.815948
    15349.194200       0.813901
    15372.790200       0.811851
    15396.458800       0.809799
    15420.200500       0.807744
    15444.015400       0.805686
    15467.904100       0.803625
    15491.866800       0.801562
    15515.903800       0.799496
    15540.015500       0.797428
    15564.202300       0.795357
    15588.464500       0.793284
    15612.802500       0.791208
    15637.216600       0.789130
    15661.707100       0.787049
    15686.274500       0.784966
    15710.919100       0.782880
    15735.641200       0.780792
    15760.441300       0.778702
    15785.319700       0.776609
    15810.276700       0.774513
    15835.312700       0.772416
    15860.428200       0.770315
    15885.623500       0.768213
    15910.899000       0.766107
    15936.255000       0.763999
    15961.691900       0.761889
    15987.210200       0.759776
    16012.810200       0.757661
    16038.492400       0.755542
    16064.257000       0.753422
    16090.104600       0.751298
    16116.035500       0.749172
    16142.050000       0.747042
    16168.148700       0.744911
    16194.332000       0.742776
    16220.600200       0.740638
    16246.953700       0.738497
    16273.393000       0.736353
    16299.918500       0.734206
    16326.530600       0.732056
    16353.229800       0.729902
    16380.016400       0.727745
    16406.890900       0.725585
    16433.853700       0.723421
    16460.905300       0.721254
    16488.046200       0.719083
    16515.276600       0.716908
    16542.597200       0.714730
    16570.008300       0.712548
    16597.510400       0.710362
    16625.103900       0.708172
    16652.789300       0.705978
    16680.567100       0.703780
    16708.437800       0.701577
    16736.401700       0.699370
    16764.459300       0.697159
    16792.611300       0.694943
    16820.857900       0.692722
    16849.199700       0.690497
    16877.637100       0.688267
    16906.170800       0.686032
    16934.801000       0.683792
    16963.528400       0.681546
    16992.353400       0.679296
    17021.276600       0.677040
    17050.298400       0.674779
    17079.419300       0.672513
    17108.639900       0.670241
    17137.960600       0.667963
    17167.382000       0.665679
    17196.904600       0.663389
    17226.528900       0.661094
    17256.255400       0.658792
    17286.084700       0.656484
    17316.017300       0.654169
    17346.053800       0.651849
    17376.194600       0.649521
    17406.440400       0.647188
    17436.791600       0.644847
    17467.248900       0.642499
    17497.812800       0.640145
    17528.483800       0.637784
    17559.262500       0.635415
    17590.149500       0.633039
    17621.145400       0.630656
    17652.250700       0.628266
    17683.466000       0.625868
    17714.791900       0.623462
    17746.228900       0.621049
    17777.777800       0.618628
    17809.439000       0.616199
    17841.213200       0.613762
    17873.101000       0.611317
    17905.103000       0.608863
    17937.219700       0.606402
    17969.451900       0.603932
    18001.800200       0.601454
    18034.265100       0.598968
    18066.847300       0.596473
    18099.547500       0.593969
    18132.366300       0.591456
    18165.304300       0.588935
    18198.362100       0.586405
    18231.540600       0.583866
    18264.840200       0.581319
    18298.261700       0.578762
    18331.805700       0.576196
    18365.472900       0.573621
    18399.264000       0.571036
    18433.179700       0.568443
    18467.220700       0.565840
    18501.387600       0.563228
    18535.681200       0.560607
    18570.102100       0.557976
    18604.651200       0.555336
    18639.329000       0.552686
    18674.136300       0.550027
    18709.073900       0.547358
    18744.142500       0.544680
    18779.342700       0.541992
    18814.675400       0.539295
    18850.141400       0.536588
    18885.741300       0.533871
    18921.475900       0.531145
    18957.346000       0.528410
    18993.352300       0.525664
    19029.495700       0.522910
    19065.776900       0.520145
    19102.196800       0.517372
    19138.756000       0.514588
    19175.455400       0.511795
    19212.295900       0.508993
    19249.278200       0.506181
    19286.403100       0.503360
    19323.671500       0.500529
    19361.084200       0.497690
    19398.642100       0.494841
    19436.346000       0.491983
    19474.196700       0.489115
    19512.195100       0.486239
    19550.342100       0.483353
    19588.638600       0.480459
    19627.085400       0.477556
    19665.683400       0.474644
    19704.433500       0.471724
    19743.336600       0.468795
    19782.393700       0.465857
    19821.605600       0.462911
    19860.973200       0.459957
    19900.497500       0.456995
    19940.179500       0.454025
    19980.020000       0.451047
    20020.020000       0.448061
    20060.180500       0.445067
    20100.502500       0.442066
    20140.986900       0.439057
    20181.634700       0.436042
    20222.446900       0.433019
    20263.424500       0.429989
    20304.568500       0.426953
    20345.880000       0.423910
    20387.359800       0.420861
    20429.009200       0.417806
    20470.829100       0.414744
    20512.820500       0.411677
    20554.984600       0.408604
    20597.322300       0.405525
    20639.834900       0.402442
    20682.523300       0.399353
    20725.388600       0.396260
    20768.432000       0.393161
    20811.654500       0.390059
    20855.057400       0.386952
    20898.641600       0.383842
    20942.408400       0.380727
    20986.358900       0.377610
    21030.494200       0.374489
    21074.815600       0.371365
    21119.324200       0.368239
    21164.021200       0.365109
    21208.907700       0.361978
    21253.985100       0.358845
    21299.254500       0.355711
    21344.717200       0.352574
    21390.374300       0.349437
    21436.227200       0.346299
    21482.277100       0.343161
    21528.525300       0.340022
    21574.973000       0.336884
    21621.621600       0.333745
    21668.472400       0.330608
    21715.526600       0.327471
    21762.785600       0.324336
    21810.250800       0.321202
    21857.923500       0.318071
    21905.805000       0.314941
    21953.896800       0.311814
    22002.200200       0.308690
    22050.716600       0.305569
    22099.447500       0.302452
    22148.394200       0.299338
    22197.558300       0.296229
    22246.941000       0.293124
    22296.544000       0.290025
    22346.368700       0.286930
    22396.416600       0.283841
    22446.689100       0.280757
    22497.187900       0.277681
    22547.914300       0.274610
    22598.870100       0.271547
    22650.056600       0.268490
    22701.475600       0.265442
    22753.128600       0.262401
    22805.017100       0.259369
    22857.142900       0.256345
    22909.507400       0.253330
    22962.112500       0.250325
    23014.959700       0.247329
    23068.050700       0.244344
    23121.387300       0.241369
    23174.971000       0.238404
    23228.803700       0.235451
    23282.887100       0.232509
    23337.222900       0.229578
    23391.812900       0.226660
    23446.658900       0.223754
    23501.762600       0.220861
    23557.126000       0.217981
    23612.750900       0.215114
    23668.639100       0.212261
    23724.792400       0.209422
    23781.212800       0.206597
    23837.902300       0.203787
    23894.862600       0.200992
    23952.095800       0.198212
    24009.603800       0.195447
    24067.388700       0.192698
    24125.452400       0.189966
    24183.796900       0.187250
    24242.424200       0.184550
    24301.336600       0.181867
    24360.535900       0.179201
    24420.024400       0.176553
    24479.804200       0.173922
    24539.877300       0.171309
    24600.246000       0.168715
    24660.912500       0.166138
    24721.878900       0.163580
    24783.147500       0.161040
    24844.720500       0.158519
    24906.600200       0.156018
    24968.789000       0.153535
    25031.289100       0.151072
    25094.102900       0.148628
    25157.232700       0.146204
    25220.681000       0.143799
    25284.450100       0.141414
    25348.542500       0.139049
    25412.960600       0.136704
    25477.707000       0.134379
