14, GOES-R 11.2um ABI SRF CWG processed version 3 March 10, 2016
Number of data points:
1383
Wavenumber (cm-1)   Filter response
      823.600000       0.001087
      823.700000       0.001183
      823.800000       0.001273
      823.900000       0.001370
      824.000000       0.001457
      824.100000       0.001472
      824.200000       0.001482
      824.300000       0.001487
      824.400000       0.001493
      824.500000       0.001502
      824.600000       0.001511
      824.700000       0.001516
      824.800000       0.001522
      824.900000       0.001532
      825.000000       0.001533
      825.100000       0.001525
      825.200000       0.001510
      825.300000       0.001498
      825.400000       0.001483
      825.500000       0.001471
      825.600000       0.001457
      825.700000       0.001444
      825.800000       0.001430
      825.900000       0.001416
      826.000000       0.001400
      826.100000       0.001367
      826.200000       0.001334
      826.300000       0.001302
      826.400000       0.001269
      826.500000       0.001237
      826.600000       0.001204
      826.700000       0.001166
      826.800000       0.001131
      826.900000       0.001098
      827.000000       0.001068
      827.100000       0.001125
      827.200000       0.001195
      827.300000       0.001260
      827.400000       0.001326
      827.500000       0.001392
      827.600000       0.001457
      827.700000       0.001524
      827.800000       0.001588
      827.900000       0.001650
      828.000000       0.001707
      828.100000       0.001712
      828.200000       0.001713
      828.300000       0.001714
      828.400000       0.001708
      828.500000       0.001709
      828.600000       0.001710
      828.700000       0.001704
      828.800000       0.001705
      828.900000       0.001706
      829.000000       0.001713
      829.100000       0.001807
      829.200000       0.001913
      829.300000       0.002025
      829.400000       0.002129
      829.500000       0.002235
      829.600000       0.002340
      829.700000       0.002449
      829.800000       0.002560
      829.900000       0.002666
      830.000000       0.002766
      830.100000       0.002751
      830.200000       0.002724
      830.300000       0.002703
      830.400000       0.002675
      830.500000       0.002647
      830.600000       0.002627
      830.700000       0.002598
      830.800000       0.002574
      830.900000       0.002549
      831.000000       0.002508
      831.100000       0.002384
      831.200000       0.002246
      831.300000       0.002109
      831.400000       0.001971
      831.500000       0.001833
      831.600000       0.001695
      831.700000       0.001557
      831.800000       0.001411
      831.900000       0.001267
      832.000000       0.001154
      832.100000       0.001307
      832.200000       0.001484
      832.300000       0.001662
      832.400000       0.001835
      832.500000       0.002009
      832.600000       0.002176
      832.700000       0.002343
      832.800000       0.002502
      832.900000       0.002663
      833.000000       0.002808
      833.100000       0.002859
      833.200000       0.002888
      833.300000       0.002922
      833.400000       0.002956
      833.500000       0.002986
      833.600000       0.003018
      833.700000       0.003053
      833.800000       0.003086
      833.900000       0.003117
      834.000000       0.003137
      834.100000       0.003076
      834.200000       0.002996
      834.300000       0.002915
      834.400000       0.002835
      834.500000       0.002754
      834.600000       0.002674
      834.700000       0.002587
      834.800000       0.002503
      834.900000       0.002409
      835.000000       0.002322
      835.100000       0.002440
      835.200000       0.002562
      835.300000       0.002685
      835.400000       0.002808
      835.500000       0.002922
      835.600000       0.003046
      835.700000       0.003160
      835.800000       0.003275
      835.900000       0.003391
      836.000000       0.003495
      836.100000       0.003546
      836.200000       0.003575
      836.300000       0.003615
      836.400000       0.003654
      836.500000       0.003689
      836.600000       0.003723
      836.700000       0.003762
      836.800000       0.003801
      836.900000       0.003840
      837.000000       0.003887
      837.100000       0.004012
      837.200000       0.004140
      837.300000       0.004277
      837.400000       0.004412
      837.500000       0.004543
      837.600000       0.004671
      837.700000       0.004804
      837.800000       0.004938
      837.900000       0.005067
      838.000000       0.005193
      838.100000       0.005261
      838.200000       0.005332
      838.300000       0.005399
      838.400000       0.005469
      838.500000       0.005538
      838.600000       0.005606
      838.700000       0.005674
      838.800000       0.006196
      838.900000       0.006633
      839.000000       0.007077
      839.100000       0.007516
      839.200000       0.007917
      839.300000       0.007762
      839.400000       0.007473
      839.500000       0.007189
      839.600000       0.006901
      839.700000       0.006613
      839.800000       0.006329
      839.900000       0.006041
      840.000000       0.005751
      840.100000       0.005466
      840.200000       0.005182
      840.300000       0.004906
      840.400000       0.004629
      840.500000       0.004350
      840.600000       0.004073
      840.700000       0.003794
      840.800000       0.003515
      840.900000       0.003239
      841.000000       0.002980
      841.100000       0.003014
      841.200000       0.003256
      841.300000       0.003506
      841.400000       0.003766
      841.500000       0.004017
      841.600000       0.004268
      841.700000       0.004520
      841.800000       0.004772
      841.900000       0.005036
      842.000000       0.005430
      842.100000       0.006006
      842.200000       0.006577
      842.300000       0.007149
      842.400000       0.007720
      842.500000       0.008290
      842.600000       0.008863
      842.700000       0.009421
      842.800000       0.009998
      842.900000       0.010524
      843.000000       0.010970
      843.100000       0.011418
      843.200000       0.011962
      843.300000       0.012406
      843.400000       0.012853
      843.500000       0.013299
      843.600000       0.013746
      843.700000       0.014192
      843.800000       0.014634
      843.900000       0.014808
      844.000000       0.015029
      844.100000       0.015200
      844.200000       0.015428
      844.300000       0.015590
      844.400000       0.015766
      844.500000       0.015983
      844.600000       0.016177
      844.700000       0.016407
      844.800000       0.016685
      844.900000       0.016984
      845.000000       0.017284
      845.100000       0.017584
      845.200000       0.017885
      845.300000       0.018188
      845.400000       0.018492
      845.500000       0.018796
      845.600000       0.019117
      845.700000       0.019572
      845.800000       0.020025
      845.900000       0.020480
      846.000000       0.020933
      846.100000       0.021383
      846.200000       0.021752
      846.300000       0.022071
      846.400000       0.022390
      846.500000       0.022766
      846.600000       0.023124
      846.700000       0.023449
      846.800000       0.023842
      846.900000       0.024350
      847.000000       0.024788
      847.100000       0.025212
      847.200000       0.025663
      847.300000       0.026156
      847.400000       0.026585
      847.500000       0.027011
      847.600000       0.027437
      847.700000       0.027925
      847.800000       0.028385
      847.900000       0.028817
      848.000000       0.029329
      848.100000       0.029873
      848.200000       0.030484
      848.300000       0.031050
      848.400000       0.031642
      848.500000       0.032168
      848.600000       0.032756
      848.700000       0.033331
      848.800000       0.033928
      848.900000       0.034482
      849.000000       0.035085
      849.100000       0.035647
      849.200000       0.036261
      849.300000       0.036847
      849.400000       0.037603
      849.500000       0.038412
      849.600000       0.039150
      849.700000       0.039893
      849.800000       0.040696
      849.900000       0.041466
      850.000000       0.042205
      850.100000       0.042954
      850.200000       0.043790
      850.300000       0.044687
      850.400000       0.045577
      850.500000       0.046583
      850.600000       0.047759
      850.700000       0.049027
      850.800000       0.050299
      850.900000       0.051613
      851.000000       0.052948
      851.100000       0.054220
      851.200000       0.055493
      851.300000       0.056766
      851.400000       0.058039
      851.500000       0.059313
      851.600000       0.060742
      851.700000       0.062415
      851.800000       0.064165
      851.900000       0.065874
      852.000000       0.067574
      852.100000       0.069329
      852.200000       0.071051
      852.300000       0.072758
      852.400000       0.074532
      852.500000       0.076273
      852.600000       0.078027
      852.700000       0.079971
      852.800000       0.082120
      852.900000       0.084298
      853.000000       0.086477
      853.100000       0.088657
      853.200000       0.090829
      853.300000       0.093013
      853.400000       0.095172
      853.500000       0.097463
      853.600000       0.100023
      853.700000       0.101580
      853.800000       0.104214
      853.900000       0.106798
      854.000000       0.110264
      854.100000       0.112893
      854.200000       0.115463
      854.300000       0.118003
      854.400000       0.121124
      854.500000       0.124149
      854.600000       0.126694
      854.700000       0.129252
      854.800000       0.131897
      854.900000       0.135371
      855.000000       0.139206
      855.100000       0.142959
      855.200000       0.145984
      855.300000       0.149699
      855.400000       0.153516
      855.500000       0.156410
      855.600000       0.160177
      855.700000       0.164049
      855.800000       0.166936
      855.900000       0.170957
      856.000000       0.175420
      856.100000       0.180142
      856.200000       0.184941
      856.300000       0.189445
      856.400000       0.193822
      856.500000       0.198347
      856.600000       0.202822
      856.700000       0.207330
      856.800000       0.211845
      856.900000       0.216260
      857.000000       0.221463
      857.100000       0.227319
      857.200000       0.232597
      857.300000       0.237744
      857.400000       0.243677
      857.500000       0.248886
      857.600000       0.254556
      857.700000       0.260062
      857.800000       0.265114
      857.900000       0.270446
      858.000000       0.275710
      858.100000       0.281188
      858.200000       0.286456
      858.300000       0.292270
      858.400000       0.297717
      858.500000       0.303196
      858.600000       0.309069
      858.700000       0.314190
      858.800000       0.320086
      858.900000       0.325417
      859.000000       0.330987
      859.100000       0.336752
      859.200000       0.342203
      859.300000       0.348862
      859.400000       0.354790
      859.500000       0.360744
      859.600000       0.366702
      859.700000       0.372663
      859.800000       0.378592
      859.900000       0.384567
      860.000000       0.390545
      860.100000       0.396523
      860.200000       0.402478
      860.300000       0.409218
      860.400000       0.415689
      860.500000       0.422335
      860.600000       0.428427
      860.700000       0.435062
      860.800000       0.441414
      860.900000       0.448147
      861.000000       0.454242
      861.100000       0.460559
      861.200000       0.466778
      861.300000       0.472960
      861.400000       0.479516
      861.500000       0.485530
      861.600000       0.491913
      861.700000       0.498009
      861.800000       0.504410
      861.900000       0.510637
      862.000000       0.517429
      862.100000       0.523529
      862.200000       0.529909
      862.300000       0.535847
      862.400000       0.542312
      862.500000       0.548496
      862.600000       0.554665
      862.700000       0.560922
      862.800000       0.566874
      862.900000       0.572529
      863.000000       0.578921
      863.100000       0.584598
      863.200000       0.590193
      863.300000       0.596345
      863.400000       0.602227
      863.500000       0.607773
      863.600000       0.613535
      863.700000       0.619793
      863.800000       0.625358
      863.900000       0.630882
      864.000000       0.636420
      864.100000       0.641279
      864.200000       0.646360
      864.300000       0.651086
      864.400000       0.656626
      864.500000       0.661824
      864.600000       0.666789
      864.700000       0.671905
      864.800000       0.676204
      864.900000       0.680530
      865.000000       0.685387
      865.100000       0.689836
      865.200000       0.693767
      865.300000       0.697426
      865.400000       0.700764
      865.500000       0.704702
      865.600000       0.708689
      865.700000       0.712341
      865.800000       0.715686
      865.900000       0.719667
      866.000000       0.723658
      866.100000       0.727453
      866.200000       0.730640
      866.300000       0.734581
      866.400000       0.738532
      866.500000       0.742391
      866.600000       0.745454
      866.700000       0.748425
      866.800000       0.751397
      866.900000       0.754245
      867.000000       0.756385
      867.100000       0.759276
      867.200000       0.762178
      867.300000       0.765000
      867.400000       0.767813
      867.500000       0.770628
      867.600000       0.773445
      867.700000       0.776056
      867.800000       0.778147
      867.900000       0.780916
      868.000000       0.783329
      868.100000       0.785042
      868.200000       0.787340
      868.300000       0.789498
      868.400000       0.791196
      868.500000       0.792893
      868.600000       0.795299
      868.700000       0.797290
      868.800000       0.798971
      868.900000       0.801455
      869.000000       0.803294
      869.100000       0.804987
      869.200000       0.806692
      869.300000       0.808425
      869.400000       0.809820
      869.500000       0.810891
      869.600000       0.812325
      869.700000       0.813521
      869.800000       0.815275
      869.900000       0.816569
      870.000000       0.817944
      870.100000       0.819822
      870.200000       0.821113
      870.300000       0.822655
      870.400000       0.824552
      870.500000       0.825598
      870.600000       0.826459
      870.700000       0.827321
      870.800000       0.828177
      870.900000       0.829024
      871.000000       0.829864
      871.100000       0.830698
      871.200000       0.831524
      871.300000       0.832340
      871.400000       0.833144
      871.500000       0.833937
      871.600000       0.834717
      871.700000       0.835483
      871.800000       0.836258
      871.900000       0.836311
      872.000000       0.836741
      872.100000       0.837468
      872.200000       0.838189
      872.300000       0.838049
      872.400000       0.838608
      872.500000       0.839243
      872.600000       0.839862
      872.700000       0.839716
      872.800000       0.840398
      872.900000       0.841139
      873.000000       0.841726
      873.100000       0.842165
      873.200000       0.843585
      873.300000       0.844626
      873.400000       0.845452
      873.500000       0.846428
      873.600000       0.847481
      873.700000       0.849064
      873.800000       0.849977
      873.900000       0.851203
      874.000000       0.852165
      874.100000       0.853385
      874.200000       0.854985
      874.300000       0.855814
      874.400000       0.857094
      874.500000       0.857872
      874.600000       0.858471
      874.700000       0.859288
      874.800000       0.860623
      874.900000       0.861286
      875.000000       0.862097
      875.100000       0.863349
      875.200000       0.863976
      875.300000       0.864841
      875.400000       0.866051
      875.500000       0.866641
      875.600000       0.867208
      875.700000       0.868272
      875.800000       0.869273
      875.900000       0.869829
      876.000000       0.870371
      876.100000       0.870911
      876.200000       0.871450
      876.300000       0.872066
      876.400000       0.873343
      876.500000       0.874057
      876.600000       0.874603
      876.700000       0.875150
      876.800000       0.875698
      876.900000       0.876245
      877.000000       0.876997
      877.100000       0.878261
      877.200000       0.878874
      877.300000       0.879428
      877.400000       0.880005
      877.500000       0.880591
      877.600000       0.881189
      877.700000       0.881794
      877.800000       0.882404
      877.900000       0.883013
      878.000000       0.883623
      878.100000       0.884319
      878.200000       0.884979
      878.300000       0.886181
      878.400000       0.887236
      878.500000       0.888577
      878.600000       0.889516
      878.700000       0.890170
      878.800000       0.891560
      878.900000       0.892309
      879.000000       0.893043
      879.100000       0.894453
      879.200000       0.895261
      879.300000       0.896704
      879.400000       0.897418
      879.500000       0.898106
      879.600000       0.899503
      879.700000       0.900063
      879.800000       0.900827
      879.900000       0.902098
      880.000000       0.902585
      880.100000       0.903421
      880.200000       0.904571
      880.300000       0.905382
      880.400000       0.906570
      880.500000       0.907061
      880.600000       0.907955
      880.700000       0.909048
      880.800000       0.909437
      880.900000       0.910444
      881.000000       0.911427
      881.100000       0.911918
      881.200000       0.913131
      881.300000       0.914118
      881.400000       0.915362
      881.500000       0.916431
      881.600000       0.917160
      881.700000       0.918652
      881.800000       0.919840
      881.900000       0.920747
      882.000000       0.922574
      882.100000       0.923824
      882.200000       0.924887
      882.300000       0.925982
      882.400000       0.927205
      882.500000       0.929041
      882.600000       0.930292
      882.700000       0.931371
      882.800000       0.932473
      882.900000       0.933590
      883.000000       0.934710
      883.100000       0.935817
      883.200000       0.937222
      883.300000       0.938980
      883.400000       0.940077
      883.500000       0.941099
      883.600000       0.941652
      883.700000       0.941964
      883.800000       0.942868
      883.900000       0.943776
      884.000000       0.944665
      884.100000       0.945536
      884.200000       0.946389
      884.300000       0.947224
      884.400000       0.948043
      884.500000       0.948848
      884.600000       0.949645
      884.700000       0.950438
      884.800000       0.951230
      884.900000       0.952021
      885.000000       0.952730
      885.100000       0.953275
      885.200000       0.953785
      885.300000       0.954372
      885.400000       0.955677
      885.500000       0.956436
      885.600000       0.956980
      885.700000       0.957472
      885.800000       0.958066
      885.900000       0.958700
      886.000000       0.959469
      886.100000       0.960909
      886.200000       0.961855
      886.300000       0.962614
      886.400000       0.963549
      886.500000       0.965165
      886.600000       0.966133
      886.700000       0.966963
      886.800000       0.967805
      886.900000       0.968847
      887.000000       0.970589
      887.100000       0.971414
      887.200000       0.972212
      887.300000       0.972964
      887.400000       0.973807
      887.500000       0.975390
      887.600000       0.976157
      887.700000       0.976826
      887.800000       0.977664
      887.900000       0.979102
      888.000000       0.979736
      888.100000       0.980256
      888.200000       0.980716
      888.300000       0.981483
      888.400000       0.982604
      888.500000       0.983050
      888.600000       0.983448
      888.700000       0.983845
      888.800000       0.984258
      888.900000       0.984266
      889.000000       0.983952
      889.100000       0.984371
      889.200000       0.984764
      889.300000       0.985152
      889.400000       0.985556
      889.500000       0.985354
      889.600000       0.985228
      889.700000       0.985615
      889.800000       0.986005
      889.900000       0.986422
      890.000000       0.986224
      890.100000       0.986092
      890.200000       0.986533
      890.300000       0.986967
      890.400000       0.986789
      890.500000       0.986784
      890.600000       0.987305
      890.700000       0.987863
      890.800000       0.987744
      890.900000       0.987831
      891.000000       0.988445
      891.100000       0.989058
      891.200000       0.988967
      891.300000       0.989120
      891.400000       0.989812
      891.500000       0.989602
      891.600000       0.989884
      891.700000       0.990523
      891.800000       0.991176
      891.900000       0.990936
      892.000000       0.991230
      892.100000       0.991785
      892.200000       0.991498
      892.300000       0.991843
      892.400000       0.992345
      892.500000       0.992273
      892.600000       0.992518
      892.700000       0.993077
      892.800000       0.992894
      892.900000       0.993002
      893.000000       0.992719
      893.100000       0.993050
      893.200000       0.992814
      893.300000       0.992976
      893.400000       0.993517
      893.500000       0.993109
      893.600000       0.993226
      893.700000       0.992982
      893.800000       0.993160
      893.900000       0.993588
      894.000000       0.993259
      894.100000       0.993388
      894.200000       0.993879
      894.300000       0.993425
      894.400000       0.993660
      894.500000       0.994019
      894.600000       0.993618
      894.700000       0.993973
      894.800000       0.994341
      894.900000       0.994059
      895.000000       0.994269
      895.100000       0.994750
      895.200000       0.995091
      895.300000       0.994833
      895.400000       0.995030
      895.500000       0.995493
      895.600000       0.995957
      895.700000       0.996250
      895.800000       0.995834
      895.900000       0.996129
      896.000000       0.996541
      896.100000       0.996945
      896.200000       0.997327
      896.300000       0.996790
      896.400000       0.996997
      896.500000       0.997400
      896.600000       0.997781
      896.700000       0.998154
      896.800000       0.998427
      896.900000       0.998026
      897.000000       0.998077
      897.100000       0.998310
      897.200000       0.998626
      897.300000       0.998966
      897.400000       0.999326
      897.500000       0.999690
      897.600000       0.999986
      897.700000       0.999600
      897.800000       0.999519
      897.900000       0.998954
      898.000000       0.999123
      898.100000       0.999360
      898.200000       0.998947
      898.300000       0.999026
      898.400000       0.999328
      898.500000       0.998918
      898.600000       0.998829
      898.700000       0.998323
      898.800000       0.998411
      898.900000       0.998653
      899.000000       0.998270
      899.100000       0.998255
      899.200000       0.998583
      899.300000       0.998163
      899.400000       0.998073
      899.500000       0.998387
      899.600000       0.998692
      899.700000       0.998293
      899.800000       0.998149
      899.900000       0.998477
      900.000000       0.998017
      900.100000       0.997940
      900.200000       0.998261
      900.300000       0.998588
      900.400000       0.998168
      900.500000       0.998052
      900.600000       0.998346
      900.700000       0.998622
      900.800000       0.998894
      900.900000       0.998512
      901.000000       0.998217
      901.100000       0.998451
      901.200000       0.998673
      901.300000       0.998897
      901.400000       0.998599
      901.500000       0.998198
      901.600000       0.998429
      901.700000       0.998649
      901.800000       0.998865
      901.900000       0.999077
      902.000000       0.998839
      902.100000       0.998391
      902.200000       0.998539
      902.300000       0.998726
      902.400000       0.998908
      902.500000       0.999083
      902.600000       0.999254
      902.700000       0.999102
      902.800000       0.998390
      902.900000       0.998468
      903.000000       0.998612
      903.100000       0.998486
      903.200000       0.997748
      903.300000       0.997611
      903.400000       0.996977
      903.500000       0.997048
      903.600000       0.997074
      903.700000       0.996287
      903.800000       0.996026
      903.900000       0.995336
      904.000000       0.995412
      904.100000       0.995413
      904.200000       0.994701
      904.300000       0.994436
      904.400000       0.993600
      904.500000       0.992699
      904.600000       0.992418
      904.700000       0.991612
      904.800000       0.990536
      904.900000       0.990560
      905.000000       0.989773
      905.100000       0.989434
      905.200000       0.988700
      905.300000       0.987588
      905.400000       0.987412
      905.500000       0.986662
      905.600000       0.985526
      905.700000       0.985378
      905.800000       0.984650
      905.900000       0.983685
      906.000000       0.983323
      906.100000       0.982808
      906.200000       0.981688
      906.300000       0.981335
      906.400000       0.980870
      906.500000       0.979723
      906.600000       0.979437
      906.700000       0.978950
      906.800000       0.977954
      906.900000       0.977484
      907.000000       0.977106
      907.100000       0.976654
      907.200000       0.976338
      907.300000       0.975312
      907.400000       0.974818
      907.500000       0.974527
      907.600000       0.973986
      907.700000       0.973893
      907.800000       0.973199
      907.900000       0.973035
      908.000000       0.972166
      908.100000       0.971393
      908.200000       0.971470
      908.300000       0.970756
      908.400000       0.970575
      908.500000       0.969880
      908.600000       0.969069
      908.700000       0.969194
      908.800000       0.968675
      908.900000       0.968607
      909.000000       0.968012
      909.100000       0.967260
      909.200000       0.967233
      909.300000       0.966783
      909.400000       0.965899
      909.500000       0.966111
      909.600000       0.965689
      909.700000       0.965575
      909.800000       0.965246
      909.900000       0.964114
      910.000000       0.963744
      910.100000       0.963047
      910.200000       0.961765
      910.300000       0.961174
      910.400000       0.960451
      910.500000       0.959720
      910.600000       0.959096
      910.700000       0.957733
      910.800000       0.956372
      910.900000       0.955494
      911.000000       0.954904
      911.100000       0.953548
      911.200000       0.952206
      911.300000       0.950863
      911.400000       0.949520
      911.500000       0.948178
      911.600000       0.946824
      911.700000       0.945731
      911.800000       0.945119
      911.900000       0.943958
      912.000000       0.942608
      912.100000       0.941260
      912.200000       0.939913
      912.300000       0.938563
      912.400000       0.937172
      912.500000       0.936695
      912.600000       0.935670
      912.700000       0.934290
      912.800000       0.932937
      912.900000       0.931591
      913.000000       0.930250
      913.100000       0.928918
      913.200000       0.928189
      913.300000       0.927482
      913.400000       0.926200
      913.500000       0.924922
      913.600000       0.923213
      913.700000       0.921208
      913.800000       0.919936
      913.900000       0.918692
      914.000000       0.917447
      914.100000       0.916204
      914.200000       0.914964
      914.300000       0.913727
      914.400000       0.912495
      914.500000       0.911269
      914.600000       0.909924
      914.700000       0.907950
      914.800000       0.906502
      914.900000       0.905332
      915.000000       0.904165
      915.100000       0.902948
      915.200000       0.901182
      915.300000       0.899731
      915.400000       0.898729
      915.500000       0.897737
      915.600000       0.896728
      915.700000       0.895201
      915.800000       0.893649
      915.900000       0.892718
      916.000000       0.891798
      916.100000       0.890539
      916.200000       0.888504
      916.300000       0.886887
      916.400000       0.884861
      916.500000       0.883300
      916.600000       0.881040
      916.700000       0.879045
      916.800000       0.876689
      916.900000       0.874481
      917.000000       0.872769
      917.100000       0.870037
      917.200000       0.867155
      917.300000       0.864299
      917.400000       0.860596
      917.500000       0.857175
      917.600000       0.854196
      917.700000       0.851218
      917.800000       0.848237
      917.900000       0.845257
      918.000000       0.842245
      918.100000       0.838189
      918.200000       0.834617
      918.300000       0.830752
      918.400000       0.827052
      918.500000       0.823077
      918.600000       0.819557
      918.700000       0.815572
      918.800000       0.811696
      918.900000       0.807498
      919.000000       0.803630
      919.100000       0.799069
      919.200000       0.794474
      919.300000       0.790004
      919.400000       0.786383
      919.500000       0.782275
      919.600000       0.777887
      919.700000       0.773519
      919.800000       0.769154
      919.900000       0.764803
      920.000000       0.760207
      920.100000       0.755119
      920.200000       0.750589
      920.300000       0.746255
      920.400000       0.741779
      920.500000       0.736389
      920.600000       0.732126
      920.700000       0.727503
      920.800000       0.721843
      920.900000       0.716771
      921.000000       0.711343
      921.100000       0.705941
      921.200000       0.700830
      921.300000       0.694942
      921.400000       0.689396
      921.500000       0.684284
      921.600000       0.678368
      921.700000       0.672904
      921.800000       0.667723
      921.900000       0.661925
      922.000000       0.656045
      922.100000       0.650168
      922.200000       0.644293
      922.300000       0.638387
      922.400000       0.633044
      922.500000       0.627815
      922.600000       0.622000
      922.700000       0.615922
      922.800000       0.609192
      922.900000       0.603433
      923.000000       0.597599
      923.100000       0.591768
      923.200000       0.585938
      923.300000       0.579826
      923.400000       0.573162
      923.500000       0.567248
      923.600000       0.561461
      923.700000       0.555376
      923.800000       0.548622
      923.900000       0.542844
      924.000000       0.536693
      924.100000       0.530422
      924.200000       0.525032
      924.300000       0.518891
      924.400000       0.513274
      924.500000       0.508042
      924.600000       0.502308
      924.700000       0.496382
      924.800000       0.491036
      924.900000       0.484758
      925.000000       0.479247
      925.100000       0.473969
      925.200000       0.468087
      925.300000       0.462143
      925.400000       0.456781
      925.500000       0.451429
      925.600000       0.446060
      925.700000       0.440674
      925.800000       0.435271
      925.900000       0.429855
      926.000000       0.424431
      926.100000       0.418999
      926.200000       0.413556
      926.300000       0.408099
      926.400000       0.402626
      926.500000       0.397147
      926.600000       0.391659
      926.700000       0.386159
      926.800000       0.380664
      926.900000       0.375642
      927.000000       0.370811
      927.100000       0.365210
      927.200000       0.359876
      927.300000       0.355350
      927.400000       0.349817
      927.500000       0.344365
      927.600000       0.339494
      927.700000       0.334621
      927.800000       0.329907
      927.900000       0.324500
      928.000000       0.319504
      928.100000       0.314849
      928.200000       0.309998
      928.300000       0.305194
      928.400000       0.300506
      928.500000       0.295165
      928.600000       0.290250
      928.700000       0.286106
      928.800000       0.281365
      928.900000       0.276867
      929.000000       0.272854
      929.100000       0.268373
      929.200000       0.263506
      929.300000       0.259464
      929.400000       0.255422
      929.500000       0.251126
      929.600000       0.246314
      929.700000       0.242082
      929.800000       0.238047
      929.900000       0.234618
      930.000000       0.231319
      930.100000       0.227955
      930.200000       0.224246
      930.300000       0.220637
      930.400000       0.217345
      930.500000       0.213368
      930.600000       0.209992
      930.700000       0.206626
      930.800000       0.203615
      930.900000       0.200526
      931.000000       0.197109
      931.100000       0.194366
      931.200000       0.191681
      931.300000       0.188995
      931.400000       0.186306
      931.500000       0.183641
      931.600000       0.180444
      931.700000       0.177059
      931.800000       0.174334
      931.900000       0.171749
      932.000000       0.169795
      932.100000       0.167435
      932.200000       0.164683
      932.300000       0.161900
      932.400000       0.159086
      932.500000       0.156262
      932.600000       0.153695
      932.700000       0.151720
      932.800000       0.149025
      932.900000       0.146118
      933.000000       0.144381
      933.100000       0.141735
      933.200000       0.139119
      933.300000       0.137340
      933.400000       0.135055
      933.500000       0.132813
      933.600000       0.130116
      933.700000       0.128245
      933.800000       0.125480
      933.900000       0.123290
      934.000000       0.121798
      934.100000       0.119799
      934.200000       0.117774
      934.300000       0.115868
      934.400000       0.113942
      934.500000       0.111959
      934.600000       0.110054
      934.700000       0.108121
      934.800000       0.106206
      934.900000       0.104144
      935.000000       0.102102
      935.100000       0.099988
      935.200000       0.097843
      935.300000       0.095726
      935.400000       0.093674
      935.500000       0.091517
      935.600000       0.089357
      935.700000       0.087224
      935.800000       0.085169
      935.900000       0.083169
      936.000000       0.081510
      936.100000       0.079868
      936.200000       0.078245
      936.300000       0.076625
      936.400000       0.074978
      936.500000       0.073318
      936.600000       0.071686
      936.700000       0.070089
      936.800000       0.068418
      936.900000       0.066867
      937.000000       0.065418
      937.100000       0.063981
      937.200000       0.062547
      937.300000       0.061113
      937.400000       0.059678
      937.500000       0.058243
      937.600000       0.056809
      937.700000       0.055389
      937.800000       0.054068
      937.900000       0.052773
      938.000000       0.052214
      938.100000       0.051700
      938.200000       0.051185
      938.300000       0.050671
      938.400000       0.050157
      938.500000       0.049643
      938.600000       0.049129
      938.700000       0.048615
      938.800000       0.048102
      938.900000       0.047589
      939.000000       0.047082
      939.100000       0.046638
      939.200000       0.046176
      939.300000       0.045760
      939.400000       0.045275
      939.500000       0.044767
      939.600000       0.044356
      939.700000       0.043888
      939.800000       0.043453
      939.900000       0.043002
      940.000000       0.042561
      940.100000       0.042108
      940.200000       0.041679
      940.300000       0.041211
      940.400000       0.040790
      940.500000       0.040327
      940.600000       0.039887
      940.700000       0.039449
      940.800000       0.038984
      940.900000       0.038567
      941.000000       0.038091
      941.100000       0.037668
      941.200000       0.037209
      941.300000       0.036713
      941.400000       0.035966
      941.500000       0.035163
      941.600000       0.034399
      941.700000       0.033633
      941.800000       0.032867
      941.900000       0.032101
      942.000000       0.031336
      942.100000       0.030573
      942.200000       0.029750
      942.300000       0.028916
      942.400000       0.028211
      942.500000       0.027630
      942.600000       0.027138
      942.700000       0.026574
      942.800000       0.026098
      942.900000       0.025585
      943.000000       0.025037
      943.100000       0.024503
      943.200000       0.023966
      943.300000       0.023438
      943.400000       0.022982
      943.500000       0.022763
      943.600000       0.022606
      943.700000       0.022447
      943.800000       0.022288
      943.900000       0.022129
      944.000000       0.021971
      944.100000       0.021813
      944.200000       0.021656
      944.300000       0.021501
      944.400000       0.021318
      944.500000       0.021012
      944.600000       0.020774
      944.700000       0.020551
      944.800000       0.020318
      944.900000       0.020024
      945.000000       0.019817
      945.100000       0.019554
      945.200000       0.019368
      945.300000       0.019059
      945.400000       0.018757
      945.500000       0.018458
      945.600000       0.018158
      945.700000       0.017859
      945.800000       0.017560
      945.900000       0.017268
      946.000000       0.017090
      946.100000       0.016786
      946.200000       0.016472
      946.300000       0.016104
      946.400000       0.015771
      946.500000       0.015476
      946.600000       0.015115
      946.700000       0.012727
      946.800000       0.012597
      946.900000       0.012471
      947.000000       0.012308
      947.100000       0.012097
      947.200000       0.011976
      947.300000       0.011763
      947.400000       0.011604
      947.500000       0.011477
      947.600000       0.011302
      947.700000       0.011137
      947.800000       0.010979
      947.900000       0.010865
      948.000000       0.010771
      948.100000       0.010675
      948.200000       0.010586
      948.300000       0.010496
      948.400000       0.010407
      948.500000       0.010317
      948.600000       0.010227
      948.700000       0.010137
      948.800000       0.010046
      948.900000       0.009916
      949.000000       0.009747
      949.100000       0.009572
      949.200000       0.009403
      949.300000       0.009237
      949.400000       0.009060
      949.500000       0.008895
      949.600000       0.008727
      949.700000       0.008552
      949.800000       0.008379
      949.900000       0.008234
      950.000000       0.008112
      950.100000       0.007993
      950.200000       0.007879
      950.300000       0.007752
      950.400000       0.007637
      950.500000       0.007521
      950.600000       0.007407
      950.700000       0.007286
      950.800000       0.007166
      950.900000       0.007030
      951.000000       0.006877
      951.100000       0.006715
      951.200000       0.006562
      951.300000       0.006398
      951.400000       0.006234
      951.500000       0.006073
      951.600000       0.005919
      951.700000       0.005755
      951.800000       0.005588
      951.900000       0.005465
      952.000000       0.005393
      952.100000       0.005340
      952.200000       0.005278
      952.300000       0.005214
      952.400000       0.005150
      952.500000       0.005086
      952.600000       0.005023
      952.700000       0.004953
      952.800000       0.004885
      952.900000       0.004799
      953.000000       0.004670
      953.100000       0.004533
      953.200000       0.004396
      953.300000       0.004260
      953.400000       0.004123
      953.500000       0.003988
      953.600000       0.003847
      953.700000       0.003704
      953.800000       0.003557
      953.900000       0.003501
      954.000000       0.003577
      954.100000       0.003689
      954.200000       0.003798
      954.300000       0.003918
      954.400000       0.004027
      954.500000       0.004136
      954.600000       0.004245
      954.700000       0.004359
      954.800000       0.004476
      954.900000       0.004559
      955.000000       0.004541
      955.100000       0.004502
      955.200000       0.004464
      955.300000       0.004426
      955.400000       0.004389
      955.500000       0.004351
      955.600000       0.004314
      955.700000       0.004277
      955.800000       0.004233
      955.900000       0.004184
      956.000000       0.004109
      956.100000       0.004032
      956.200000       0.003948
      956.300000       0.003862
      956.400000       0.003776
      956.500000       0.003690
      956.600000       0.003608
      956.700000       0.003531
      956.800000       0.003444
      956.900000       0.003363
      957.000000       0.003305
      957.100000       0.003265
      957.200000       0.003228
      957.300000       0.003179
      957.400000       0.003141
      957.500000       0.003103
      957.600000       0.003064
      957.700000       0.003017
      957.800000       0.002979
      957.900000       0.002945
      958.000000       0.002963
      958.100000       0.003028
      958.200000       0.003087
      958.300000       0.003146
      958.400000       0.003205
      958.500000       0.003264
      958.600000       0.003322
      958.700000       0.003381
      958.800000       0.003441
      958.900000       0.003495
      959.000000       0.003504
      959.100000       0.003477
      959.200000       0.003453
      959.300000       0.003420
      959.400000       0.003393
      959.500000       0.003369
      959.600000       0.003346
      959.700000       0.003310
      959.800000       0.003287
      959.900000       0.003258
      960.000000       0.003168
      960.100000       0.002985
      960.200000       0.002814
      960.300000       0.002628
      960.400000       0.002445
      960.500000       0.002258
      960.600000       0.002078
      960.700000       0.001890
      960.800000       0.001699
      960.900000       0.001527
      961.000000       0.001589
      961.100000       0.001530
      961.200000       0.001445
      961.300000       0.001361
      961.400000       0.001278
      961.500000       0.001195
      961.600000       0.001116
      961.700000       0.001034
      961.800000       0.000952
