   1  ,noaa_12_hirs_01.flt
Number of data points:
102
Wavenumber (cm-1)   Filter response
      647.000000       0.000000
      647.360000       0.008883
      647.720000       0.008918
      648.080000       0.008955
      648.430000       0.019616
      648.790000       0.019652
      649.140000       0.019688
      649.500000       0.019723
      649.870000       0.031677
      650.230000       0.003746
      650.590000       0.005386
      650.950000       0.005413
      651.310000       0.005441
      651.670000       0.006562
      652.030000       0.006595
      652.390000       0.006628
      652.750000       0.006660
      653.110000       0.006694
      653.470000       0.008784
      653.830000       0.008827
      654.190000       0.008870
      654.550000       0.008913
      654.920000       0.010177
      655.280000       0.010234
      655.640000       0.010291
      656.000000       0.011700
      656.360000       0.012930
      656.720000       0.013000
      657.090000       0.013070
      657.450000       0.014716
      657.810000       0.015586
      658.170000       0.016265
      658.530000       0.014951
      658.890000       0.018041
      659.260000       0.018134
      659.600000       0.016911
      659.960000       0.016972
      660.320000       0.019289
      660.680000       0.020182
      661.040000       0.021499
      661.400000       0.031355
      661.760000       0.043602
      662.120000       0.053860
      662.480000       0.068639
      662.840000       0.086092
      663.200000       0.107110
      663.570000       0.138590
      663.930000       0.168640
      664.290000       0.208020
      664.640000       0.252490
      665.000000       0.302260
      665.350000       0.403050
      665.730000       0.508380
      666.070000       0.625610
      666.440000       0.757590
      666.800000       0.862680
      667.160000       0.968530
      667.520000       1.000000
      667.890000       0.962360
      668.250000       0.885200
      668.630000       0.775150
      668.970000       0.656150
      669.340000       0.554920
      669.720000       0.450900
      670.070000       0.375670
      670.440000       0.309810
      670.800000       0.253910
      671.160000       0.210750
      671.520000       0.174630
      671.880000       0.147250
      672.240000       0.123970
      672.600000       0.103840
      672.970000       0.087921
      673.330000       0.076772
      673.690000       0.060049
      674.050000       0.049634
      674.410000       0.047883
      674.770000       0.044620
      675.130000       0.040031
      675.490000       0.039212
      675.850000       0.036081
      676.210000       0.031116
      676.570000       0.028942
      676.930000       0.027266
      677.290000       0.024006
      677.650000       0.022018
      678.010000       0.022117
      678.370000       0.019836
      678.730000       0.018596
      679.090000       0.016545
      679.450000       0.015275
      679.810000       0.014839
      680.170000       0.012222
      680.540000       0.011769
      680.890000       0.009106
      681.250000       0.006956
      681.610000       0.005610
      681.970000       0.002271
      682.330000       0.002286
      682.690000       0.000014
      683.050000       0.000011
      684.550000       0.000000
