03 , goes_09_imager_04.flt
Number of data points:
1301
Wavenumber (cm-1)   Filter response
      860.100000       0.000913
      860.200000       0.000921
      860.300000       0.000928
      860.400000       0.000935
      860.500000       0.000942
      860.600000       0.000949
      860.700000       0.000956
      860.800000       0.000963
      860.900000       0.000970
      861.000000       0.000977
      861.100000       0.000983
      861.200000       0.000990
      861.300000       0.000997
      861.400000       0.001004
      861.500000       0.001010
      861.600000       0.001017
      861.700000       0.001023
      861.800000       0.001030
      861.900000       0.001037
      862.000000       0.001043
      862.100000       0.001050
      862.200000       0.001057
      862.300000       0.001064
      862.400000       0.001071
      862.500000       0.001078
      862.600000       0.001085
      862.700000       0.001092
      862.800000       0.001099
      862.900000       0.001106
      863.000000       0.001114
      863.100000       0.001121
      863.200000       0.001129
      863.300000       0.001137
      863.400000       0.001145
      863.500000       0.001154
      863.600000       0.001162
      863.700000       0.001171
      863.800000       0.001180
      863.900000       0.001189
      864.000000       0.001199
      864.100000       0.001208
      864.200000       0.001218
      864.300000       0.001229
      864.400000       0.001239
      864.500000       0.001250
      864.600000       0.001262
      864.700000       0.001274
      864.800000       0.001286
      864.900000       0.001298
      865.000000       0.001311
      865.100000       0.001325
      865.200000       0.001338
      865.300000       0.001353
      865.400000       0.001367
      865.500000       0.001383
      865.600000       0.001399
      865.700000       0.001415
      865.800000       0.001432
      865.900000       0.001449
      866.000000       0.001467
      866.100000       0.001485
      866.200000       0.001504
      866.300000       0.001523
      866.400000       0.001543
      866.500000       0.001564
      866.600000       0.001585
      866.700000       0.001606
      866.800000       0.001628
      866.900000       0.001651
      867.000000       0.001674
      867.100000       0.001697
      867.200000       0.001721
      867.300000       0.001746
      867.400000       0.001771
      867.500000       0.001797
      867.600000       0.001823
      867.700000       0.001850
      867.800000       0.001877
      867.900000       0.001905
      868.000000       0.001934
      868.100000       0.001963
      868.200000       0.001992
      868.300000       0.002022
      868.400000       0.002053
      868.500000       0.002084
      868.600000       0.002116
      868.700000       0.002148
      868.800000       0.002180
      868.900000       0.002214
      869.000000       0.002247
      869.100000       0.002282
      869.200000       0.002316
      869.300000       0.002352
      869.400000       0.002388
      869.500000       0.002424
      869.600000       0.002461
      869.700000       0.002498
      869.800000       0.002536
      869.900000       0.002575
      870.000000       0.002614
      870.100000       0.002653
      870.200000       0.002693
      870.300000       0.002734
      870.400000       0.002775
      870.500000       0.002816
      870.600000       0.002858
      870.700000       0.002901
      870.800000       0.002944
      870.900000       0.002987
      871.000000       0.003031
      871.100000       0.003076
      871.200000       0.003121
      871.300000       0.003166
      871.400000       0.003212
      871.500000       0.003259
      871.600000       0.003306
      871.700000       0.003353
      871.800000       0.003401
      871.900000       0.003450
      872.000000       0.003500
      872.100000       0.003550
      872.200000       0.003602
      872.300000       0.003655
      872.400000       0.003709
      872.500000       0.003764
      872.600000       0.003821
      872.700000       0.003880
      872.800000       0.003940
      872.900000       0.004002
      873.000000       0.004066
      873.100000       0.004132
      873.200000       0.004200
      873.300000       0.004270
      873.400000       0.004343
      873.500000       0.004418
      873.600000       0.004496
      873.700000       0.004576
      873.800000       0.004659
      873.900000       0.004745
      874.000000       0.004835
      874.100000       0.004927
      874.200000       0.005023
      874.300000       0.005122
      874.400000       0.005224
      874.500000       0.005330
      874.600000       0.005440
      874.700000       0.005554
      874.800000       0.005672
      874.900000       0.005794
      875.000000       0.005920
      875.100000       0.006050
      875.200000       0.006185
      875.300000       0.006325
      875.400000       0.006469
      875.500000       0.006618
      875.600000       0.006772
      875.700000       0.006931
      875.800000       0.007096
      875.900000       0.007265
      876.000000       0.007440
      876.100000       0.007621
      876.200000       0.007807
      876.300000       0.007999
      876.400000       0.008196
      876.500000       0.008399
      876.600000       0.008607
      876.700000       0.008822
      876.800000       0.009041
      876.900000       0.009267
      877.000000       0.009498
      877.100000       0.009734
      877.200000       0.009977
      877.300000       0.010225
      877.400000       0.010479
      877.500000       0.010739
      877.600000       0.011004
      877.700000       0.011276
      877.800000       0.011553
      877.900000       0.011836
      878.000000       0.012125
      878.100000       0.012419
      878.200000       0.012719
      878.300000       0.013026
      878.400000       0.013338
      878.500000       0.013656
      878.600000       0.013980
      878.700000       0.014310
      878.800000       0.014646
      878.900000       0.014988
      879.000000       0.015336
      879.100000       0.015690
      879.200000       0.016049
      879.300000       0.016415
      879.400000       0.016787
      879.500000       0.017165
      879.600000       0.017548
      879.700000       0.017938
      879.800000       0.018334
      879.900000       0.018736
      880.000000       0.019144
      880.100000       0.019557
      880.200000       0.019978
      880.300000       0.020404
      880.400000       0.020836
      880.500000       0.021274
      880.600000       0.021718
      880.700000       0.022168
      880.800000       0.022625
      880.900000       0.023088
      881.000000       0.023556
      881.100000       0.024031
      881.200000       0.024512
      881.300000       0.025000
      881.400000       0.025493
      881.500000       0.025992
      881.600000       0.026499
      881.700000       0.027010
      881.800000       0.027529
      881.900000       0.028055
      882.000000       0.028591
      882.100000       0.029138
      882.200000       0.029698
      882.300000       0.030275
      882.400000       0.030869
      882.500000       0.031483
      882.600000       0.032118
      882.700000       0.032777
      882.800000       0.033463
      882.900000       0.034176
      883.000000       0.034919
      883.100000       0.035694
      883.200000       0.036503
      883.300000       0.037348
      883.400000       0.038232
      883.500000       0.039155
      883.600000       0.040122
      883.700000       0.041134
      883.800000       0.042192
      883.900000       0.043299
      884.000000       0.044456
      884.100000       0.045667
      884.200000       0.046934
      884.300000       0.048257
      884.400000       0.049640
      884.500000       0.051086
      884.600000       0.052594
      884.700000       0.054170
      884.800000       0.055815
      884.900000       0.057530
      885.000000       0.059316
      885.100000       0.061179
      885.200000       0.063120
      885.300000       0.065140
      885.400000       0.067242
      885.500000       0.069426
      885.600000       0.071699
      885.700000       0.074066
      885.800000       0.076539
      885.900000       0.079126
      886.000000       0.081830
      886.100000       0.084665
      886.200000       0.087638
      886.300000       0.090758
      886.400000       0.094037
      886.500000       0.097480
      886.600000       0.101098
      886.700000       0.104895
      886.800000       0.108883
      886.900000       0.113075
      887.000000       0.117476
      887.100000       0.122093
      887.200000       0.126935
      887.300000       0.132017
      887.400000       0.137341
      887.500000       0.142916
      887.600000       0.148758
      887.700000       0.154872
      887.800000       0.161260
      887.900000       0.167913
      888.000000       0.174833
      888.100000       0.182002
      888.200000       0.189413
      888.300000       0.197049
      888.400000       0.204915
      888.500000       0.212992
      888.600000       0.221266
      888.700000       0.229749
      888.800000       0.238399
      888.900000       0.247231
      889.000000       0.256227
      889.100000       0.265368
      889.200000       0.274670
      889.300000       0.284089
      889.400000       0.293638
      889.500000       0.303303
      889.600000       0.313060
      889.700000       0.322918
      889.800000       0.332859
      889.900000       0.342872
      890.000000       0.352936
      890.100000       0.363056
      890.200000       0.373213
      890.300000       0.383372
      890.400000       0.393530
      890.500000       0.403666
      890.600000       0.413757
      890.700000       0.423776
      890.800000       0.433715
      890.900000       0.443555
      891.000000       0.453275
      891.100000       0.462847
      891.200000       0.472259
      891.300000       0.481501
      891.400000       0.490538
      891.500000       0.499362
      891.600000       0.507993
      891.700000       0.516537
      891.800000       0.525157
      891.900000       0.533986
      892.000000       0.543192
      892.100000       0.552901
      892.200000       0.563254
      892.300000       0.574398
      892.400000       0.586311
      892.500000       0.598860
      892.600000       0.611882
      892.700000       0.625228
      892.800000       0.638741
      892.900000       0.652263
      893.000000       0.665668
      893.100000       0.678788
      893.200000       0.691477
      893.300000       0.703677
      893.400000       0.715495
      893.500000       0.727008
      893.600000       0.738295
      893.700000       0.749471
      893.800000       0.760612
      893.900000       0.771798
      894.000000       0.783071
      894.100000       0.794289
      894.200000       0.805291
      894.300000       0.815923
      894.400000       0.826016
      894.500000       0.835433
      894.600000       0.844011
      894.700000       0.851610
      894.800000       0.858317
      894.900000       0.864301
      895.000000       0.869733
      895.100000       0.874784
      895.200000       0.879621
      895.300000       0.884425
      895.400000       0.889363
      895.500000       0.894613
      895.600000       0.900225
      895.700000       0.906068
      895.800000       0.911983
      895.900000       0.917806
      896.000000       0.923383
      896.100000       0.928546
      896.200000       0.933148
      896.300000       0.937172
      896.400000       0.940654
      896.500000       0.943641
      896.600000       0.946178
      896.700000       0.948304
      896.800000       0.950064
      896.900000       0.951499
      897.000000       0.952655
      897.100000       0.953573
      897.200000       0.954296
      897.300000       0.954868
      897.400000       0.955332
      897.500000       0.955731
      897.600000       0.956109
      897.700000       0.956508
      897.800000       0.956973
      897.900000       0.957546
      898.000000       0.958267
      898.100000       0.959141
      898.200000       0.960156
      898.300000       0.961300
      898.400000       0.962562
      898.500000       0.963929
      898.600000       0.965392
      898.700000       0.966938
      898.800000       0.968554
      898.900000       0.970230
      899.000000       0.971954
      899.100000       0.973714
      899.200000       0.975498
      899.300000       0.977295
      899.400000       0.979093
      899.500000       0.980881
      899.600000       0.982645
      899.700000       0.984384
      899.800000       0.986103
      899.900000       0.987809
      900.000000       0.989510
      900.100000       0.991188
      900.200000       0.992727
      900.300000       0.994089
      900.400000       0.995283
      900.500000       0.996320
      900.600000       0.997206
      900.700000       0.997953
      900.800000       0.998569
      900.900000       0.999064
      901.000000       0.999447
      901.100000       0.999728
      901.200000       0.999911
      901.300000       1.000000
      901.400000       0.999998
      901.500000       0.999908
      901.600000       0.999732
      901.700000       0.999474
      901.800000       0.999136
      901.900000       0.998722
      902.000000       0.998235
      902.100000       0.997677
      902.200000       0.997051
      902.300000       0.996361
      902.400000       0.995609
      902.500000       0.994799
      902.600000       0.993934
      902.700000       0.993015
      902.800000       0.992047
      902.900000       0.991032
      903.000000       0.989973
      903.100000       0.988872
      903.200000       0.987732
      903.300000       0.986556
      903.400000       0.985346
      903.500000       0.984106
      903.600000       0.982837
      903.700000       0.981543
      903.800000       0.980225
      903.900000       0.978887
      904.000000       0.977532
      904.100000       0.976161
      904.200000       0.974778
      904.300000       0.973387
      904.400000       0.971994
      904.500000       0.970601
      904.600000       0.969214
      904.700000       0.967838
      904.800000       0.966476
      904.900000       0.965134
      905.000000       0.963815
      905.100000       0.962523
      905.200000       0.961263
      905.300000       0.960035
      905.400000       0.958842
      905.500000       0.957683
      905.600000       0.956558
      905.700000       0.955469
      905.800000       0.954417
      905.900000       0.953400
      906.000000       0.952420
      906.100000       0.951477
      906.200000       0.950569
      906.300000       0.949697
      906.400000       0.948859
      906.500000       0.948056
      906.600000       0.947288
      906.700000       0.946553
      906.800000       0.945852
      906.900000       0.945185
      907.000000       0.944551
      907.100000       0.943949
      907.200000       0.943381
      907.300000       0.942844
      907.400000       0.942340
      907.500000       0.941868
      907.600000       0.941427
      907.700000       0.941020
      907.800000       0.940646
      907.900000       0.940305
      908.000000       0.939998
      908.100000       0.939727
      908.200000       0.939489
      908.300000       0.939288
      908.400000       0.939122
      908.500000       0.938993
      908.600000       0.938901
      908.700000       0.938846
      908.800000       0.938828
      908.900000       0.938849
      909.000000       0.938908
      909.100000       0.939007
      909.200000       0.939145
      909.300000       0.939323
      909.400000       0.939540
      909.500000       0.939795
      909.600000       0.940083
      909.700000       0.940399
      909.800000       0.940741
      909.900000       0.941103
      910.000000       0.941481
      910.100000       0.941873
      910.200000       0.942272
      910.300000       0.942677
      910.400000       0.943084
      910.500000       0.943489
      910.600000       0.943890
      910.700000       0.944284
      910.800000       0.944667
      910.900000       0.945036
      911.000000       0.945387
      911.100000       0.945719
      911.200000       0.946026
      911.300000       0.946310
      911.400000       0.946575
      911.500000       0.946823
      911.600000       0.947060
      911.700000       0.947292
      911.800000       0.947522
      911.900000       0.947757
      912.000000       0.947998
      912.100000       0.948254
      912.200000       0.948526
      912.300000       0.948821
      912.400000       0.949143
      912.500000       0.949497
      912.600000       0.949887
      912.700000       0.950319
      912.800000       0.950797
      912.900000       0.951324
      913.000000       0.951910
      913.100000       0.952553
      913.200000       0.953263
      913.300000       0.954041
      913.400000       0.954894
      913.500000       0.955827
      913.600000       0.956840
      913.700000       0.957926
      913.800000       0.959071
      913.900000       0.960268
      914.000000       0.961504
      914.100000       0.962767
      914.200000       0.964048
      914.300000       0.965333
      914.400000       0.966613
      914.500000       0.967879
      914.600000       0.969116
      914.700000       0.970318
      914.800000       0.971470
      914.900000       0.972563
      915.000000       0.973589
      915.100000       0.974548
      915.200000       0.975442
      915.300000       0.976276
      915.400000       0.977050
      915.500000       0.977769
      915.600000       0.978435
      915.700000       0.979050
      915.800000       0.979617
      915.900000       0.980139
      916.000000       0.980619
      916.100000       0.981059
      916.200000       0.981462
      916.300000       0.981831
      916.400000       0.982168
      916.500000       0.982475
      916.600000       0.982756
      916.700000       0.983010
      916.800000       0.983244
      916.900000       0.983456
      917.000000       0.983653
      917.100000       0.983833
      917.200000       0.984000
      917.300000       0.984157
      917.400000       0.984306
      917.500000       0.984449
      917.600000       0.984589
      917.700000       0.984727
      917.800000       0.984866
      917.900000       0.985009
      918.000000       0.985158
      918.100000       0.985315
      918.200000       0.985482
      918.300000       0.985661
      918.400000       0.985854
      918.500000       0.986063
      918.600000       0.986291
      918.700000       0.986536
      918.800000       0.986796
      918.900000       0.987070
      919.000000       0.987353
      919.100000       0.987644
      919.200000       0.987941
      919.300000       0.988239
      919.400000       0.988537
      919.500000       0.988833
      919.600000       0.989123
      919.700000       0.989404
      919.800000       0.989675
      919.900000       0.989933
      920.000000       0.990175
      920.100000       0.990398
      920.200000       0.990600
      920.300000       0.990779
      920.400000       0.990933
      920.500000       0.991060
      920.600000       0.991157
      920.700000       0.991221
      920.800000       0.991252
      920.900000       0.991247
      921.000000       0.991205
      921.100000       0.991121
      921.200000       0.990996
      921.300000       0.990830
      921.400000       0.990622
      921.500000       0.990373
      921.600000       0.990083
      921.700000       0.989751
      921.800000       0.989378
      921.900000       0.988964
      922.000000       0.988508
      922.100000       0.988012
      922.200000       0.987476
      922.300000       0.986899
      922.400000       0.986283
      922.500000       0.985629
      922.600000       0.984936
      922.700000       0.984207
      922.800000       0.983443
      922.900000       0.982647
      923.000000       0.981820
      923.100000       0.980963
      923.200000       0.980079
      923.300000       0.979171
      923.400000       0.978240
      923.500000       0.977287
      923.600000       0.976314
      923.700000       0.975323
      923.800000       0.974317
      923.900000       0.973296
      924.000000       0.972265
      924.100000       0.971222
      924.200000       0.970171
      924.300000       0.969115
      924.400000       0.968055
      924.500000       0.966993
      924.600000       0.965931
      924.700000       0.964872
      924.800000       0.963817
      924.900000       0.962768
      925.000000       0.961725
      925.100000       0.960692
      925.200000       0.959668
      925.300000       0.958654
      925.400000       0.957651
      925.500000       0.956660
      925.600000       0.955683
      925.700000       0.954720
      925.800000       0.953772
      925.900000       0.952840
      926.000000       0.951925
      926.100000       0.951028
      926.200000       0.950148
      926.300000       0.949288
      926.400000       0.948449
      926.500000       0.947630
      926.600000       0.946832
      926.700000       0.946056
      926.800000       0.945304
      926.900000       0.944577
      927.000000       0.943874
      927.100000       0.943197
      927.200000       0.942546
      927.300000       0.941922
      927.400000       0.941328
      927.500000       0.940761
      927.600000       0.940226
      927.700000       0.939720
      927.800000       0.939247
      927.900000       0.938805
      928.000000       0.938397
      928.100000       0.938024
      928.200000       0.937685
      928.300000       0.937380
      928.400000       0.937110
      928.500000       0.936870
      928.600000       0.936661
      928.700000       0.936482
      928.800000       0.936330
      928.900000       0.936204
      929.000000       0.936103
      929.100000       0.936025
      929.200000       0.935970
      929.300000       0.935935
      929.400000       0.935919
      929.500000       0.935921
      929.600000       0.935940
      929.700000       0.935975
      929.800000       0.936022
      929.900000       0.936081
      930.000000       0.936150
      930.100000       0.936226
      930.200000       0.936310
      930.300000       0.936397
      930.400000       0.936487
      930.500000       0.936579
      930.600000       0.936670
      930.700000       0.936758
      930.800000       0.936843
      930.900000       0.936921
      931.000000       0.936992
      931.100000       0.937053
      931.200000       0.937103
      931.300000       0.937140
      931.400000       0.937162
      931.500000       0.937168
      931.600000       0.937156
      931.700000       0.937125
      931.800000       0.937079
      931.900000       0.937022
      932.000000       0.936956
      932.100000       0.936885
      932.200000       0.936812
      932.300000       0.936741
      932.400000       0.936673
      932.500000       0.936614
      932.600000       0.936566
      932.700000       0.936531
      932.800000       0.936514
      932.900000       0.936517
      933.000000       0.936545
      933.100000       0.936599
      933.200000       0.936683
      933.300000       0.936801
      933.400000       0.936956
      933.500000       0.937150
      933.600000       0.937388
      933.700000       0.937671
      933.800000       0.938000
      933.900000       0.938370
      934.000000       0.938780
      934.100000       0.939226
      934.200000       0.939705
      934.300000       0.940216
      934.400000       0.940755
      934.500000       0.941320
      934.600000       0.941908
      934.700000       0.942515
      934.800000       0.943140
      934.900000       0.943779
      935.000000       0.944430
      935.100000       0.945091
      935.200000       0.945757
      935.300000       0.946426
      935.400000       0.947097
      935.500000       0.947766
      935.600000       0.948430
      935.700000       0.949088
      935.800000       0.949736
      935.900000       0.950374
      936.000000       0.950998
      936.100000       0.951607
      936.200000       0.952202
      936.300000       0.952781
      936.400000       0.953345
      936.500000       0.953894
      936.600000       0.954428
      936.700000       0.954947
      936.800000       0.955451
      936.900000       0.955940
      937.000000       0.956413
      937.100000       0.956872
      937.200000       0.957316
      937.300000       0.957745
      937.400000       0.958158
      937.500000       0.958557
      937.600000       0.958941
      937.700000       0.959310
      937.800000       0.959665
      937.900000       0.960006
      938.000000       0.960334
      938.100000       0.960647
      938.200000       0.960947
      938.300000       0.961233
      938.400000       0.961507
      938.500000       0.961768
      938.600000       0.962016
      938.700000       0.962252
      938.800000       0.962476
      938.900000       0.962688
      939.000000       0.962890
      939.100000       0.963080
      939.200000       0.963259
      939.300000       0.963429
      939.400000       0.963589
      939.500000       0.963739
      939.600000       0.963881
      939.700000       0.964016
      939.800000       0.964143
      939.900000       0.964264
      940.000000       0.964379
      940.100000       0.964488
      940.200000       0.964593
      940.300000       0.964694
      940.400000       0.964791
      940.500000       0.964886
      940.600000       0.964980
      940.700000       0.965072
      940.800000       0.965164
      940.900000       0.965256
      941.000000       0.965350
      941.100000       0.965445
      941.200000       0.965543
      941.300000       0.965644
      941.400000       0.965748
      941.500000       0.965857
      941.600000       0.965970
      941.700000       0.966088
      941.800000       0.966211
      941.900000       0.966339
      942.000000       0.966474
      942.100000       0.966614
      942.200000       0.966761
      942.300000       0.966915
      942.400000       0.967075
      942.500000       0.967243
      942.600000       0.967419
      942.700000       0.967603
      942.800000       0.967795
      942.900000       0.967996
      943.000000       0.968206
      943.100000       0.968425
      943.200000       0.968654
      943.300000       0.968892
      943.400000       0.969140
      943.500000       0.969396
      943.600000       0.969661
      943.700000       0.969935
      943.800000       0.970216
      943.900000       0.970505
      944.000000       0.970801
      944.100000       0.971103
      944.200000       0.971412
      944.300000       0.971726
      944.400000       0.972045
      944.500000       0.972369
      944.600000       0.972697
      944.700000       0.973030
      944.800000       0.973365
      944.900000       0.973703
      945.000000       0.974043
      945.100000       0.974385
      945.200000       0.974729
      945.300000       0.975074
      945.400000       0.975418
      945.500000       0.975761
      945.600000       0.976105
      945.700000       0.976445
      945.800000       0.976784
      945.900000       0.977120
      946.000000       0.977452
      946.100000       0.977779
      946.200000       0.978100
      946.300000       0.978416
      946.400000       0.978724
      946.500000       0.979025
      946.600000       0.979317
      946.700000       0.979599
      946.800000       0.979872
      946.900000       0.980134
      947.000000       0.980383
      947.100000       0.980621
      947.200000       0.980846
      947.300000       0.981058
      947.400000       0.981256
      947.500000       0.981441
      947.600000       0.981613
      947.700000       0.981770
      947.800000       0.981914
      947.900000       0.982043
      948.000000       0.982159
      948.100000       0.982259
      948.200000       0.982346
      948.300000       0.982417
      948.400000       0.982474
      948.500000       0.982516
      948.600000       0.982542
      948.700000       0.982554
      948.800000       0.982549
      948.900000       0.982530
      949.000000       0.982495
      949.100000       0.982444
      949.200000       0.982377
      949.300000       0.982296
      949.400000       0.982199
      949.500000       0.982087
      949.600000       0.981961
      949.700000       0.981820
      949.800000       0.981665
      949.900000       0.981495
      950.000000       0.981313
      950.100000       0.981116
      950.200000       0.980907
      950.300000       0.980684
      950.400000       0.980449
      950.500000       0.980201
      950.600000       0.979941
      950.700000       0.979669
      950.800000       0.979385
      950.900000       0.979088
      951.000000       0.978781
      951.100000       0.978463
      951.200000       0.978134
      951.300000       0.977794
      951.400000       0.977445
      951.500000       0.977085
      951.600000       0.976716
      951.700000       0.976339
      951.800000       0.975951
      951.900000       0.975556
      952.000000       0.975153
      952.100000       0.974742
      952.200000       0.974323
      952.300000       0.973898
      952.400000       0.973466
      952.500000       0.973027
      952.600000       0.972583
      952.700000       0.972133
      952.800000       0.971679
      952.900000       0.971219
      953.000000       0.970755
      953.100000       0.970287
      953.200000       0.969816
      953.300000       0.969343
      953.400000       0.968868
      953.500000       0.968391
      953.600000       0.967914
      953.700000       0.967436
      953.800000       0.966959
      953.900000       0.966482
      954.000000       0.966006
      954.100000       0.965533
      954.200000       0.965062
      954.300000       0.964593
      954.400000       0.964129
      954.500000       0.963669
      954.600000       0.963213
      954.700000       0.962762
      954.800000       0.962317
      954.900000       0.961879
      955.000000       0.961447
      955.100000       0.961022
      955.200000       0.960604
      955.300000       0.960195
      955.400000       0.959795
      955.500000       0.959403
      955.600000       0.959022
      955.700000       0.958650
      955.800000       0.958289
      955.900000       0.957939
      956.000000       0.957600
      956.100000       0.957273
      956.200000       0.956959
      956.300000       0.956658
      956.400000       0.956369
      956.500000       0.956094
      956.600000       0.955832
      956.700000       0.955584
      956.800000       0.955350
      956.900000       0.955129
      957.000000       0.954922
      957.100000       0.954729
      957.200000       0.954549
      957.300000       0.954383
      957.400000       0.954229
      957.500000       0.954089
      957.600000       0.953960
      957.700000       0.953843
      957.800000       0.953738
      957.900000       0.953644
      958.000000       0.953561
      958.100000       0.953488
      958.200000       0.953425
      958.300000       0.953372
      958.400000       0.953328
      958.500000       0.953293
      958.600000       0.953266
      958.700000       0.953248
      958.800000       0.953236
      958.900000       0.953232
      959.000000       0.953233
      959.100000       0.953238
      959.200000       0.953249
      959.300000       0.953263
      959.400000       0.953280
      959.500000       0.953300
      959.600000       0.953321
      959.700000       0.953342
      959.800000       0.953364
      959.900000       0.953384
      960.000000       0.953403
      960.100000       0.953420
      960.200000       0.953434
      960.300000       0.953444
      960.400000       0.953449
      960.500000       0.953449
      960.600000       0.953443
      960.700000       0.953430
      960.800000       0.953410
      960.900000       0.953384
      961.000000       0.953351
      961.100000       0.953311
      961.200000       0.953265
      961.300000       0.953212
      961.400000       0.953152
      961.500000       0.953086
      961.600000       0.953013
      961.700000       0.952935
      961.800000       0.952850
      961.900000       0.952759
      962.000000       0.952662
      962.100000       0.952560
      962.200000       0.952452
      962.300000       0.952338
      962.400000       0.952218
      962.500000       0.952093
      962.600000       0.951963
      962.700000       0.951829
      962.800000       0.951692
      962.900000       0.951552
      963.000000       0.951410
      963.100000       0.951267
      963.200000       0.951123
      963.300000       0.950980
      963.400000       0.950838
      963.500000       0.950698
      963.600000       0.950561
      963.700000       0.950424
      963.800000       0.950285
      963.900000       0.950143
      964.000000       0.949995
      964.100000       0.949839
      964.200000       0.949672
      964.300000       0.949493
      964.400000       0.949300
      964.500000       0.949090
      964.600000       0.948861
      964.700000       0.948611
      964.800000       0.948338
      964.900000       0.948041
      965.000000       0.947718
      965.100000       0.947370
      965.200000       0.946998
      965.300000       0.946602
      965.400000       0.946184
      965.500000       0.945745
      965.600000       0.945285
      965.700000       0.944805
      965.800000       0.944308
      965.900000       0.943792
      966.000000       0.943260
      966.100000       0.942712
      966.200000       0.942150
      966.300000       0.941573
      966.400000       0.940984
      966.500000       0.940381
      966.600000       0.939766
      966.700000       0.939140
      966.800000       0.938502
      966.900000       0.937853
      967.000000       0.937194
      967.100000       0.936524
      967.200000       0.935844
      967.300000       0.935155
      967.400000       0.934458
      967.500000       0.933751
      967.600000       0.933037
      967.700000       0.932315
      967.800000       0.931583
      967.900000       0.930835
      968.000000       0.930067
      968.100000       0.929272
      968.200000       0.928445
      968.300000       0.927580
      968.400000       0.926670
      968.500000       0.925710
      968.600000       0.924694
      968.700000       0.923615
      968.800000       0.922467
      968.900000       0.921244
      969.000000       0.919939
      969.100000       0.918546
      969.200000       0.917059
      969.300000       0.915473
      969.400000       0.913778
      969.500000       0.911970
      969.600000       0.910042
      969.700000       0.907989
      969.800000       0.905805
      969.900000       0.903480
      970.000000       0.901012
      970.100000       0.898389
      970.200000       0.895606
      970.300000       0.892669
      970.400000       0.889583
      970.500000       0.886375
      970.600000       0.883057
      970.700000       0.879645
      970.800000       0.876171
      970.900000       0.872642
      971.000000       0.869084
      971.100000       0.865509
      971.200000       0.861939
      971.300000       0.858392
      971.400000       0.854891
      971.500000       0.851449
      971.600000       0.848087
      971.700000       0.844825
      971.800000       0.841683
      971.900000       0.838678
      972.000000       0.835822
      972.100000       0.833113
      972.200000       0.830525
      972.300000       0.828040
      972.400000       0.825640
      972.500000       0.823309
      972.600000       0.821024
      972.700000       0.818765
      972.800000       0.816518
      972.900000       0.814258
      973.000000       0.811969
      973.100000       0.809634
      973.200000       0.807228
      973.300000       0.804737
      973.400000       0.802141
      973.500000       0.799417
      973.600000       0.796549
      973.700000       0.793517
      973.800000       0.790304
      973.900000       0.786889
      974.000000       0.783251
      974.100000       0.779374
      974.200000       0.775231
      974.300000       0.770815
      974.400000       0.766103
      974.500000       0.761072
      974.600000       0.755709
      974.700000       0.749986
      974.800000       0.743890
      974.900000       0.737403
      975.000000       0.730511
      975.100000       0.723182
      975.200000       0.715406
      975.300000       0.707163
      975.400000       0.698451
      975.500000       0.689284
      975.600000       0.679710
      975.700000       0.669783
      975.800000       0.659516
      975.900000       0.648988
      976.000000       0.638216
      976.100000       0.627259
      976.200000       0.616142
      976.300000       0.604913
      976.400000       0.593618
      976.500000       0.582295
      976.600000       0.571001
      976.700000       0.559759
      976.800000       0.548615
      976.900000       0.537614
      977.000000       0.526798
      977.100000       0.516196
      977.200000       0.505798
      977.300000       0.495598
      977.400000       0.485613
      977.500000       0.475829
      977.600000       0.466243
      977.700000       0.456861
      977.800000       0.447680
      977.900000       0.438705
      978.000000       0.429931
      978.100000       0.421349
      978.200000       0.412971
      978.300000       0.404793
      978.400000       0.396803
      978.500000       0.389016
      978.600000       0.381426
      978.700000       0.374023
      978.800000       0.366811
      978.900000       0.359787
      979.000000       0.352946
      979.100000       0.346275
      979.200000       0.339775
      979.300000       0.333440
      979.400000       0.327267
      979.500000       0.321255
      979.600000       0.315387
      979.700000       0.309671
      979.800000       0.304084
      979.900000       0.298639
      980.000000       0.293329
      980.100000       0.288139
      980.200000       0.283075
      980.300000       0.278122
      980.400000       0.273279
      980.500000       0.268541
      980.600000       0.263902
      980.700000       0.259363
      980.800000       0.254910
      980.900000       0.250540
      981.000000       0.246251
      981.100000       0.242038
      981.200000       0.237893
      981.300000       0.233811
      981.400000       0.229793
      981.500000       0.225831
      981.600000       0.221920
      981.700000       0.218058
      981.800000       0.214245
      981.900000       0.210473
      982.000000       0.206737
      982.100000       0.203034
      982.200000       0.199364
      982.300000       0.195720
      982.400000       0.192095
      982.500000       0.188492
      982.600000       0.184901
      982.700000       0.181320
      982.800000       0.177749
      982.900000       0.174177
      983.000000       0.170607
      983.100000       0.167031
      983.200000       0.163445
      983.300000       0.159851
      983.400000       0.156237
      983.500000       0.152605
      983.600000       0.148954
      983.700000       0.145288
      983.800000       0.141619
      983.900000       0.137957
      984.000000       0.134312
      984.100000       0.130687
      984.200000       0.127096
      984.300000       0.123548
      984.400000       0.120054
      984.500000       0.116617
      984.600000       0.113250
      984.700000       0.109965
      984.800000       0.106764
      984.900000       0.103660
      985.000000       0.100662
      985.100000       0.097781
      985.200000       0.095021
      985.300000       0.092391
      985.400000       0.089878
      985.500000       0.087483
      985.600000       0.085203
      985.700000       0.083026
      985.800000       0.080953
      985.900000       0.078973
      986.000000       0.077082
      986.100000       0.075279
      986.200000       0.073555
      986.300000       0.071907
      986.400000       0.070328
      986.500000       0.068813
      986.600000       0.067357
      986.700000       0.065955
      986.800000       0.064604
      986.900000       0.063295
      987.000000       0.062025
      987.100000       0.060789
      987.200000       0.059582
      987.300000       0.058398
      987.400000       0.057232
      987.500000       0.056080
      987.600000       0.054937
      987.700000       0.053798
      987.800000       0.052667
      987.900000       0.051542
      988.000000       0.050423
      988.100000       0.049313
      988.200000       0.048211
      988.300000       0.047117
      988.400000       0.046034
      988.500000       0.044960
      988.600000       0.043897
      988.700000       0.042845
      988.800000       0.041804
      988.900000       0.040775
      989.000000       0.039759
      989.100000       0.038756
      989.200000       0.037767
      989.300000       0.036792
      989.400000       0.035831
      989.500000       0.034885
      989.600000       0.033955
      989.700000       0.033042
      989.800000       0.032144
      989.900000       0.031264
      990.000000       0.030400
      990.100000       0.029555
