26,   26, MVIRI VIS channel from srf_MET2_1985123_1985124_1801-Release_S10EL_10.dat
Number of data points:
730
Wavenumber (cm-1)   Filter response
     8916.629500       0.000000
     8924.587200       0.000000
     8932.559200       0.000002
     8940.545400       0.000011
     8948.545900       0.000032
     8956.560700       0.000069
     8964.589900       0.000125
     8972.633500       0.000207
     8980.691500       0.000317
     8988.764000       0.000459
     8996.851100       0.000636
     9004.952700       0.000854
     9013.068900       0.001113
     9021.199800       0.001419
     9029.345400       0.001774
     9037.505600       0.002180
     9045.680700       0.002641
     9053.870500       0.003159
     9062.075200       0.003736
     9070.294800       0.004376
     9078.529300       0.005080
     9086.778700       0.005850
     9095.043200       0.006688
     9103.322700       0.007596
     9111.617300       0.008576
     9119.927000       0.009630
     9128.251900       0.010758
     9136.592100       0.011963
     9144.947400       0.013246
     9153.318100       0.014607
     9161.704100       0.016048
     9170.105500       0.017570
     9178.522300       0.019175
     9186.954500       0.020862
     9195.402300       0.022632
     9203.865600       0.024486
     9212.344500       0.026425
     9220.839100       0.028449
     9229.349300       0.030558
     9237.875300       0.032753
     9246.417000       0.035035
     9254.974500       0.037402
     9263.547900       0.039856
     9272.137200       0.042396
     9280.742500       0.045022
     9289.363700       0.047734
     9298.000900       0.050533
     9306.654300       0.053417
     9315.323700       0.056386
     9324.009300       0.059441
     9332.711200       0.062580
     9341.429200       0.065804
     9350.163600       0.069112
     9358.914400       0.072502
     9367.681500       0.075975
     9376.465100       0.079531
     9385.265100       0.083167
     9394.081700       0.086884
     9402.914900       0.090680
     9411.764700       0.094556
     9420.631200       0.098510
     9429.514400       0.102540
     9438.414300       0.106648
     9447.331100       0.110830
     9456.264800       0.115086
     9465.215300       0.119416
     9474.182900       0.123818
     9483.167400       0.128292
     9492.169000       0.132835
     9501.187600       0.137447
     9510.223500       0.142127
     9519.276500       0.146873
     9528.346800       0.151685
     9537.434400       0.156561
     9546.539400       0.161500
     9555.661700       0.166500
     9564.801500       0.171561
     9573.958800       0.176680
     9583.133700       0.181858
     9592.326100       0.187092
     9601.536200       0.192381
     9610.764100       0.197723
     9620.009600       0.203119
     9629.273000       0.208565
     9638.554200       0.214060
     9647.853400       0.219604
     9657.170400       0.225195
     9666.505600       0.230831
     9675.858700       0.236512
     9685.230000       0.242234
     9694.619500       0.247998
     9704.027200       0.253802
     9713.453100       0.259644
     9722.897400       0.265524
     9732.360100       0.271438
     9741.841200       0.277387
     9751.340800       0.283369
     9760.859000       0.289382
     9770.395700       0.295425
     9779.951100       0.301495
     9789.525200       0.307594
     9799.118100       0.313718
     9808.729800       0.319866
     9818.360300       0.326037
     9828.009800       0.332228
     9837.678300       0.338441
     9847.365800       0.344672
     9857.072400       0.350920
     9866.798200       0.357185
     9876.543200       0.363463
     9886.307500       0.369755
     9896.091000       0.376059
     9905.894000       0.382373
     9915.716400       0.388697
     9925.558300       0.395028
     9935.419800       0.401366
     9945.300800       0.407710
     9955.201600       0.414056
     9965.122100       0.420407
     9975.062300       0.426758
     9985.022500       0.433110
     9995.002500       0.439461
    10005.002500       0.445810
    10015.022500       0.452155
    10025.062700       0.458495
    10035.122900       0.464830
    10045.203400       0.471157
    10055.304200       0.477477
    10065.425300       0.483787
    10075.566800       0.490087
    10085.728700       0.496376
    10095.911200       0.502652
    10106.114200       0.508914
    10116.337900       0.515161
    10126.582300       0.521393
    10136.847400       0.527608
    10147.133400       0.533805
    10157.440300       0.539983
    10167.768200       0.546141
    10178.117000       0.552279
    10188.487000       0.558394
    10198.878100       0.564487
    10209.290500       0.570557
    10219.724100       0.576601
    10230.179000       0.582621
    10240.655400       0.588614
    10251.153300       0.594580
    10261.672700       0.600517
    10272.213700       0.606426
    10282.776300       0.612306
    10293.360800       0.618155
    10303.967000       0.623972
    10314.595200       0.629758
    10325.245200       0.635511
    10335.917300       0.641230
    10346.611500       0.646916
    10357.327800       0.652566
    10368.066400       0.658181
    10378.827200       0.663759
    10389.610400       0.669301
    10400.416000       0.674805
    10411.244100       0.680272
    10422.094800       0.685699
    10432.968200       0.691087
    10443.864200       0.696436
    10454.783100       0.701744
    10465.724800       0.707011
    10476.689400       0.712236
    10487.677000       0.717420
    10498.687700       0.722561
    10509.721500       0.727660
    10520.778500       0.732715
    10531.858900       0.737726
    10542.962600       0.742693
    10554.089700       0.747615
    10565.240400       0.752493
    10576.414600       0.757325
    10587.612500       0.762111
    10598.834100       0.766851
    10610.079600       0.771545
    10621.348900       0.776192
    10632.642200       0.780792
    10643.959600       0.785344
    10655.301000       0.789849
    10666.666700       0.794306
    10678.056600       0.798715
    10689.470900       0.803076
    10700.909600       0.807388
    10712.372800       0.811651
    10723.860600       0.815865
    10735.373100       0.820030
    10746.910300       0.824146
    10758.472300       0.828212
    10770.059200       0.832229
    10781.671200       0.836195
    10793.308100       0.840112
    10804.970300       0.843979
    10816.657700       0.847796
    10828.370300       0.851563
    10840.108400       0.855279
    10851.871900       0.858945
    10863.661100       0.862561
    10875.475800       0.866126
    10887.316300       0.869641
    10899.182600       0.873106
    10911.074700       0.876520
    10922.992900       0.879883
    10934.937100       0.883197
    10946.907500       0.886459
    10958.904100       0.889672
    10970.927000       0.892834
    10982.976400       0.895946
    10995.052200       0.899008
    11007.154700       0.902020
    11019.283700       0.904981
    11031.439600       0.907893
    11043.622300       0.910755
    11055.832000       0.913567
    11068.068600       0.916329
    11080.332400       0.919043
    11092.623400       0.921706
    11104.941700       0.924321
    11117.287400       0.926886
    11129.660500       0.929403
    11142.061300       0.931871
    11154.489700       0.934290
    11166.945800       0.936661
    11179.429800       0.938983
    11191.941800       0.941258
    11204.481800       0.943485
    11217.049900       0.945664
    11229.646300       0.947796
    11242.270900       0.949881
    11254.924000       0.951918
    11267.605600       0.953909
    11280.315800       0.955854
    11293.054800       0.957752
    11305.822500       0.959604
    11318.619100       0.961410
    11331.444800       0.963171
    11344.299500       0.964887
    11357.183400       0.966557
    11370.096600       0.968183
    11383.039300       0.969764
    11396.011400       0.971301
    11409.013100       0.972794
    11422.044500       0.974244
    11435.105800       0.975650
    11448.196900       0.977013
    11461.318100       0.978333
    11474.469300       0.979611
    11487.650800       0.980847
    11500.862600       0.982041
    11514.104800       0.983193
    11527.377500       0.984304
    11540.680900       0.985373
    11554.015000       0.986403
    11567.380000       0.987391
    11580.775900       0.988340
    11594.202900       0.989249
    11607.661100       0.990119
    11621.150500       0.990949
    11634.671300       0.991741
    11648.223600       0.992494
    11661.807600       0.993209
    11675.423200       0.993887
    11689.070700       0.994526
    11702.750100       0.995129
    11716.461600       0.995695
    11730.205300       0.996224
    11743.981200       0.996717
    11757.789500       0.997174
    11771.630400       0.997596
    11785.503800       0.997982
    11799.410000       0.998334
    11813.349100       0.998650
    11827.321100       0.998933
    11841.326200       0.999182
    11855.364600       0.999397
    11869.436200       0.999579
    11883.541300       0.999728
    11897.680000       0.999844
    11911.852300       0.999928
    11926.058400       0.999980
    11940.298500       1.000000
    11954.572600       0.999989
    11968.880900       0.999947
    11983.223500       0.999874
    11997.600500       0.999771
    12012.012000       0.999637
    12026.458200       0.999474
    12040.939200       0.999282
    12055.455100       0.999060
    12070.006000       0.998809
    12084.592100       0.998530
    12099.213600       0.998223
    12113.870400       0.997887
    12128.562800       0.997525
    12143.290800       0.997134
    12158.054700       0.996717
    12172.854500       0.996273
    12187.690400       0.995802
    12202.562500       0.995305
    12217.471000       0.994783
    12232.415900       0.994234
    12247.397400       0.993661
    12262.415700       0.993062
    12277.470800       0.992439
    12292.563000       0.991791
    12307.692300       0.991119
    12322.858900       0.990423
    12338.062900       0.989703
    12353.304500       0.988960
    12368.583800       0.988193
    12383.900900       0.987404
    12399.256000       0.986592
    12414.649300       0.985758
    12430.080800       0.984901
    12445.550700       0.984023
    12461.059200       0.983123
    12476.606400       0.982201
    12492.192400       0.981259
    12507.817400       0.980295
    12523.481500       0.979311
    12539.185000       0.978306
    12554.927800       0.977281
    12570.710200       0.976236
    12586.532400       0.975172
    12602.394500       0.974087
    12618.296500       0.972983
    12634.238800       0.971860
    12650.221400       0.970719
    12666.244500       0.969558
    12682.308200       0.968379
    12698.412700       0.967181
    12714.558200       0.965966
    12730.744700       0.964732
    12746.972600       0.963481
    12763.241900       0.962212
    12779.552700       0.960926
    12795.905300       0.959622
    12812.299800       0.958302
    12828.736400       0.956964
    12845.215200       0.955610
    12861.736300       0.954240
    12878.300100       0.952853
    12894.906500       0.951450
    12911.555800       0.950031
    12928.248200       0.948596
    12944.983800       0.947145
    12961.762800       0.945679
    12978.585300       0.944198
    12995.451600       0.942701
    13012.361700       0.941189
    13029.316000       0.939662
    13046.314400       0.938121
    13063.357300       0.936564
    13080.444700       0.934994
    13097.576900       0.933408
    13114.754100       0.931809
    13131.976400       0.930195
    13149.243900       0.928568
    13166.556900       0.926926
    13183.915600       0.925271
    13201.320100       0.923602
    13218.770700       0.921920
    13236.267400       0.920224
    13253.810500       0.918514
    13271.400100       0.916792
    13289.036500       0.915057
    13306.719900       0.913308
    13324.450400       0.911547
    13342.228200       0.909773
    13360.053400       0.907986
    13377.926400       0.906186
    13395.847300       0.904374
    13413.816200       0.902550
    13431.833400       0.900713
    13449.899100       0.898864
    13468.013500       0.897004
    13486.176700       0.895131
    13504.388900       0.893245
    13522.650400       0.891349
    13540.961400       0.889440
    13559.322000       0.887520
    13577.732500       0.885588
    13596.193100       0.883644
    13614.703900       0.881689
    13633.265200       0.879723
    13651.877100       0.877745
    13670.540000       0.875756
    13689.253900       0.873755
    13708.019200       0.871744
    13726.836000       0.869722
    13745.704500       0.867688
    13764.624900       0.865644
    13783.597500       0.863589
    13802.622500       0.861523
    13821.700100       0.859446
    13840.830400       0.857359
    13860.013900       0.855261
    13879.250500       0.853153
    13898.540700       0.851034
    13917.884500       0.848905
    13937.282200       0.846765
    13956.734100       0.844615
    13976.240400       0.842455
    13995.801300       0.840285
    14015.417000       0.838105
    14035.087700       0.835914
    14054.813800       0.833714
    14074.595400       0.831504
    14094.432700       0.829284
    14114.326000       0.827054
    14134.275600       0.824814
    14154.281700       0.822564
    14174.344400       0.820306
    14194.464200       0.818037
    14214.641100       0.815759
    14234.875400       0.813471
    14255.167500       0.811174
    14275.517500       0.808868
    14295.925700       0.806553
    14316.392300       0.804228
    14336.917600       0.801894
    14357.501800       0.799551
    14378.145200       0.797199
    14398.848100       0.794838
    14419.610700       0.792468
    14440.433200       0.790089
    14461.316000       0.787702
    14482.259200       0.785306
    14503.263200       0.782901
    14524.328200       0.780488
    14545.454500       0.778066
    14566.642400       0.775635
    14587.892000       0.773197
    14609.203800       0.770749
    14630.577900       0.768294
    14652.014700       0.765831
    14673.514300       0.763359
    14695.077100       0.760880
    14716.703500       0.758392
    14738.393500       0.755897
    14760.147600       0.753394
    14781.966000       0.750883
    14803.849000       0.748364
    14825.796900       0.745838
    14847.809900       0.743304
    14869.888500       0.740763
    14892.032800       0.738215
    14914.243100       0.735660
    14936.519800       0.733097
    14958.863100       0.730527
    14981.273400       0.727951
    15003.750900       0.725367
    15026.296000       0.722776
    15048.909000       0.720179
    15071.590100       0.717576
    15094.339600       0.714966
    15117.158000       0.712349
    15140.045400       0.709726
    15163.002300       0.707097
    15186.028900       0.704462
    15209.125500       0.701820
    15232.292500       0.699173
    15255.530100       0.696520
    15278.838800       0.693861
    15302.218800       0.691197
    15325.670500       0.688527
    15349.194200       0.685852
    15372.790200       0.683171
    15396.458800       0.680485
    15420.200500       0.677795
    15444.015400       0.675099
    15467.904100       0.672398
    15491.866800       0.669693
    15515.903800       0.666983
    15540.015500       0.664269
    15564.202300       0.661550
    15588.464500       0.658828
    15612.802500       0.656101
    15637.216600       0.653370
    15661.707100       0.650635
    15686.274500       0.647896
    15710.919100       0.645154
    15735.641200       0.642409
    15760.441300       0.639660
    15785.319700       0.636907
    15810.276700       0.634152
    15835.312700       0.631394
    15860.428200       0.628633
    15885.623500       0.625869
    15910.899000       0.623103
    15936.255000       0.620335
    15961.691900       0.617564
    15987.210200       0.614791
    16012.810200       0.612016
    16038.492400       0.609239
    16064.257000       0.606461
    16090.104600       0.603681
    16116.035500       0.600899
    16142.050000       0.598117
    16168.148700       0.595333
    16194.332000       0.592548
    16220.600200       0.589762
    16246.953700       0.586976
    16273.393000       0.584189
    16299.918500       0.581402
    16326.530600       0.578615
    16353.229800       0.575827
    16380.016400       0.573039
    16406.890900       0.570252
    16433.853700       0.567465
    16460.905300       0.564679
    16488.046200       0.561893
    16515.276600       0.559108
    16542.597200       0.556324
    16570.008300       0.553541
    16597.510400       0.550759
    16625.103900       0.547979
    16652.789300       0.545200
    16680.567100       0.542423
    16708.437800       0.539648
    16736.401700       0.536874
    16764.459300       0.534103
    16792.611300       0.531334
    16820.857900       0.528568
    16849.199700       0.525804
    16877.637100       0.523042
    16906.170800       0.520284
    16934.801000       0.517529
    16963.528400       0.514777
    16992.353400       0.512028
    17021.276600       0.509282
    17050.298400       0.506540
    17079.419300       0.503802
    17108.639900       0.501068
    17137.960600       0.498337
    17167.382000       0.495611
    17196.904600       0.492888
    17226.528900       0.490171
    17256.255400       0.487457
    17286.084700       0.484749
    17316.017300       0.482045
    17346.053800       0.479346
    17376.194600       0.476652
    17406.440400       0.473963
    17436.791600       0.471279
    17467.248900       0.468601
    17497.812800       0.465928
    17528.483800       0.463260
    17559.262500       0.460599
    17590.149500       0.457943
    17621.145400       0.455293
    17652.250700       0.452649
    17683.466000       0.450011
    17714.791900       0.447379
    17746.228900       0.444754
    17777.777800       0.442135
    17809.439000       0.439523
    17841.213200       0.436917
    17873.101000       0.434317
    17905.103000       0.431725
    17937.219700       0.429139
    17969.451900       0.426560
    18001.800200       0.423988
    18034.265100       0.421424
    18066.847300       0.418866
    18099.547500       0.416315
    18132.366300       0.413772
    18165.304300       0.411236
    18198.362100       0.408707
    18231.540600       0.406186
    18264.840200       0.403672
    18298.261700       0.401165
    18331.805700       0.398666
    18365.472900       0.396175
    18399.264000       0.393691
    18433.179700       0.391214
    18467.220700       0.388745
    18501.387600       0.386284
    18535.681200       0.383831
    18570.102100       0.381385
    18604.651200       0.378947
    18639.329000       0.376516
    18674.136300       0.374094
    18709.073900       0.371678
    18744.142500       0.369271
    18779.342700       0.366871
    18814.675400       0.364479
    18850.141400       0.362094
    18885.741300       0.359717
    18921.475900       0.357348
    18957.346000       0.354985
    18993.352300       0.352631
    19029.495700       0.350284
    19065.776900       0.347944
    19102.196800       0.345611
    19138.756000       0.343286
    19175.455400       0.340968
    19212.295900       0.338657
    19249.278200       0.336353
    19286.403100       0.334056
    19323.671500       0.331766
    19361.084200       0.329483
    19398.642100       0.327206
    19436.346000       0.324936
    19474.196700       0.322673
    19512.195100       0.320416
    19550.342100       0.318165
    19588.638600       0.315920
    19627.085400       0.313682
    19665.683400       0.311449
    19704.433500       0.309223
    19743.336600       0.307002
    19782.393700       0.304787
    19821.605600       0.302576
    19860.973200       0.300372
    19900.497500       0.298172
    19940.179500       0.295978
    19980.020000       0.293788
    20020.020000       0.291603
    20060.180500       0.289422
    20100.502500       0.287246
    20140.986900       0.285073
    20181.634700       0.282905
    20222.446900       0.280741
    20263.424500       0.278580
    20304.568500       0.276423
    20345.880000       0.274268
    20387.359800       0.272117
    20429.009200       0.269969
    20470.829100       0.267823
    20512.820500       0.265680
    20554.984600       0.263539
    20597.322300       0.261400
    20639.834900       0.259263
    20682.523300       0.257127
    20725.388600       0.254992
    20768.432000       0.252859
    20811.654500       0.250727
    20855.057400       0.248595
    20898.641600       0.246464
    20942.408400       0.244333
    20986.358900       0.242202
    21030.494200       0.240071
    21074.815600       0.237939
    21119.324200       0.235806
    21164.021200       0.233673
    21208.907700       0.231538
    21253.985100       0.229402
    21299.254500       0.227264
    21344.717200       0.225124
    21390.374300       0.222982
    21436.227200       0.220837
    21482.277100       0.218690
    21528.525300       0.216540
    21574.973000       0.214386
    21621.621600       0.212230
    21668.472400       0.210069
    21715.526600       0.207905
    21762.785600       0.205737
    21810.250800       0.203564
    21857.923500       0.201386
    21905.805000       0.199204
    21953.896800       0.197017
    22002.200200       0.194824
    22050.716600       0.192626
    22099.447500       0.190422
    22148.394200       0.188212
    22197.558300       0.185996
    22246.941000       0.183774
    22296.544000       0.181545
    22346.368700       0.179309
    22396.416600       0.177066
    22446.689100       0.174815
    22497.187900       0.172558
    22547.914300       0.170293
    22598.870100       0.168020
    22650.056600       0.165739
    22701.475600       0.163450
    22753.128600       0.161153
    22805.017100       0.158848
    22857.142900       0.156534
    22909.507400       0.154211
    22962.112500       0.151880
    23014.959700       0.149539
    23068.050700       0.147190
    23121.387300       0.144832
    23174.971000       0.142464
    23228.803700       0.140088
    23282.887100       0.137702
    23337.222900       0.135306
    23391.812900       0.132902
    23446.658900       0.130488
    23501.762600       0.128064
    23557.126000       0.125631
    23612.750900       0.123189
    23668.639100       0.120738
    23724.792400       0.118277
    23781.212800       0.115807
    23837.902300       0.113328
    23894.862600       0.110840
    23952.095800       0.108342
    24009.603800       0.105836
    24067.388700       0.103322
    24125.452400       0.100799
    24183.796900       0.098267
    24242.424200       0.095728
    24301.336600       0.093181
    24360.535900       0.090626
    24420.024400       0.088064
    24479.804200       0.085494
    24539.877300       0.082918
    24600.246000       0.080336
    24660.912500       0.077747
    24721.878900       0.075153
    24783.147500       0.072554
    24844.720500       0.069950
    24906.600200       0.067341
    24968.789000       0.064729
    25031.289100       0.062114
    25094.102900       0.059495
    25157.232700       0.056875
    25220.681000       0.054253
    25284.450100       0.051630
    25348.542500       0.049006
    25412.960600       0.046384
    25477.707000       0.043762
