125,   125, MVIRI VIS channel from srf_MET7_2013078_2013079_1801-Release_S10EE_10.dat
Number of data points:
793
Wavenumber (cm-1)   Filter response
     8442.380800       0.000000
     8449.514200       0.000000
     8456.659600       0.000004
     8463.817200       0.000057
     8470.986900       0.000168
     8478.168700       0.000335
     8485.362700       0.000558
     8492.569000       0.000835
     8499.787500       0.001163
     8507.018300       0.001541
     8514.261400       0.001969
     8521.516800       0.002444
     8528.784600       0.002965
     8536.064900       0.003532
     8543.357500       0.004142
     8550.662700       0.004794
     8557.980300       0.005487
     8565.310500       0.006221
     8572.653200       0.006994
     8580.008600       0.007805
     8587.376600       0.008652
     8594.757200       0.009536
     8602.150500       0.010455
     8609.556600       0.011409
     8616.975400       0.012395
     8624.407100       0.013415
     8631.851500       0.014466
     8639.308900       0.015548
     8646.779100       0.016661
     8654.262200       0.017804
     8661.758300       0.018976
     8669.267400       0.020176
     8676.789600       0.021404
     8684.324800       0.022660
     8691.873100       0.023942
     8699.434500       0.025251
     8707.009100       0.026586
     8714.596900       0.027946
     8722.198000       0.029331
     8729.812300       0.030741
     8737.439900       0.032176
     8745.080900       0.033634
     8752.735200       0.035116
     8760.403000       0.036621
     8768.084200       0.038149
     8775.778900       0.039700
     8783.487000       0.041274
     8791.208800       0.042870
     8798.944100       0.044488
     8806.693100       0.046128
     8814.455700       0.047789
     8822.232000       0.049473
     8830.022100       0.051178
     8837.825900       0.052904
     8845.643500       0.054651
     8853.475000       0.056420
     8861.320300       0.058209
     8869.179600       0.060020
     8877.052800       0.061851
     8884.940000       0.063704
     8892.841300       0.065577
     8900.756600       0.067471
     8908.686000       0.069386
     8916.629500       0.071321
     8924.587200       0.073277
     8932.559200       0.075254
     8940.545400       0.077252
     8948.545900       0.079271
     8956.560700       0.081310
     8964.589900       0.083371
     8972.633500       0.085452
     8980.691500       0.087554
     8988.764000       0.089678
     8996.851100       0.091822
     9004.952700       0.093988
     9013.068900       0.096174
     9021.199800       0.098382
     9029.345400       0.100612
     9037.505600       0.102862
     9045.680700       0.105135
     9053.870500       0.107429
     9062.075200       0.109744
     9070.294800       0.112082
     9078.529300       0.114441
     9086.778700       0.116822
     9095.043200       0.119226
     9103.322700       0.121651
     9111.617300       0.124098
     9119.927000       0.126568
     9128.251900       0.129060
     9136.592100       0.131575
     9144.947400       0.134112
     9153.318100       0.136672
     9161.704100       0.139254
     9170.105500       0.141860
     9178.522300       0.144488
     9186.954500       0.147139
     9195.402300       0.149814
     9203.865600       0.152511
     9212.344500       0.155232
     9220.839100       0.157975
     9229.349300       0.160742
     9237.875300       0.163533
     9246.417000       0.166347
     9254.974500       0.169184
     9263.547900       0.172045
     9272.137200       0.174929
     9280.742500       0.177837
     9289.363700       0.180769
     9298.000900       0.183724
     9306.654300       0.186704
     9315.323700       0.189706
     9324.009300       0.192733
     9332.711200       0.195783
     9341.429200       0.198857
     9350.163600       0.201955
     9358.914400       0.205076
     9367.681500       0.208222
     9376.465100       0.211391
     9385.265100       0.214584
     9394.081700       0.217800
     9402.914900       0.221040
     9411.764700       0.224304
     9420.631200       0.227592
     9429.514400       0.230902
     9438.414300       0.234237
     9447.331100       0.237594
     9456.264800       0.240975
     9465.215300       0.244380
     9474.182900       0.247807
     9483.167400       0.251258
     9492.169000       0.254732
     9501.187600       0.258228
     9510.223500       0.261748
     9519.276500       0.265290
     9528.346800       0.268854
     9537.434400       0.272442
     9546.539400       0.276051
     9555.661700       0.279682
     9564.801500       0.283336
     9573.958800       0.287011
     9583.133700       0.290709
     9592.326100       0.294427
     9601.536200       0.298167
     9610.764100       0.301929
     9620.009600       0.305711
     9629.273000       0.309514
     9638.554200       0.313338
     9647.853400       0.317182
     9657.170400       0.321046
     9666.505600       0.324931
     9675.858700       0.328836
     9685.230000       0.332759
     9694.619500       0.336702
     9704.027200       0.340664
     9713.453100       0.344645
     9722.897400       0.348645
     9732.360100       0.352663
     9741.841200       0.356699
     9751.340800       0.360752
     9760.859000       0.364824
     9770.395700       0.368912
     9779.951100       0.373017
     9789.525200       0.377139
     9799.118100       0.381278
     9808.729800       0.385432
     9818.360300       0.389602
     9828.009800       0.393787
     9837.678300       0.397988
     9847.365800       0.402203
     9857.072400       0.406433
     9866.798200       0.410676
     9876.543200       0.414933
     9886.307500       0.419204
     9896.091000       0.423488
     9905.894000       0.427784
     9915.716400       0.432093
     9925.558300       0.436414
     9935.419800       0.440746
     9945.300800       0.445090
     9955.201600       0.449443
     9965.122100       0.453808
     9975.062300       0.458182
     9985.022500       0.462567
     9995.002500       0.466960
    10005.002500       0.471362
    10015.022500       0.475773
    10025.062700       0.480191
    10035.122900       0.484618
    10045.203400       0.489051
    10055.304200       0.493491
    10065.425300       0.497937
    10075.566800       0.502390
    10085.728700       0.506847
    10095.911200       0.511310
    10106.114200       0.515777
    10116.337900       0.520249
    10126.582300       0.524724
    10136.847400       0.529202
    10147.133400       0.533684
    10157.440300       0.538167
    10167.768200       0.542653
    10178.117000       0.547139
    10188.487000       0.551627
    10198.878100       0.556116
    10209.290500       0.560604
    10219.724100       0.565092
    10230.179000       0.569579
    10240.655400       0.574065
    10251.153300       0.578549
    10261.672700       0.583031
    10272.213700       0.587510
    10282.776300       0.591986
    10293.360800       0.596458
    10303.967000       0.600926
    10314.595200       0.605390
    10325.245200       0.609848
    10335.917300       0.614301
    10346.611500       0.618747
    10357.327800       0.623187
    10368.066400       0.627620
    10378.827200       0.632046
    10389.610400       0.636464
    10400.416000       0.640873
    10411.244100       0.645273
    10422.094800       0.649664
    10432.968200       0.654045
    10443.864200       0.658416
    10454.783100       0.662776
    10465.724800       0.667124
    10476.689400       0.671461
    10487.677000       0.675786
    10498.687700       0.680098
    10509.721500       0.684396
    10520.778500       0.688681
    10531.858900       0.692952
    10542.962600       0.697209
    10554.089700       0.701450
    10565.240400       0.705676
    10576.414600       0.709886
    10587.612500       0.714079
    10598.834100       0.718256
    10610.079600       0.722415
    10621.348900       0.726557
    10632.642200       0.730680
    10643.959600       0.734785
    10655.301000       0.738870
    10666.666700       0.742936
    10678.056600       0.746982
    10689.470900       0.751007
    10700.909600       0.755012
    10712.372800       0.758996
    10723.860600       0.762957
    10735.373100       0.766897
    10746.910300       0.770814
    10758.472300       0.774708
    10770.059200       0.778578
    10781.671200       0.782425
    10793.308100       0.786247
    10804.970300       0.790045
    10816.657700       0.793818
    10828.370300       0.797566
    10840.108400       0.801287
    10851.871900       0.804983
    10863.661100       0.808652
    10875.475800       0.812294
    10887.316300       0.815909
    10899.182600       0.819496
    10911.074700       0.823055
    10922.992900       0.826585
    10934.937100       0.830087
    10946.907500       0.833560
    10958.904100       0.837003
    10970.927000       0.840417
    10982.976400       0.843800
    10995.052200       0.847153
    11007.154700       0.850475
    11019.283700       0.853766
    11031.439600       0.857025
    11043.622300       0.860253
    11055.832000       0.863449
    11068.068600       0.866612
    11080.332400       0.869743
    11092.623400       0.872841
    11104.941700       0.875905
    11117.287400       0.878937
    11129.660500       0.881934
    11142.061300       0.884897
    11154.489700       0.887827
    11166.945800       0.890721
    11179.429800       0.893581
    11191.941800       0.896406
    11204.481800       0.899195
    11217.049900       0.901949
    11229.646300       0.904667
    11242.270900       0.907350
    11254.924000       0.909996
    11267.605600       0.912606
    11280.315800       0.915179
    11293.054800       0.917716
    11305.822500       0.920216
    11318.619100       0.922678
    11331.444800       0.925104
    11344.299500       0.927492
    11357.183400       0.929842
    11370.096600       0.932154
    11383.039300       0.934429
    11396.011400       0.936666
    11409.013100       0.938864
    11422.044500       0.941024
    11435.105800       0.943146
    11448.196900       0.945229
    11461.318100       0.947273
    11474.469300       0.949279
    11487.650800       0.951246
    11500.862600       0.953174
    11514.104800       0.955063
    11527.377500       0.956913
    11540.680900       0.958724
    11554.015000       0.960495
    11567.380000       0.962228
    11580.775900       0.963921
    11594.202900       0.965574
    11607.661100       0.967188
    11621.150500       0.968763
    11634.671300       0.970299
    11648.223600       0.971795
    11661.807600       0.973251
    11675.423200       0.974668
    11689.070700       0.976046
    11702.750100       0.977384
    11716.461600       0.978683
    11730.205300       0.979942
    11743.981200       0.981163
    11757.789500       0.982343
    11771.630400       0.983485
    11785.503800       0.984587
    11799.410000       0.985651
    11813.349100       0.986675
    11827.321100       0.987660
    11841.326200       0.988607
    11855.364600       0.989514
    11869.436200       0.990383
    11883.541300       0.991213
    11897.680000       0.992005
    11911.852300       0.992758
    11926.058400       0.993473
    11940.298500       0.994150
    11954.572600       0.994789
    11968.880900       0.995390
    11983.223500       0.995954
    11997.600500       0.996480
    12012.012000       0.996968
    12026.458200       0.997419
    12040.939200       0.997834
    12055.455100       0.998211
    12070.006000       0.998552
    12084.592100       0.998856
    12099.213600       0.999124
    12113.870400       0.999355
    12128.562800       0.999551
    12143.290800       0.999711
    12158.054700       0.999836
    12172.854500       0.999926
    12187.690400       0.999980
    12202.562500       1.000000
    12217.471000       0.999985
    12232.415900       0.999936
    12247.397400       0.999853
    12262.415700       0.999737
    12277.470800       0.999587
    12292.563000       0.999403
    12307.692300       0.999187
    12322.858900       0.998938
    12338.062900       0.998657
    12353.304500       0.998344
    12368.583800       0.997999
    12383.900900       0.997622
    12399.256000       0.997215
    12414.649300       0.996776
    12430.080800       0.996308
    12445.550700       0.995809
    12461.059200       0.995280
    12476.606400       0.994721
    12492.192400       0.994134
    12507.817400       0.993517
    12523.481500       0.992872
    12539.185000       0.992199
    12554.927800       0.991498
    12570.710200       0.990770
    12586.532400       0.990015
    12602.394500       0.989232
    12618.296500       0.988424
    12634.238800       0.987590
    12650.221400       0.986730
    12666.244500       0.985845
    12682.308200       0.984935
    12698.412700       0.984000
    12714.558200       0.983042
    12730.744700       0.982060
    12746.972600       0.981055
    12763.241900       0.980027
    12779.552700       0.978976
    12795.905300       0.977904
    12812.299800       0.976810
    12828.736400       0.975694
    12845.215200       0.974558
    12861.736300       0.973402
    12878.300100       0.972226
    12894.906500       0.971030
    12911.555800       0.969815
    12928.248200       0.968581
    12944.983800       0.967330
    12961.762800       0.966060
    12978.585300       0.964773
    12995.451600       0.963469
    13012.361700       0.962149
    13029.316000       0.960813
    13046.314400       0.959461
    13063.357300       0.958094
    13080.444700       0.956712
    13097.576900       0.955316
    13114.754100       0.953906
    13131.976400       0.952483
    13149.243900       0.951047
    13166.556900       0.949598
    13183.915600       0.948137
    13201.320100       0.946665
    13218.770700       0.945182
    13236.267400       0.943688
    13253.810500       0.942184
    13271.400100       0.940670
    13289.036500       0.939146
    13306.719900       0.937614
    13324.450400       0.936074
    13342.228200       0.934525
    13360.053400       0.932970
    13377.926400       0.931407
    13395.847300       0.929837
    13413.816200       0.928261
    13431.833400       0.926680
    13449.899100       0.925093
    13468.013500       0.923502
    13486.176700       0.921906
    13504.388900       0.920306
    13522.650400       0.918703
    13540.961400       0.917097
    13559.322000       0.915488
    13577.732500       0.913878
    13596.193100       0.912265
    13614.703900       0.910651
    13633.265200       0.909037
    13651.877100       0.907421
    13670.540000       0.905806
    13689.253900       0.904192
    13708.019200       0.902578
    13726.836000       0.900966
    13745.704500       0.899355
    13764.624900       0.897747
    13783.597500       0.896141
    13802.622500       0.894538
    13821.700100       0.892938
    13840.830400       0.891343
    13860.013900       0.889751
    13879.250500       0.888164
    13898.540700       0.886582
    13917.884500       0.885005
    13937.282200       0.883434
    13956.734100       0.881870
    13976.240400       0.880311
    13995.801300       0.878760
    14015.417000       0.877216
    14035.087700       0.875680
    14054.813800       0.874151
    14074.595400       0.872631
    14094.432700       0.871120
    14114.326000       0.869618
    14134.275600       0.868125
    14154.281700       0.866642
    14174.344400       0.865170
    14194.464200       0.863707
    14214.641100       0.862255
    14234.875400       0.860815
    14255.167500       0.859386
    14275.517500       0.857968
    14295.925700       0.856563
    14316.392300       0.855170
    14336.917600       0.853789
    14357.501800       0.852421
    14378.145200       0.851067
    14398.848100       0.849726
    14419.610700       0.848399
    14440.433200       0.847086
    14461.316000       0.845787
    14482.259200       0.844502
    14503.263200       0.843232
    14524.328200       0.841978
    14545.454500       0.840738
    14566.642400       0.839514
    14587.892000       0.838306
    14609.203800       0.837113
    14630.577900       0.835937
    14652.014700       0.834777
    14673.514300       0.833633
    14695.077100       0.832506
    14716.703500       0.831396
    14738.393500       0.830303
    14760.147600       0.829227
    14781.966000       0.828168
    14803.849000       0.827127
    14825.796900       0.826103
    14847.809900       0.825098
    14869.888500       0.824110
    14892.032800       0.823140
    14914.243100       0.822188
    14936.519800       0.821255
    14958.863100       0.820340
    14981.273400       0.819443
    15003.750900       0.818564
    15026.296000       0.817705
    15048.909000       0.816863
    15071.590100       0.816041
    15094.339600       0.815237
    15117.158000       0.814452
    15140.045400       0.813686
    15163.002300       0.812938
    15186.028900       0.812210
    15209.125500       0.811500
    15232.292500       0.810809
    15255.530100       0.810136
    15278.838800       0.809483
    15302.218800       0.808848
    15325.670500       0.808232
    15349.194200       0.807635
    15372.790200       0.807056
    15396.458800       0.806496
    15420.200500       0.805954
    15444.015400       0.805431
    15467.904100       0.804925
    15491.866800       0.804439
    15515.903800       0.803970
    15540.015500       0.803519
    15564.202300       0.803086
    15588.464500       0.802670
    15612.802500       0.802272
    15637.216600       0.801892
    15661.707100       0.801529
    15686.274500       0.801183
    15710.919100       0.800853
    15735.641200       0.800541
    15760.441300       0.800244
    15785.319700       0.799965
    15810.276700       0.799701
    15835.312700       0.799453
    15860.428200       0.799220
    15885.623500       0.799003
    15910.899000       0.798801
    15936.255000       0.798614
    15961.691900       0.798441
    15987.210200       0.798283
    16012.810200       0.798138
    16038.492400       0.798008
    16064.257000       0.797890
    16090.104600       0.797786
    16116.035500       0.797694
    16142.050000       0.797615
    16168.148700       0.797548
    16194.332000       0.797492
    16220.600200       0.797448
    16246.953700       0.797415
    16273.393000       0.797392
    16299.918500       0.797380
    16326.530600       0.797377
    16353.229800       0.797384
    16380.016400       0.797399
    16406.890900       0.797423
    16433.853700       0.797456
    16460.905300       0.797496
    16488.046200       0.797543
    16515.276600       0.797597
    16542.597200       0.797657
    16570.008300       0.797723
    16597.510400       0.797794
    16625.103900       0.797870
    16652.789300       0.797951
    16680.567100       0.798035
    16708.437800       0.798123
    16736.401700       0.798214
    16764.459300       0.798306
    16792.611300       0.798401
    16820.857900       0.798497
    16849.199700       0.798593
    16877.637100       0.798690
    16906.170800       0.798786
    16934.801000       0.798881
    16963.528400       0.798974
    16992.353400       0.799065
    17021.276600       0.799154
    17050.298400       0.799239
    17079.419300       0.799320
    17108.639900       0.799396
    17137.960600       0.799467
    17167.382000       0.799533
    17196.904600       0.799591
    17226.528900       0.799643
    17256.255400       0.799687
    17286.084700       0.799722
    17316.017300       0.799749
    17346.053800       0.799765
    17376.194600       0.799771
    17406.440400       0.799767
    17436.791600       0.799750
    17467.248900       0.799721
    17497.812800       0.799679
    17528.483800       0.799623
    17559.262500       0.799552
    17590.149500       0.799467
    17621.145400       0.799365
    17652.250700       0.799247
    17683.466000       0.799112
    17714.791900       0.798958
    17746.228900       0.798786
    17777.777800       0.798594
    17809.439000       0.798382
    17841.213200       0.798150
    17873.101000       0.797895
    17905.103000       0.797618
    17937.219700       0.797318
    17969.451900       0.796995
    18001.800200       0.796646
    18034.265100       0.796273
    18066.847300       0.795873
    18099.547500       0.795447
    18132.366300       0.794993
    18165.304300       0.794511
    18198.362100       0.793999
    18231.540600       0.793458
    18264.840200       0.792887
    18298.261700       0.792284
    18331.805700       0.791649
    18365.472900       0.790982
    18399.264000       0.790281
    18433.179700       0.789545
    18467.220700       0.788775
    18501.387600       0.787969
    18535.681200       0.787127
    18570.102100       0.786248
    18604.651200       0.785330
    18639.329000       0.784374
    18674.136300       0.783379
    18709.073900       0.782344
    18744.142500       0.781267
    18779.342700       0.780150
    18814.675400       0.778990
    18850.141400       0.777787
    18885.741300       0.776540
    18921.475900       0.775249
    18957.346000       0.773913
    18993.352300       0.772532
    19029.495700       0.771104
    19065.776900       0.769629
    19102.196800       0.768106
    19138.756000       0.766534
    19175.455400       0.764914
    19212.295900       0.763244
    19249.278200       0.761523
    19286.403100       0.759752
    19323.671500       0.757929
    19361.084200       0.756053
    19398.642100       0.754125
    19436.346000       0.752143
    19474.196700       0.750107
    19512.195100       0.748017
    19550.342100       0.745871
    19588.638600       0.743670
    19627.085400       0.741412
    19665.683400       0.739097
    19704.433500       0.736725
    19743.336600       0.734295
    19782.393700       0.731807
    19821.605600       0.729259
    19860.973200       0.726652
    19900.497500       0.723986
    19940.179500       0.721259
    19980.020000       0.718471
    20020.020000       0.715622
    20060.180500       0.712712
    20100.502500       0.709739
    20140.986900       0.706704
    20181.634700       0.703607
    20222.446900       0.700446
    20263.424500       0.697222
    20304.568500       0.693934
    20345.880000       0.690582
    20387.359800       0.687166
    20429.009200       0.683686
    20470.829100       0.680140
    20512.820500       0.676530
    20554.984600       0.672854
    20597.322300       0.669113
    20639.834900       0.665306
    20682.523300       0.661434
    20725.388600       0.657495
    20768.432000       0.653491
    20811.654500       0.649421
    20855.057400       0.645284
    20898.641600       0.641082
    20942.408400       0.636813
    20986.358900       0.632479
    21030.494200       0.628078
    21074.815600       0.623611
    21119.324200       0.619079
    21164.021200       0.614480
    21208.907700       0.609816
    21253.985100       0.605087
    21299.254500       0.600292
    21344.717200       0.595432
    21390.374300       0.590507
    21436.227200       0.585518
    21482.277100       0.580464
    21528.525300       0.575347
    21574.973000       0.570165
    21621.621600       0.564921
    21668.472400       0.559614
    21715.526600       0.554245
    21762.785600       0.548814
    21810.250800       0.543322
    21857.923500       0.537769
    21905.805000       0.532155
    21953.896800       0.526483
    22002.200200       0.520751
    22050.716600       0.514962
    22099.447500       0.509114
    22148.394200       0.503211
    22197.558300       0.497251
    22246.941000       0.491236
    22296.544000       0.485167
    22346.368700       0.479045
    22396.416600       0.472870
    22446.689100       0.466644
    22497.187900       0.460368
    22547.914300       0.454042
    22598.870100       0.447669
    22650.056600       0.441248
    22701.475600       0.434781
    22753.128600       0.428270
    22805.017100       0.421715
    22857.142900       0.415118
    22909.507400       0.408481
    22962.112500       0.401804
    23014.959700       0.395090
    23068.050700       0.388339
    23121.387300       0.381553
    23174.971000       0.374734
    23228.803700       0.367883
    23282.887100       0.361003
    23337.222900       0.354094
    23391.812900       0.347159
    23446.658900       0.340199
    23501.762600       0.333216
    23557.126000       0.326212
    23612.750900       0.319190
    23668.639100       0.312150
    23724.792400       0.305096
    23781.212800       0.298029
    23837.902300       0.290952
    23894.862600       0.283866
    23952.095800       0.276774
    24009.603800       0.269679
    24067.388700       0.262582
    24125.452400       0.255487
    24183.796900       0.248395
    24242.424200       0.241310
    24301.336600       0.234233
    24360.535900       0.227168
    24420.024400       0.220117
    24479.804200       0.213083
    24539.877300       0.206069
    24600.246000       0.199078
    24660.912500       0.192113
    24721.878900       0.185176
    24783.147500       0.178272
    24844.720500       0.171402
    24906.600200       0.164571
    24968.789000       0.157782
    25031.289100       0.151037
    25094.102900       0.144341
    25157.232700       0.137696
    25220.681000       0.131107
    25284.450100       0.124577
    25348.542500       0.118109
    25412.960600       0.111708
    25477.707000       0.105377
