9,   9, MVIRI VIS channel from srf_MET7_1998258_1998259_1801-Release_S10EE_10.dat
Number of data points:
793
Wavenumber (cm-1)   Filter response
     8442.380800       0.000000
     8449.514200       0.000000
     8456.659600       0.000004
     8463.817200       0.000052
     8470.986900       0.000153
     8478.168700       0.000306
     8485.362700       0.000510
     8492.569000       0.000762
     8499.787500       0.001062
     8507.018300       0.001408
     8514.261400       0.001799
     8521.516800       0.002234
     8528.784600       0.002711
     8536.064900       0.003229
     8543.357500       0.003787
     8550.662700       0.004385
     8557.980300       0.005020
     8565.310500       0.005692
     8572.653200       0.006400
     8580.008600       0.007143
     8587.376600       0.007920
     8594.757200       0.008731
     8602.150500       0.009574
     8609.556600       0.010448
     8616.975400       0.011354
     8624.407100       0.012290
     8631.851500       0.013255
     8639.308900       0.014249
     8646.779100       0.015272
     8654.262200       0.016321
     8661.758300       0.017399
     8669.267400       0.018502
     8676.789600       0.019632
     8684.324800       0.020787
     8691.873100       0.021967
     8699.434500       0.023172
     8707.009100       0.024401
     8714.596900       0.025653
     8722.198000       0.026930
     8729.812300       0.028229
     8737.439900       0.029551
     8745.080900       0.030895
     8752.735200       0.032262
     8760.403000       0.033651
     8768.084200       0.035061
     8775.778900       0.036493
     8783.487000       0.037946
     8791.208800       0.039420
     8798.944100       0.040915
     8806.693100       0.042431
     8814.455700       0.043967
     8822.232000       0.045524
     8830.022100       0.047100
     8837.825900       0.048698
     8845.643500       0.050315
     8853.475000       0.051952
     8861.320300       0.053610
     8869.179600       0.055287
     8877.052800       0.056984
     8884.940000       0.058701
     8892.841300       0.060438
     8900.756600       0.062195
     8908.686000       0.063971
     8916.629500       0.065767
     8924.587200       0.067584
     8932.559200       0.069419
     8940.545400       0.071275
     8948.545900       0.073151
     8956.560700       0.075047
     8964.589900       0.076962
     8972.633500       0.078898
     8980.691500       0.080854
     8988.764000       0.082830
     8996.851100       0.084826
     9004.952700       0.086843
     9013.068900       0.088879
     9021.199800       0.090937
     9029.345400       0.093015
     9037.505600       0.095113
     9045.680700       0.097233
     9053.870500       0.099373
     9062.075200       0.101534
     9070.294800       0.103716
     9078.529300       0.105919
     9086.778700       0.108143
     9095.043200       0.110389
     9103.322700       0.112655
     9111.617300       0.114944
     9119.927000       0.117254
     9128.251900       0.119585
     9136.592100       0.121939
     9144.947400       0.124314
     9153.318100       0.126711
     9161.704100       0.129130
     9170.105500       0.131572
     9178.522300       0.134035
     9186.954500       0.136521
     9195.402300       0.139029
     9203.865600       0.141560
     9212.344500       0.144113
     9220.839100       0.146689
     9229.349300       0.149288
     9237.875300       0.151910
     9246.417000       0.154554
     9254.974500       0.157221
     9263.547900       0.159912
     9272.137200       0.162625
     9280.742500       0.165361
     9289.363700       0.168120
     9298.000900       0.170903
     9306.654300       0.173709
     9315.323700       0.176539
     9324.009300       0.179391
     9332.711200       0.182267
     9341.429200       0.185166
     9350.163600       0.188089
     9358.914400       0.191035
     9367.681500       0.194005
     9376.465100       0.196998
     9385.265100       0.200014
     9394.081700       0.203054
     9402.914900       0.206117
     9411.764700       0.209203
     9420.631200       0.212313
     9429.514400       0.215446
     9438.414300       0.218603
     9447.331100       0.221783
     9456.264800       0.224986
     9465.215300       0.228212
     9474.182900       0.231461
     9483.167400       0.234734
     9492.169000       0.238029
     9501.187600       0.241347
     9510.223500       0.244688
     9519.276500       0.248052
     9528.346800       0.251439
     9537.434400       0.254848
     9546.539400       0.258279
     9555.661700       0.261733
     9564.801500       0.265209
     9573.958800       0.268707
     9583.133700       0.272227
     9592.326100       0.275769
     9601.536200       0.279332
     9610.764100       0.282917
     9620.009600       0.286524
     9629.273000       0.290152
     9638.554200       0.293801
     9647.853400       0.297470
     9657.170400       0.301161
     9666.505600       0.304872
     9675.858700       0.308603
     9685.230000       0.312354
     9694.619500       0.316126
     9704.027200       0.319917
     9713.453100       0.323728
     9722.897400       0.327558
     9732.360100       0.331407
     9741.841200       0.335275
     9751.340800       0.339161
     9760.859000       0.343066
     9770.395700       0.346989
     9779.951100       0.350930
     9789.525200       0.354888
     9799.118100       0.358864
     9808.729800       0.362857
     9818.360300       0.366866
     9828.009800       0.370892
     9837.678300       0.374935
     9847.365800       0.378993
     9857.072400       0.383067
     9866.798200       0.387156
     9876.543200       0.391260
     9886.307500       0.395379
     9896.091000       0.399513
     9905.894000       0.403660
     9915.716400       0.407821
     9925.558300       0.411996
     9935.419800       0.416184
     9945.300800       0.420384
     9955.201600       0.424597
     9965.122100       0.428822
     9975.062300       0.433058
     9985.022500       0.437306
     9995.002500       0.441565
    10005.002500       0.445834
    10015.022500       0.450113
    10025.062700       0.454403
    10035.122900       0.458702
    10045.203400       0.463009
    10055.304200       0.467326
    10065.425300       0.471651
    10075.566800       0.475984
    10085.728700       0.480324
    10095.911200       0.484672
    10106.114200       0.489026
    10116.337900       0.493387
    10126.582300       0.497753
    10136.847400       0.502125
    10147.133400       0.506502
    10157.440300       0.510884
    10167.768200       0.515270
    10178.117000       0.519659
    10188.487000       0.524052
    10198.878100       0.528449
    10209.290500       0.532847
    10219.724100       0.537248
    10230.179000       0.541650
    10240.655400       0.546054
    10251.153300       0.550459
    10261.672700       0.554863
    10272.213700       0.559268
    10282.776300       0.563672
    10293.360800       0.568076
    10303.967000       0.572478
    10314.595200       0.576878
    10325.245200       0.581275
    10335.917300       0.585670
    10346.611500       0.590062
    10357.327800       0.594450
    10368.066400       0.598834
    10378.827200       0.603214
    10389.610400       0.607588
    10400.416000       0.611957
    10411.244100       0.616321
    10422.094800       0.620677
    10432.968200       0.625027
    10443.864200       0.629370
    10454.783100       0.633705
    10465.724800       0.638032
    10476.689400       0.642351
    10487.677000       0.646660
    10498.687700       0.650960
    10509.721500       0.655250
    10520.778500       0.659529
    10531.858900       0.663797
    10542.962600       0.668055
    10554.089700       0.672300
    10565.240400       0.676534
    10576.414600       0.680754
    10587.612500       0.684962
    10598.834100       0.689156
    10610.079600       0.693337
    10621.348900       0.697502
    10632.642200       0.701653
    10643.959600       0.705789
    10655.301000       0.709909
    10666.666700       0.714013
    10678.056600       0.718101
    10689.470900       0.722171
    10700.909600       0.726224
    10712.372800       0.730260
    10723.860600       0.734277
    10735.373100       0.738275
    10746.910300       0.742254
    10758.472300       0.746214
    10770.059200       0.750154
    10781.671200       0.754074
    10793.308100       0.757973
    10804.970300       0.761851
    10816.657700       0.765708
    10828.370300       0.769542
    10840.108400       0.773355
    10851.871900       0.777144
    10863.661100       0.780911
    10875.475800       0.784655
    10887.316300       0.788374
    10899.182600       0.792070
    10911.074700       0.795741
    10922.992900       0.799387
    10934.937100       0.803008
    10946.907500       0.806603
    10958.904100       0.810173
    10970.927000       0.813716
    10982.976400       0.817232
    10995.052200       0.820722
    11007.154700       0.824184
    11019.283700       0.827619
    11031.439600       0.831026
    11043.622300       0.834404
    11055.832000       0.837754
    11068.068600       0.841075
    11080.332400       0.844368
    11092.623400       0.847630
    11104.941700       0.850863
    11117.287400       0.854065
    11129.660500       0.857238
    11142.061300       0.860379
    11154.489700       0.863490
    11166.945800       0.866570
    11179.429800       0.869618
    11191.941800       0.872635
    11204.481800       0.875619
    11217.049900       0.878572
    11229.646300       0.881492
    11242.270900       0.884379
    11254.924000       0.887234
    11267.605600       0.890055
    11280.315800       0.892843
    11293.054800       0.895597
    11305.822500       0.898318
    11318.619100       0.901005
    11331.444800       0.903658
    11344.299500       0.906276
    11357.183400       0.908860
    11370.096600       0.911409
    11383.039300       0.913923
    11396.011400       0.916402
    11409.013100       0.918846
    11422.044500       0.921255
    11435.105800       0.923628
    11448.196900       0.925966
    11461.318100       0.928267
    11474.469300       0.930533
    11487.650800       0.932763
    11500.862600       0.934957
    11514.104800       0.937114
    11527.377500       0.939236
    11540.680900       0.941320
    11554.015000       0.943369
    11567.380000       0.945380
    11580.775900       0.947355
    11594.202900       0.949293
    11607.661100       0.951195
    11621.150500       0.953059
    11634.671300       0.954887
    11648.223600       0.956677
    11661.807600       0.958431
    11675.423200       0.960148
    11689.070700       0.961827
    11702.750100       0.963469
    11716.461600       0.965075
    11730.205300       0.966643
    11743.981200       0.968174
    11757.789500       0.969668
    11771.630400       0.971125
    11785.503800       0.972545
    11799.410000       0.973928
    11813.349100       0.975274
    11827.321100       0.976583
    11841.326200       0.977855
    11855.364600       0.979090
    11869.436200       0.980289
    11883.541300       0.981451
    11897.680000       0.982576
    11911.852300       0.983664
    11926.058400       0.984716
    11940.298500       0.985732
    11954.572600       0.986711
    11968.880900       0.987654
    11983.223500       0.988562
    11997.600500       0.989433
    12012.012000       0.990268
    12026.458200       0.991068
    12040.939200       0.991832
    12055.455100       0.992560
    12070.006000       0.993254
    12084.592100       0.993912
    12099.213600       0.994536
    12113.870400       0.995124
    12128.562800       0.995678
    12143.290800       0.996198
    12158.054700       0.996683
    12172.854500       0.997134
    12187.690400       0.997552
    12202.562500       0.997935
    12217.471000       0.998286
    12232.415900       0.998603
    12247.397400       0.998887
    12262.415700       0.999138
    12277.470800       0.999357
    12292.563000       0.999543
    12307.692300       0.999698
    12322.858900       0.999820
    12338.062900       0.999911
    12353.304500       0.999971
    12368.583800       1.000000
    12383.900900       0.999998
    12399.256000       0.999965
    12414.649300       0.999903
    12430.080800       0.999810
    12445.550700       0.999688
    12461.059200       0.999536
    12476.606400       0.999356
    12492.192400       0.999147
    12507.817400       0.998909
    12523.481500       0.998643
    12539.185000       0.998349
    12554.927800       0.998028
    12570.710200       0.997680
    12586.532400       0.997305
    12602.394500       0.996904
    12618.296500       0.996477
    12634.238800       0.996024
    12650.221400       0.995545
    12666.244500       0.995041
    12682.308200       0.994513
    12698.412700       0.993961
    12714.558200       0.993384
    12730.744700       0.992784
    12746.972600       0.992161
    12763.241900       0.991514
    12779.552700       0.990846
    12795.905300       0.990155
    12812.299800       0.989443
    12828.736400       0.988709
    12845.215200       0.987955
    12861.736300       0.987180
    12878.300100       0.986385
    12894.906500       0.985570
    12911.555800       0.984736
    12928.248200       0.983884
    12944.983800       0.983013
    12961.762800       0.982123
    12978.585300       0.981217
    12995.451600       0.980293
    13012.361700       0.979352
    13029.316000       0.978395
    13046.314400       0.977422
    13063.357300       0.976434
    13080.444700       0.975430
    13097.576900       0.974412
    13114.754100       0.973380
    13131.976400       0.972334
    13149.243900       0.971275
    13166.556900       0.970203
    13183.915600       0.969118
    13201.320100       0.968022
    13218.770700       0.966914
    13236.267400       0.965795
    13253.810500       0.964666
    13271.400100       0.963526
    13289.036500       0.962377
    13306.719900       0.961218
    13324.450400       0.960051
    13342.228200       0.958875
    13360.053400       0.957691
    13377.926400       0.956500
    13395.847300       0.955301
    13413.816200       0.954097
    13431.833400       0.952886
    13449.899100       0.951669
    13468.013500       0.950447
    13486.176700       0.949221
    13504.388900       0.947990
    13522.650400       0.946755
    13540.961400       0.945517
    13559.322000       0.944276
    13577.732500       0.943033
    13596.193100       0.941787
    13614.703900       0.940540
    13633.265200       0.939291
    13651.877100       0.938042
    13670.540000       0.936793
    13689.253900       0.935544
    13708.019200       0.934295
    13726.836000       0.933047
    13745.704500       0.931801
    13764.624900       0.930557
    13783.597500       0.929315
    13802.622500       0.928076
    13821.700100       0.926840
    13840.830400       0.925607
    13860.013900       0.924379
    13879.250500       0.923155
    13898.540700       0.921936
    13917.884500       0.920722
    13937.282200       0.919514
    13956.734100       0.918312
    13976.240400       0.917116
    13995.801300       0.915928
    14015.417000       0.914746
    14035.087700       0.913573
    14054.813800       0.912407
    14074.595400       0.911250
    14094.432700       0.910102
    14114.326000       0.908963
    14134.275600       0.907833
    14154.281700       0.906713
    14174.344400       0.905604
    14194.464200       0.904506
    14214.641100       0.903418
    14234.875400       0.902342
    14255.167500       0.901277
    14275.517500       0.900225
    14295.925700       0.899185
    14316.392300       0.898158
    14336.917600       0.897144
    14357.501800       0.896143
    14378.145200       0.895156
    14398.848100       0.894183
    14419.610700       0.893224
    14440.433200       0.892280
    14461.316000       0.891351
    14482.259200       0.890437
    14503.263200       0.889538
    14524.328200       0.888655
    14545.454500       0.887789
    14566.642400       0.886938
    14587.892000       0.886104
    14609.203800       0.885287
    14630.577900       0.884487
    14652.014700       0.883704
    14673.514300       0.882939
    14695.077100       0.882191
    14716.703500       0.881461
    14738.393500       0.880750
    14760.147600       0.880056
    14781.966000       0.879382
    14803.849000       0.878726
    14825.796900       0.878088
    14847.809900       0.877470
    14869.888500       0.876871
    14892.032800       0.876292
    14914.243100       0.875732
    14936.519800       0.875192
    14958.863100       0.874671
    14981.273400       0.874170
    15003.750900       0.873690
    15026.296000       0.873229
    15048.909000       0.872789
    15071.590100       0.872369
    15094.339600       0.871970
    15117.158000       0.871591
    15140.045400       0.871232
    15163.002300       0.870895
    15186.028900       0.870577
    15209.125500       0.870281
    15232.292500       0.870005
    15255.530100       0.869750
    15278.838800       0.869516
    15302.218800       0.869302
    15325.670500       0.869109
    15349.194200       0.868937
    15372.790200       0.868785
    15396.458800       0.868655
    15420.200500       0.868544
    15444.015400       0.868455
    15467.904100       0.868386
    15491.866800       0.868337
    15515.903800       0.868308
    15540.015500       0.868300
    15564.202300       0.868312
    15588.464500       0.868344
    15612.802500       0.868396
    15637.216600       0.868467
    15661.707100       0.868559
    15686.274500       0.868669
    15710.919100       0.868799
    15735.641200       0.868948
    15760.441300       0.869116
    15785.319700       0.869303
    15810.276700       0.869508
    15835.312700       0.869732
    15860.428200       0.869973
    15885.623500       0.870233
    15910.899000       0.870510
    15936.255000       0.870805
    15961.691900       0.871116
    15987.210200       0.871445
    16012.810200       0.871790
    16038.492400       0.872151
    16064.257000       0.872528
    16090.104600       0.872921
    16116.035500       0.873329
    16142.050000       0.873752
    16168.148700       0.874189
    16194.332000       0.874641
    16220.600200       0.875107
    16246.953700       0.875586
    16273.393000       0.876078
    16299.918500       0.876583
    16326.530600       0.877100
    16353.229800       0.877629
    16380.016400       0.878169
    16406.890900       0.878721
    16433.853700       0.879283
    16460.905300       0.879855
    16488.046200       0.880436
    16515.276600       0.881027
    16542.597200       0.881626
    16570.008300       0.882233
    16597.510400       0.882848
    16625.103900       0.883470
    16652.789300       0.884099
    16680.567100       0.884733
    16708.437800       0.885373
    16736.401700       0.886018
    16764.459300       0.886667
    16792.611300       0.887319
    16820.857900       0.887975
    16849.199700       0.888633
    16877.637100       0.889293
    16906.170800       0.889955
    16934.801000       0.890617
    16963.528400       0.891279
    16992.353400       0.891940
    17021.276600       0.892600
    17050.298400       0.893258
    17079.419300       0.893914
    17108.639900       0.894565
    17137.960600       0.895213
    17167.382000       0.895856
    17196.904600       0.896494
    17226.528900       0.897126
    17256.255400       0.897750
    17286.084700       0.898367
    17316.017300       0.898975
    17346.053800       0.899574
    17376.194600       0.900164
    17406.440400       0.900742
    17436.791600       0.901309
    17467.248900       0.901864
    17497.812800       0.902406
    17528.483800       0.902934
    17559.262500       0.903447
    17590.149500       0.903944
    17621.145400       0.904426
    17652.250700       0.904890
    17683.466000       0.905336
    17714.791900       0.905763
    17746.228900       0.906171
    17777.777800       0.906558
    17809.439000       0.906924
    17841.213200       0.907267
    17873.101000       0.907588
    17905.103000       0.907884
    17937.219700       0.908155
    17969.451900       0.908401
    18001.800200       0.908620
    18034.265100       0.908811
    18066.847300       0.908974
    18099.547500       0.909108
    18132.366300       0.909211
    18165.304300       0.909284
    18198.362100       0.909324
    18231.540600       0.909331
    18264.840200       0.909304
    18298.261700       0.909242
    18331.805700       0.909145
    18365.472900       0.909011
    18399.264000       0.908839
    18433.179700       0.908628
    18467.220700       0.908378
    18501.387600       0.908088
    18535.681200       0.907756
    18570.102100       0.907382
    18604.651200       0.906965
    18639.329000       0.906504
    18674.136300       0.905997
    18709.073900       0.905444
    18744.142500       0.904845
    18779.342700       0.904197
    18814.675400       0.903501
    18850.141400       0.902755
    18885.741300       0.901958
    18921.475900       0.901109
    18957.346000       0.900208
    18993.352300       0.899254
    19029.495700       0.898245
    19065.776900       0.897181
    19102.196800       0.896060
    19138.756000       0.894883
    19175.455400       0.893647
    19212.295900       0.892353
    19249.278200       0.890998
    19286.403100       0.889583
    19323.671500       0.888107
    19361.084200       0.886568
    19398.642100       0.884966
    19436.346000       0.883300
    19474.196700       0.881568
    19512.195100       0.879771
    19550.342100       0.877908
    19588.638600       0.875977
    19627.085400       0.873977
    19665.683400       0.871909
    19704.433500       0.869770
    19743.336600       0.867561
    19782.393700       0.865281
    19821.605600       0.862928
    19860.973200       0.860503
    19900.497500       0.858004
    19940.179500       0.855430
    19980.020000       0.852782
    20020.020000       0.850058
    20060.180500       0.847257
    20100.502500       0.844379
    20140.986900       0.841424
    20181.634700       0.838390
    20222.446900       0.835278
    20263.424500       0.832085
    20304.568500       0.828813
    20345.880000       0.825460
    20387.359800       0.822026
    20429.009200       0.818510
    20470.829100       0.814912
    20512.820500       0.811231
    20554.984600       0.807467
    20597.322300       0.803620
    20639.834900       0.799688
    20682.523300       0.795673
    20725.388600       0.791572
    20768.432000       0.787386
    20811.654500       0.783115
    20855.057400       0.778758
    20898.641600       0.774316
    20942.408400       0.769787
    20986.358900       0.765171
    21030.494200       0.760469
    21074.815600       0.755681
    21119.324200       0.750805
    21164.021200       0.745843
    21208.907700       0.740793
    21253.985100       0.735657
    21299.254500       0.730433
    21344.717200       0.725123
    21390.374300       0.719725
    21436.227200       0.714241
    21482.277100       0.708669
    21528.525300       0.703012
    21574.973000       0.697268
    21621.621600       0.691438
    21668.472400       0.685522
    21715.526600       0.679520
    21762.785600       0.673434
    21810.250800       0.667262
    21857.923500       0.661007
    21905.805000       0.654667
    21953.896800       0.648244
    22002.200200       0.641738
    22050.716600       0.635151
    22099.447500       0.628482
    22148.394200       0.621732
    22197.558300       0.614902
    22246.941000       0.607992
    22296.544000       0.601005
    22346.368700       0.593939
    22396.416600       0.586798
    22446.689100       0.579580
    22497.187900       0.572289
    22547.914300       0.564924
    22598.870100       0.557486
    22650.056600       0.549977
    22701.475600       0.542399
    22753.128600       0.534752
    22805.017100       0.527038
    22857.142900       0.519258
    22909.507400       0.511414
    22962.112500       0.503507
    23014.959700       0.495539
    23068.050700       0.487512
    23121.387300       0.479427
    23174.971000       0.471286
    23228.803700       0.463092
    23282.887100       0.454845
    23337.222900       0.446548
    23391.812900       0.438203
    23446.658900       0.429812
    23501.762600       0.421378
    23557.126000       0.412902
    23612.750900       0.404387
    23668.639100       0.395835
    23724.792400       0.387249
    23781.212800       0.378632
    23837.902300       0.369986
    23894.862600       0.361313
    23952.095800       0.352617
    24009.603800       0.343901
    24067.388700       0.335166
    24125.452400       0.326418
    24183.796900       0.317658
    24242.424200       0.308889
    24301.336600       0.300116
    24360.535900       0.291341
    24420.024400       0.282569
    24479.804200       0.273801
    24539.877300       0.265043
    24600.246000       0.256298
    24660.912500       0.247569
    24721.878900       0.238861
    24783.147500       0.230178
    24844.720500       0.221523
    24906.600200       0.212902
    24968.789000       0.204318
    25031.289100       0.195775
    25094.102900       0.187279
    25157.232700       0.178833
    25220.681000       0.170443
    25284.450100       0.162114
    25348.542500       0.153850
    25412.960600       0.145656
    25477.707000       0.137538
