2,   channel 2 SRF from file SRF_SIRS-A_Ch02.asc received July 2020 from Andrzej Kloneki
Number of data points:
281
Wavenumber (cm-1)   Filter response
      743.000000       0.000000
      743.050000       0.000000
      743.100000       0.000000
      743.150000       0.000000
      743.200000       0.000000
      743.250000       0.000000
      743.300000       0.000000
      743.350000       0.000000
      743.400000       0.000000
      743.450000       0.000000
      743.500000       0.000000
      743.550000       0.000000
      743.600000       0.000000
      743.650000       0.000000
      743.700000       0.000000
      743.750000       0.000000
      743.800000       0.000000
      743.850000       0.000000
      743.900000       0.000000
      743.950000       0.000000
      744.000000       0.000000
      744.050000       0.007600
      744.100000       0.017600
      744.150000       0.027600
      744.200000       0.037600
      744.250000       0.047600
      744.300000       0.057600
      744.350000       0.067600
      744.400000       0.077600
      744.450000       0.087600
      744.500000       0.097600
      744.550000       0.107600
      744.600000       0.117600
      744.650000       0.127600
      744.700000       0.137600
      744.750000       0.147600
      744.800000       0.157600
      744.850000       0.167600
      744.900000       0.177600
      744.950000       0.187600
      745.000000       0.197600
      745.050000       0.207600
      745.100000       0.217600
      745.150000       0.227600
      745.200000       0.237600
      745.250000       0.247600
      745.300000       0.257600
      745.350000       0.267600
      745.400000       0.277600
      745.450000       0.287600
      745.500000       0.297600
      745.550000       0.307600
      745.600000       0.317600
      745.650000       0.327600
      745.700000       0.337600
      745.750000       0.347600
      745.800000       0.357600
      745.850000       0.367600
      745.900000       0.377600
      745.950000       0.387600
      746.000000       0.397600
      746.050000       0.407600
      746.100000       0.417600
      746.150000       0.427600
      746.200000       0.437600
      746.250000       0.447600
      746.300000       0.457600
      746.350000       0.467600
      746.400000       0.477600
      746.450000       0.487600
      746.500000       0.497600
      746.550000       0.507600
      746.600000       0.517600
      746.650000       0.527600
      746.700000       0.537600
      746.750000       0.547600
      746.800000       0.557600
      746.850000       0.567600
      746.900000       0.577600
      746.950000       0.587600
      747.000000       0.597600
      747.050000       0.607600
      747.100000       0.617600
      747.150000       0.627600
      747.200000       0.637600
      747.250000       0.647600
      747.300000       0.657600
      747.350000       0.667600
      747.400000       0.677600
      747.450000       0.687600
      747.500000       0.697600
      747.550000       0.707600
      747.600000       0.717600
      747.650000       0.727600
      747.700000       0.737600
      747.750000       0.747600
      747.800000       0.757600
      747.850000       0.767600
      747.900000       0.777600
      747.950000       0.787600
      748.000000       0.797600
      748.050000       0.807600
      748.100000       0.817600
      748.150000       0.827600
      748.200000       0.837600
      748.250000       0.847600
      748.300000       0.857600
      748.350000       0.867600
      748.400000       0.877600
      748.450000       0.887600
      748.500000       0.897600
      748.550000       0.907600
      748.600000       0.917600
      748.650000       0.927600
      748.700000       0.937600
      748.750000       0.947600
      748.800000       0.957600
      748.850000       0.967600
      748.900000       0.977600
      748.950000       0.987600
      749.000000       0.997600
      749.050000       1.000000
      749.100000       1.000000
      749.150000       1.000000
      749.200000       1.000000
      749.250000       1.000000
      749.300000       1.000000
      749.350000       1.000000
      749.400000       1.000000
      749.450000       1.000000
      749.500000       1.000000
      749.550000       1.000000
      749.600000       1.000000
      749.650000       1.000000
      749.700000       1.000000
      749.750000       1.000000
      749.800000       1.000000
      749.850000       1.000000
      749.900000       1.000000
      749.950000       1.000000
      750.000000       1.000000
      750.050000       1.000000
      750.100000       1.000000
      750.150000       1.000000
      750.200000       1.000000
      750.250000       1.000000
      750.300000       1.000000
      750.350000       1.000000
      750.400000       1.000000
      750.450000       1.000000
      750.500000       1.000000
      750.550000       1.000000
      750.600000       1.000000
      750.650000       1.000000
      750.700000       1.000000
      750.750000       1.000000
      750.800000       1.000000
      750.850000       1.000000
      750.900000       1.000000
      750.950000       1.000000
      751.000000       0.997600
      751.050000       0.987600
      751.100000       0.977600
      751.150000       0.967600
      751.200000       0.957600
      751.250000       0.947600
      751.300000       0.937600
      751.350000       0.927600
      751.400000       0.917600
      751.450000       0.907600
      751.500000       0.897600
      751.550000       0.887600
      751.600000       0.877600
      751.650000       0.867600
      751.700000       0.857600
      751.750000       0.847600
      751.800000       0.837600
      751.850000       0.827600
      751.900000       0.817600
      751.950000       0.807600
      752.000000       0.797600
      752.050000       0.787600
      752.100000       0.777600
      752.150000       0.767600
      752.200000       0.757600
      752.250000       0.747600
      752.300000       0.737600
      752.350000       0.727600
      752.400000       0.717600
      752.450000       0.707600
      752.500000       0.697600
      752.550000       0.687600
      752.600000       0.677600
      752.650000       0.667600
      752.700000       0.657600
      752.750000       0.647600
      752.800000       0.637600
      752.850000       0.627600
      752.900000       0.617600
      752.950000       0.607600
      753.000000       0.597600
      753.050000       0.587600
      753.100000       0.577600
      753.150000       0.567600
      753.200000       0.557600
      753.250000       0.547600
      753.300000       0.537600
      753.350000       0.527600
      753.400000       0.517600
      753.450000       0.507600
      753.500000       0.497600
      753.550000       0.487600
      753.600000       0.477600
      753.650000       0.467600
      753.700000       0.457600
      753.750000       0.447600
      753.800000       0.437600
      753.850000       0.427600
      753.900000       0.417600
      753.950000       0.407600
      754.000000       0.397600
      754.050000       0.387600
      754.100000       0.377600
      754.150000       0.367600
      754.200000       0.357600
      754.250000       0.347600
      754.300000       0.337600
      754.350000       0.327600
      754.400000       0.317600
      754.450000       0.307600
      754.500000       0.297600
      754.550000       0.287600
      754.600000       0.277600
      754.650000       0.267600
      754.700000       0.257600
      754.750000       0.247600
      754.800000       0.237600
      754.850000       0.227600
      754.900000       0.217600
      754.950000       0.207600
      755.000000       0.197600
      755.050000       0.187600
      755.100000       0.177600
      755.150000       0.167600
      755.200000       0.157600
      755.250000       0.147600
      755.300000       0.137600
      755.350000       0.127600
      755.400000       0.117600
      755.450000       0.107600
      755.500000       0.097600
      755.550000       0.087600
      755.600000       0.077600
      755.650000       0.067600
      755.700000       0.057600
      755.750000       0.047600
      755.800000       0.037600
      755.850000       0.027600
      755.900000       0.017600
      755.950000       0.007600
      756.000000       0.000000
      756.050000       0.000000
      756.100000       0.000000
      756.150000       0.000000
      756.200000       0.000000
      756.250000       0.000000
      756.300000       0.000000
      756.350000       0.000000
      756.400000       0.000000
      756.450000       0.000000
      756.500000       0.000000
      756.550000       0.000000
      756.600000       0.000000
      756.650000       0.000000
      756.700000       0.000000
      756.750000       0.000000
      756.800000       0.000000
      756.850000       0.000000
      756.900000       0.000000
      756.950000       0.000000
      757.000000       0.000000
