   1  ,noaa_11_hirs_01.flt
Number of data points:
101
Wavenumber (cm-1)   Filter response
      655.000000       0.000000
      655.300000       0.018387
      655.600000       0.021639
      655.900000       0.021738
      656.190000       0.018639
      656.490000       0.020311
      656.790000       0.017670
      657.080000       0.017729
      657.380000       0.017789
      657.680000       0.021131
      657.970000       0.021203
      658.270000       0.021274
      658.570000       0.021346
      658.870000       0.021418
      659.160000       0.024266
      659.460000       0.029360
      659.760000       0.029458
      660.050000       0.027466
      660.350000       0.030649
      660.650000       0.030726
      660.950000       0.030828
      661.250000       0.035744
      661.550000       0.038702
      661.850000       0.038829
      662.150000       0.043813
      662.450000       0.049686
      662.750000       0.057994
      663.050000       0.068598
      663.350000       0.075876
      663.650000       0.092666
      663.950000       0.111510
      664.240000       0.128550
      664.540000       0.155490
      664.840000       0.186490
      665.150000       0.220930
      665.430000       0.267790
      665.730000       0.328040
      666.030000       0.391410
      666.330000       0.451660
      666.620000       0.542160
      666.920000       0.636670
      667.210000       0.728960
      667.500000       0.842220
      667.800000       0.931500
      668.100000       0.985980
      668.400000       1.000000
      668.700000       0.990730
      669.000000       0.941190
      669.310000       0.876580
      669.610000       0.793360
      669.920000       0.699800
      670.190000       0.595590
      670.540000       0.505350
      670.830000       0.427140
      671.110000       0.363180
      671.400000       0.299190
      671.750000       0.257570
      672.050000       0.215440
      672.340000       0.185820
      672.640000       0.165290
      672.930000       0.138630
      673.230000       0.124240
      673.530000       0.105490
      673.820000       0.087341
      674.120000       0.087563
      674.420000       0.072883
      674.720000       0.073062
      675.020000       0.070235
      675.320000       0.060691
      675.630000       0.054728
      675.930000       0.054568
      676.230000       0.049186
      676.540000       0.044142
      676.840000       0.037620
      677.140000       0.037688
      677.440000       0.037756
      677.750000       0.037822
      678.050000       0.030175
      678.350000       0.030236
      678.650000       0.030295
      678.960000       0.030357
      679.260000       0.030419
      679.560000       0.030451
      679.860000       0.030542
      680.190000       0.032465
      680.490000       0.032520
      680.790000       0.032575
      681.090000       0.032612
      681.390000       0.032667
      681.690000       0.032723
      681.990000       0.032777
      682.290000       0.032829
      682.590000       0.032956
      682.890000       0.033193
      683.190000       0.033433
      683.490000       0.033672
      683.790000       0.033930
      684.090000       0.030726
      684.400000       0.030951
      684.700000       0.040031
      685.000000       0.000000
