31,   31, MVIRI VIS channel from srf_MET2_1985348_1985349_1801-Release_S10EL_10.dat
Number of data points:
730
Wavenumber (cm-1)   Filter response
     8916.629500       0.000000
     8924.587200       0.000000
     8932.559200       0.000002
     8940.545400       0.000011
     8948.545900       0.000032
     8956.560700       0.000069
     8964.589900       0.000126
     8972.633500       0.000207
     8980.691500       0.000317
     8988.764000       0.000460
     8996.851100       0.000638
     9004.952700       0.000855
     9013.068900       0.001116
     9021.199800       0.001422
     9029.345400       0.001778
     9037.505600       0.002185
     9045.680700       0.002647
     9053.870500       0.003166
     9062.075200       0.003744
     9070.294800       0.004385
     9078.529300       0.005091
     9086.778700       0.005862
     9095.043200       0.006702
     9103.322700       0.007612
     9111.617300       0.008595
     9119.927000       0.009650
     9128.251900       0.010781
     9136.592100       0.011989
     9144.947400       0.013274
     9153.318100       0.014638
     9161.704100       0.016082
     9170.105500       0.017608
     9178.522300       0.019215
     9186.954500       0.020905
     9195.402300       0.022679
     9203.865600       0.024537
     9212.344500       0.026480
     9220.839100       0.028508
     9229.349300       0.030622
     9237.875300       0.032822
     9246.417000       0.035107
     9254.974500       0.037480
     9263.547900       0.039938
     9272.137200       0.042483
     9280.742500       0.045115
     9289.363700       0.047832
     9298.000900       0.050636
     9306.654300       0.053526
     9315.323700       0.056501
     9324.009300       0.059562
     9332.711200       0.062708
     9341.429200       0.065937
     9350.163600       0.069251
     9358.914400       0.072648
     9367.681500       0.076128
     9376.465100       0.079690
     9385.265100       0.083333
     9394.081700       0.087057
     9402.914900       0.090861
     9411.764700       0.094744
     9420.631200       0.098705
     9429.514400       0.102743
     9438.414300       0.106858
     9447.331100       0.111048
     9456.264800       0.115312
     9465.215300       0.119650
     9474.182900       0.124060
     9483.167400       0.128542
     9492.169000       0.133093
     9501.187600       0.137713
     9510.223500       0.142402
     9519.276500       0.147156
     9528.346800       0.151977
     9537.434400       0.156861
     9546.539400       0.161808
     9555.661700       0.166817
     9564.801500       0.171887
     9573.958800       0.177015
     9583.133700       0.182202
     9592.326100       0.187444
     9601.536200       0.192742
     9610.764100       0.198094
     9620.009600       0.203498
     9629.273000       0.208953
     9638.554200       0.214458
     9647.853400       0.220011
     9657.170400       0.225610
     9666.505600       0.231256
     9675.858700       0.236945
     9685.230000       0.242677
     9694.619500       0.248450
     9704.027200       0.254263
     9713.453100       0.260115
     9722.897400       0.266003
     9732.360100       0.271927
     9741.841200       0.277885
     9751.340800       0.283875
     9760.859000       0.289897
     9770.395700       0.295949
     9779.951100       0.302029
     9789.525200       0.308136
     9799.118100       0.314269
     9808.729800       0.320426
     9818.360300       0.326606
     9828.009800       0.332807
     9837.678300       0.339028
     9847.365800       0.345268
     9857.072400       0.351524
     9866.798200       0.357797
     9876.543200       0.364084
     9886.307500       0.370385
     9896.091000       0.376697
     9905.894000       0.383019
     9915.716400       0.389351
     9925.558300       0.395690
     9935.419800       0.402037
     9945.300800       0.408388
     9955.201600       0.414743
     9965.122100       0.421101
     9975.062300       0.427460
     9985.022500       0.433820
     9995.002500       0.440178
    10005.002500       0.446534
    10015.022500       0.452886
    10025.062700       0.459234
    10035.122900       0.465576
    10045.203400       0.471910
    10055.304200       0.478237
    10065.425300       0.484554
    10075.566800       0.490861
    10085.728700       0.497155
    10095.911200       0.503438
    10106.114200       0.509706
    10116.337900       0.515960
    10126.582300       0.522197
    10136.847400       0.528418
    10147.133400       0.534621
    10157.440300       0.540805
    10167.768200       0.546968
    10178.117000       0.553111
    10188.487000       0.559232
    10198.878100       0.565330
    10209.290500       0.571404
    10219.724100       0.577454
    10230.179000       0.583477
    10240.655400       0.589475
    10251.153300       0.595445
    10261.672700       0.601387
    10272.213700       0.607300
    10282.776300       0.613183
    10293.360800       0.619036
    10303.967000       0.624857
    10314.595200       0.630646
    10325.245200       0.636402
    10335.917300       0.642125
    10346.611500       0.647813
    10357.327800       0.653466
    10368.066400       0.659083
    10378.827200       0.664664
    10389.610400       0.670208
    10400.416000       0.675715
    10411.244100       0.681183
    10422.094800       0.686612
    10432.968200       0.692002
    10443.864200       0.697352
    10454.783100       0.702661
    10465.724800       0.707929
    10476.689400       0.713155
    10487.677000       0.718340
    10498.687700       0.723482
    10509.721500       0.728581
    10520.778500       0.733636
    10531.858900       0.738647
    10542.962600       0.743614
    10554.089700       0.748536
    10565.240400       0.753413
    10576.414600       0.758245
    10587.612500       0.763030
    10598.834100       0.767770
    10610.079600       0.772462
    10621.348900       0.777108
    10632.642200       0.781706
    10643.959600       0.786257
    10655.301000       0.790760
    10666.666700       0.795216
    10678.056600       0.799622
    10689.470900       0.803981
    10700.909600       0.808290
    10712.372800       0.812551
    10723.860600       0.816762
    10735.373100       0.820924
    10746.910300       0.825037
    10758.472300       0.829100
    10770.059200       0.833113
    10781.671200       0.837076
    10793.308100       0.840989
    10804.970300       0.844852
    10816.657700       0.848665
    10828.370300       0.852427
    10840.108400       0.856139
    10851.871900       0.859800
    10863.661100       0.863412
    10875.475800       0.866972
    10887.316300       0.870482
    10899.182600       0.873941
    10911.074700       0.877350
    10922.992900       0.880708
    10934.937100       0.884016
    10946.907500       0.887273
    10958.904100       0.890479
    10970.927000       0.893635
    10982.976400       0.896741
    10995.052200       0.899796
    11007.154700       0.902801
    11019.283700       0.905756
    11031.439600       0.908661
    11043.622300       0.911516
    11055.832000       0.914321
    11068.068600       0.917076
    11080.332400       0.919782
    11092.623400       0.922438
    11104.941700       0.925044
    11117.287400       0.927602
    11129.660500       0.930110
    11142.061300       0.932570
    11154.489700       0.934981
    11166.945800       0.937343
    11179.429800       0.939658
    11191.941800       0.941924
    11204.481800       0.944142
    11217.049900       0.946312
    11229.646300       0.948434
    11242.270900       0.950510
    11254.924000       0.952538
    11267.605600       0.954520
    11280.315800       0.956454
    11293.054800       0.958343
    11305.822500       0.960185
    11318.619100       0.961981
    11331.444800       0.963732
    11344.299500       0.965437
    11357.183400       0.967097
    11370.096600       0.968713
    11383.039300       0.970284
    11396.011400       0.971810
    11409.013100       0.973292
    11422.044500       0.974731
    11435.105800       0.976126
    11448.196900       0.977478
    11461.318100       0.978787
    11474.469300       0.980053
    11487.650800       0.981278
    11500.862600       0.982460
    11514.104800       0.983600
    11527.377500       0.984699
    11540.680900       0.985757
    11554.015000       0.986774
    11567.380000       0.987751
    11580.775900       0.988688
    11594.202900       0.989584
    11607.661100       0.990442
    11621.150500       0.991260
    11634.671300       0.992039
    11648.223600       0.992779
    11661.807600       0.993482
    11675.423200       0.994146
    11689.070700       0.994773
    11702.750100       0.995363
    11716.461600       0.995915
    11730.205300       0.996431
    11743.981200       0.996911
    11757.789500       0.997355
    11771.630400       0.997763
    11785.503800       0.998136
    11799.410000       0.998474
    11813.349100       0.998777
    11827.321100       0.999046
    11841.326200       0.999281
    11855.364600       0.999482
    11869.436200       0.999650
    11883.541300       0.999785
    11897.680000       0.999887
    11911.852300       0.999956
    11926.058400       0.999994
    11940.298500       1.000000
    11954.572600       0.999975
    11968.880900       0.999918
    11983.223500       0.999831
    11997.600500       0.999713
    12012.012000       0.999565
    12026.458200       0.999387
    12040.939200       0.999179
    12055.455100       0.998943
    12070.006000       0.998677
    12084.592100       0.998383
    12099.213600       0.998061
    12113.870400       0.997710
    12128.562800       0.997332
    12143.290800       0.996927
    12158.054700       0.996494
    12172.854500       0.996035
    12187.690400       0.995549
    12202.562500       0.995037
    12217.471000       0.994498
    12232.415900       0.993935
    12247.397400       0.993345
    12262.415700       0.992731
    12277.470800       0.992092
    12292.563000       0.991428
    12307.692300       0.990741
    12322.858900       0.990029
    12338.062900       0.989293
    12353.304500       0.988534
    12368.583800       0.987752
    12383.900900       0.986946
    12399.256000       0.986118
    12414.649300       0.985268
    12430.080800       0.984396
    12445.550700       0.983501
    12461.059200       0.982585
    12476.606400       0.981647
    12492.192400       0.980688
    12507.817400       0.979709
    12523.481500       0.978708
    12539.185000       0.977687
    12554.927800       0.976646
    12570.710200       0.975584
    12586.532400       0.974503
    12602.394500       0.973402
    12618.296500       0.972282
    12634.238800       0.971142
    12650.221400       0.969984
    12666.244500       0.968807
    12682.308200       0.967611
    12698.412700       0.966397
    12714.558200       0.965165
    12730.744700       0.963914
    12746.972600       0.962646
    12763.241900       0.961361
    12779.552700       0.960058
    12795.905300       0.958737
    12812.299800       0.957400
    12828.736400       0.956046
    12845.215200       0.954675
    12861.736300       0.953288
    12878.300100       0.951884
    12894.906500       0.950464
    12911.555800       0.949028
    12928.248200       0.947576
    12944.983800       0.946109
    12961.762800       0.944626
    12978.585300       0.943127
    12995.451600       0.941614
    13012.361700       0.940085
    13029.316000       0.938541
    13046.314400       0.936982
    13063.357300       0.935409
    13080.444700       0.933821
    13097.576900       0.932219
    13114.754100       0.930603
    13131.976400       0.928972
    13149.243900       0.927327
    13166.556900       0.925669
    13183.915600       0.923996
    13201.320100       0.922311
    13218.770700       0.920611
    13236.267400       0.918898
    13253.810500       0.917172
    13271.400100       0.915432
    13289.036500       0.913680
    13306.719900       0.911914
    13324.450400       0.910136
    13342.228200       0.908345
    13360.053400       0.906541
    13377.926400       0.904724
    13395.847300       0.902895
    13413.816200       0.901054
    13431.833400       0.899200
    13449.899100       0.897334
    13468.013500       0.895456
    13486.176700       0.893566
    13504.388900       0.891664
    13522.650400       0.889751
    13540.961400       0.887825
    13559.322000       0.885888
    13577.732500       0.883939
    13596.193100       0.881978
    13614.703900       0.880006
    13633.265200       0.878023
    13651.877100       0.876028
    13670.540000       0.874022
    13689.253900       0.872005
    13708.019200       0.869977
    13726.836000       0.867938
    13745.704500       0.865888
    13764.624900       0.863827
    13783.597500       0.861755
    13802.622500       0.859672
    13821.700100       0.857579
    13840.830400       0.855475
    13860.013900       0.853360
    13879.250500       0.851235
    13898.540700       0.849100
    13917.884500       0.846954
    13937.282200       0.844798
    13956.734100       0.842632
    13976.240400       0.840455
    13995.801300       0.838269
    14015.417000       0.836072
    14035.087700       0.833865
    14054.813800       0.831648
    14074.595400       0.829422
    14094.432700       0.827185
    14114.326000       0.824939
    14134.275600       0.822683
    14154.281700       0.820418
    14174.344400       0.818143
    14194.464200       0.815858
    14214.641100       0.813564
    14234.875400       0.811261
    14255.167500       0.808948
    14275.517500       0.806626
    14295.925700       0.804294
    14316.392300       0.801954
    14336.917600       0.799604
    14357.501800       0.797246
    14378.145200       0.794878
    14398.848100       0.792502
    14419.610700       0.790116
    14440.433200       0.787722
    14461.316000       0.785319
    14482.259200       0.782908
    14503.263200       0.780487
    14524.328200       0.778059
    14545.454500       0.775622
    14566.642400       0.773176
    14587.892000       0.770722
    14609.203800       0.768260
    14630.577900       0.765790
    14652.014700       0.763312
    14673.514300       0.760826
    14695.077100       0.758331
    14716.703500       0.755829
    14738.393500       0.753319
    14760.147600       0.750801
    14781.966000       0.748276
    14803.849000       0.745743
    14825.796900       0.743203
    14847.809900       0.740655
    14869.888500       0.738100
    14892.032800       0.735538
    14914.243100       0.732968
    14936.519800       0.730391
    14958.863100       0.727808
    14981.273400       0.725217
    15003.750900       0.722620
    15026.296000       0.720016
    15048.909000       0.717406
    15071.590100       0.714789
    15094.339600       0.712165
    15117.158000       0.709535
    15140.045400       0.706899
    15163.002300       0.704257
    15186.028900       0.701609
    15209.125500       0.698954
    15232.292500       0.696294
    15255.530100       0.693628
    15278.838800       0.690957
    15302.218800       0.688280
    15325.670500       0.685598
    15349.194200       0.682910
    15372.790200       0.680218
    15396.458800       0.677520
    15420.200500       0.674817
    15444.015400       0.672109
    15467.904100       0.669397
    15491.866800       0.666680
    15515.903800       0.663958
    15540.015500       0.661232
    15564.202300       0.658502
    15588.464500       0.655768
    15612.802500       0.653030
    15637.216600       0.650288
    15661.707100       0.647542
    15686.274500       0.644793
    15710.919100       0.642040
    15735.641200       0.639283
    15760.441300       0.636524
    15785.319700       0.633761
    15810.276700       0.630996
    15835.312700       0.628227
    15860.428200       0.625456
    15885.623500       0.622682
    15910.899000       0.619906
    15936.255000       0.617128
    15961.691900       0.614347
    15987.210200       0.611565
    16012.810200       0.608780
    16038.492400       0.605994
    16064.257000       0.603206
    16090.104600       0.600417
    16116.035500       0.597627
    16142.050000       0.594835
    16168.148700       0.592043
    16194.332000       0.589249
    16220.600200       0.586455
    16246.953700       0.583660
    16273.393000       0.580865
    16299.918500       0.578070
    16326.530600       0.575274
    16353.229800       0.572479
    16380.016400       0.569683
    16406.890900       0.566888
    16433.853700       0.564094
    16460.905300       0.561300
    16488.046200       0.558507
    16515.276600       0.555714
    16542.597200       0.552923
    16570.008300       0.550133
    16597.510400       0.547345
    16625.103900       0.544557
    16652.789300       0.541772
    16680.567100       0.538988
    16708.437800       0.536207
    16736.401700       0.533427
    16764.459300       0.530650
    16792.611300       0.527875
    16820.857900       0.525102
    16849.199700       0.522333
    16877.637100       0.519566
    16906.170800       0.516802
    16934.801000       0.514041
    16963.528400       0.511284
    16992.353400       0.508530
    17021.276600       0.505779
    17050.298400       0.503032
    17079.419300       0.500289
    17108.639900       0.497550
    17137.960600       0.494815
    17167.382000       0.492084
    17196.904600       0.489358
    17226.528900       0.486636
    17256.255400       0.483918
    17286.084700       0.481205
    17316.017300       0.478498
    17346.053800       0.475795
    17376.194600       0.473097
    17406.440400       0.470405
    17436.791600       0.467718
    17467.248900       0.465036
    17497.812800       0.462360
    17528.483800       0.459690
    17559.262500       0.457025
    17590.149500       0.454366
    17621.145400       0.451714
    17652.250700       0.449067
    17683.466000       0.446427
    17714.791900       0.443793
    17746.228900       0.441165
    17777.777800       0.438544
    17809.439000       0.435930
    17841.213200       0.433322
    17873.101000       0.430721
    17905.103000       0.428127
    17937.219700       0.425539
    17969.451900       0.422959
    18001.800200       0.420386
    18034.265100       0.417820
    18066.847300       0.415261
    18099.547500       0.412709
    18132.366300       0.410165
    18165.304300       0.407628
    18198.362100       0.405099
    18231.540600       0.402577
    18264.840200       0.400062
    18298.261700       0.397555
    18331.805700       0.395056
    18365.472900       0.392564
    18399.264000       0.390080
    18433.179700       0.387604
    18467.220700       0.385136
    18501.387600       0.382675
    18535.681200       0.380222
    18570.102100       0.377777
    18604.651200       0.375339
    18639.329000       0.372909
    18674.136300       0.370487
    18709.073900       0.368073
    18744.142500       0.365667
    18779.342700       0.363268
    18814.675400       0.360877
    18850.141400       0.358494
    18885.741300       0.356118
    18921.475900       0.353750
    18957.346000       0.351390
    18993.352300       0.349037
    19029.495700       0.346692
    19065.776900       0.344354
    19102.196800       0.342024
    19138.756000       0.339701
    19175.455400       0.337386
    19212.295900       0.335077
    19249.278200       0.332776
    19286.403100       0.330482
    19323.671500       0.328195
    19361.084200       0.325914
    19398.642100       0.323641
    19436.346000       0.321374
    19474.196700       0.319114
    19512.195100       0.316861
    19550.342100       0.314614
    19588.638600       0.312373
    19627.085400       0.310139
    19665.683400       0.307910
    19704.433500       0.305688
    19743.336600       0.303471
    19782.393700       0.301261
    19821.605600       0.299055
    19860.973200       0.296855
    19900.497500       0.294661
    19940.179500       0.292471
    19980.020000       0.290287
    20020.020000       0.288107
    20060.180500       0.285932
    20100.502500       0.283761
    20140.986900       0.281595
    20181.634700       0.279433
    20222.446900       0.277275
    20263.424500       0.275120
    20304.568500       0.272970
    20345.880000       0.270822
    20387.359800       0.268678
    20429.009200       0.266537
    20470.829100       0.264398
    20512.820500       0.262263
    20554.984600       0.260129
    20597.322300       0.257998
    20639.834900       0.255869
    20682.523300       0.253742
    20725.388600       0.251616
    20768.432000       0.249491
    20811.654500       0.247368
    20855.057400       0.245246
    20898.641600       0.243124
    20942.408400       0.241003
    20986.358900       0.238882
    21030.494200       0.236760
    21074.815600       0.234639
    21119.324200       0.232517
    21164.021200       0.230395
    21208.907700       0.228271
    21253.985100       0.226147
    21299.254500       0.224021
    21344.717200       0.221893
    21390.374300       0.219763
    21436.227200       0.217631
    21482.277100       0.215497
    21528.525300       0.213360
    21574.973000       0.211221
    21621.621600       0.209078
    21668.472400       0.206932
    21715.526600       0.204782
    21762.785600       0.202629
    21810.250800       0.200472
    21857.923500       0.198310
    21905.805000       0.196144
    21953.896800       0.193973
    22002.200200       0.191797
    22050.716600       0.189616
    22099.447500       0.187430
    22148.394200       0.185238
    22197.558300       0.183041
    22246.941000       0.180837
    22296.544000       0.178627
    22346.368700       0.176411
    22396.416600       0.174188
    22446.689100       0.171959
    22497.187900       0.169722
    22547.914300       0.167479
    22598.870100       0.165228
    22650.056600       0.162970
    22701.475600       0.160704
    22753.128600       0.158430
    22805.017100       0.156149
    22857.142900       0.153859
    22909.507400       0.151562
    22962.112500       0.149256
    23014.959700       0.146942
    23068.050700       0.144619
    23121.387300       0.142288
    23174.971000       0.139948
    23228.803700       0.137600
    23282.887100       0.135243
    23337.222900       0.132877
    23391.812900       0.130502
    23446.658900       0.128119
    23501.762600       0.125727
    23557.126000       0.123326
    23612.750900       0.120916
    23668.639100       0.118497
    23724.792400       0.116070
    23781.212800       0.113634
    23837.902300       0.111190
    23894.862600       0.108737
    23952.095800       0.106276
    24009.603800       0.103807
    24067.388700       0.101330
    24125.452400       0.098845
    24183.796900       0.096352
    24242.424200       0.093852
    24301.336600       0.091345
    24360.535900       0.088831
    24420.024400       0.086310
    24479.804200       0.083782
    24539.877300       0.081249
    24600.246000       0.078710
    24660.912500       0.076165
    24721.878900       0.073616
    24783.147500       0.071061
    24844.720500       0.068503
    24906.600200       0.065941
    24968.789000       0.063376
    25031.289100       0.060808
    25094.102900       0.058238
    25157.232700       0.055666
    25220.681000       0.053094
    25284.450100       0.050521
    25348.542500       0.047948
    25412.960600       0.045377
    25477.707000       0.042807
