122,   122, MVIRI VIS channel from srf_MET7_2012303_2012304_1801-Release_S10EE_10.dat
Number of data points:
793
Wavenumber (cm-1)   Filter response
     8442.380800       0.000000
     8449.514200       0.000000
     8456.659600       0.000004
     8463.817200       0.000057
     8470.986900       0.000167
     8478.168700       0.000335
     8485.362700       0.000558
     8492.569000       0.000834
     8499.787500       0.001161
     8507.018300       0.001540
     8514.261400       0.001967
     8521.516800       0.002441
     8528.784600       0.002962
     8536.064900       0.003528
     8543.357500       0.004137
     8550.662700       0.004789
     8557.980300       0.005481
     8565.310500       0.006214
     8572.653200       0.006986
     8580.008600       0.007796
     8587.376600       0.008643
     8594.757200       0.009526
     8602.150500       0.010444
     8609.556600       0.011396
     8616.975400       0.012382
     8624.407100       0.013400
     8631.851500       0.014451
     8639.308900       0.015532
     8646.779100       0.016644
     8654.262200       0.017785
     8661.758300       0.018956
     8669.267400       0.020155
     8676.789600       0.021381
     8684.324800       0.022636
     8691.873100       0.023917
     8699.434500       0.025224
     8707.009100       0.026558
     8714.596900       0.027917
     8722.198000       0.029301
     8729.812300       0.030709
     8737.439900       0.032142
     8745.080900       0.033599
     8752.735200       0.035079
     8760.403000       0.036583
     8768.084200       0.038110
     8775.778900       0.039659
     8783.487000       0.041231
     8791.208800       0.042826
     8798.944100       0.044442
     8806.693100       0.046081
     8814.455700       0.047741
     8822.232000       0.049422
     8830.022100       0.051125
     8837.825900       0.052850
     8845.643500       0.054596
     8853.475000       0.056363
     8861.320300       0.058151
     8869.179600       0.059959
     8877.052800       0.061789
     8884.940000       0.063640
     8892.841300       0.065511
     8900.756600       0.067404
     8908.686000       0.069317
     8916.629500       0.071250
     8924.587200       0.073205
     8932.559200       0.075180
     8940.545400       0.077176
     8948.545900       0.079193
     8956.560700       0.081230
     8964.589900       0.083289
     8972.633500       0.085368
     8980.691500       0.087469
     8988.764000       0.089591
     8996.851100       0.091733
     9004.952700       0.093897
     9013.068900       0.096081
     9021.199800       0.098288
     9029.345400       0.100515
     9037.505600       0.102764
     9045.680700       0.105034
     9053.870500       0.107326
     9062.075200       0.109640
     9070.294800       0.111976
     9078.529300       0.114333
     9086.778700       0.116712
     9095.043200       0.119113
     9103.322700       0.121536
     9111.617300       0.123982
     9119.927000       0.126450
     9128.251900       0.128940
     9136.592100       0.131453
     9144.947400       0.133988
     9153.318100       0.136546
     9161.704100       0.139126
     9170.105500       0.141729
     9178.522300       0.144356
     9186.954500       0.147005
     9195.402300       0.149677
     9203.865600       0.152372
     9212.344500       0.155091
     9220.839100       0.157832
     9229.349300       0.160597
     9237.875300       0.163386
     9246.417000       0.166197
     9254.974500       0.169032
     9263.547900       0.171891
     9272.137200       0.174773
     9280.742500       0.177679
     9289.363700       0.180609
     9298.000900       0.183562
     9306.654300       0.186539
     9315.323700       0.189540
     9324.009300       0.192564
     9332.711200       0.195612
     9341.429200       0.198684
     9350.163600       0.201780
     9358.914400       0.204899
     9367.681500       0.208042
     9376.465100       0.211209
     9385.265100       0.214400
     9394.081700       0.217614
     9402.914900       0.220852
     9411.764700       0.224113
     9420.631200       0.227399
     9429.514400       0.230707
     9438.414300       0.234039
     9447.331100       0.237395
     9456.264800       0.240774
     9465.215300       0.244176
     9474.182900       0.247601
     9483.167400       0.251050
     9492.169000       0.254521
     9501.187600       0.258016
     9510.223500       0.261533
     9519.276500       0.265072
     9528.346800       0.268635
     9537.434400       0.272220
     9546.539400       0.275827
     9555.661700       0.279457
     9564.801500       0.283108
     9573.958800       0.286781
     9583.133700       0.290476
     9592.326100       0.294193
     9601.536200       0.297931
     9610.764100       0.301690
     9620.009600       0.305470
     9629.273000       0.309271
     9638.554200       0.313092
     9647.853400       0.316935
     9657.170400       0.320797
     9666.505600       0.324679
     9675.858700       0.328582
     9685.230000       0.332503
     9694.619500       0.336444
     9704.027200       0.340404
     9713.453100       0.344383
     9722.897400       0.348381
     9732.360100       0.352396
     9741.841200       0.356430
     9751.340800       0.360482
     9760.859000       0.364551
     9770.395700       0.368638
     9779.951100       0.372741
     9789.525200       0.376861
     9799.118100       0.380997
     9808.729800       0.385149
     9818.360300       0.389318
     9828.009800       0.393501
     9837.678300       0.397700
     9847.365800       0.401913
     9857.072400       0.406141
     9866.798200       0.410383
     9876.543200       0.414638
     9886.307500       0.418907
     9896.091000       0.423189
     9905.894000       0.427483
     9915.716400       0.431791
     9925.558300       0.436109
     9935.419800       0.440440
     9945.300800       0.444782
     9955.201600       0.449134
     9965.122100       0.453497
     9975.062300       0.457869
     9985.022500       0.462252
     9995.002500       0.466644
    10005.002500       0.471045
    10015.022500       0.475454
    10025.062700       0.479871
    10035.122900       0.484295
    10045.203400       0.488727
    10055.304200       0.493166
    10065.425300       0.497611
    10075.566800       0.502062
    10085.728700       0.506518
    10095.911200       0.510980
    10106.114200       0.515446
    10116.337900       0.519916
    10126.582300       0.524390
    10136.847400       0.528867
    10147.133400       0.533347
    10157.440300       0.537829
    10167.768200       0.542313
    10178.117000       0.546799
    10188.487000       0.551286
    10198.878100       0.555774
    10209.290500       0.560261
    10219.724100       0.564748
    10230.179000       0.569234
    10240.655400       0.573719
    10251.153300       0.578203
    10261.672700       0.582683
    10272.213700       0.587162
    10282.776300       0.591637
    10293.360800       0.596108
    10303.967000       0.600576
    10314.595200       0.605038
    10325.245200       0.609496
    10335.917300       0.613948
    10346.611500       0.618394
    10357.327800       0.622834
    10368.066400       0.627266
    10378.827200       0.631691
    10389.610400       0.636109
    10400.416000       0.640518
    10411.244100       0.644918
    10422.094800       0.649308
    10432.968200       0.653689
    10443.864200       0.658060
    10454.783100       0.662419
    10465.724800       0.666768
    10476.689400       0.671104
    10487.677000       0.675429
    10498.687700       0.679741
    10509.721500       0.684040
    10520.778500       0.688325
    10531.858900       0.692596
    10542.962600       0.696853
    10554.089700       0.701094
    10565.240400       0.705320
    10576.414600       0.709530
    10587.612500       0.713724
    10598.834100       0.717901
    10610.079600       0.722061
    10621.348900       0.726203
    10632.642200       0.730327
    10643.959600       0.734432
    10655.301000       0.738518
    10666.666700       0.742584
    10678.056600       0.746631
    10689.470900       0.750657
    10700.909600       0.754663
    10712.372800       0.758647
    10723.860600       0.762609
    10735.373100       0.766550
    10746.910300       0.770468
    10758.472300       0.774363
    10770.059200       0.778234
    10781.671200       0.782082
    10793.308100       0.785906
    10804.970300       0.789705
    10816.657700       0.793479
    10828.370300       0.797228
    10840.108400       0.800951
    10851.871900       0.804648
    10863.661100       0.808318
    10875.475800       0.811962
    10887.316300       0.815578
    10899.182600       0.819166
    10911.074700       0.822727
    10922.992900       0.826259
    10934.937100       0.829763
    10946.907500       0.833237
    10958.904100       0.836682
    10970.927000       0.840097
    10982.976400       0.843482
    10995.052200       0.846837
    11007.154700       0.850161
    11019.283700       0.853454
    11031.439600       0.856716
    11043.622300       0.859945
    11055.832000       0.863143
    11068.068600       0.866309
    11080.332400       0.869442
    11092.623400       0.872542
    11104.941700       0.875609
    11117.287400       0.878642
    11129.660500       0.881642
    11142.061300       0.884608
    11154.489700       0.887539
    11166.945800       0.890436
    11179.429800       0.893299
    11191.941800       0.896126
    11204.481800       0.898918
    11217.049900       0.901675
    11229.646300       0.904396
    11242.270900       0.907081
    11254.924000       0.909730
    11267.605600       0.912343
    11280.315800       0.914919
    11293.054800       0.917458
    11305.822500       0.919961
    11318.619100       0.922427
    11331.444800       0.924855
    11344.299500       0.927246
    11357.183400       0.929599
    11370.096600       0.931915
    11383.039300       0.934193
    11396.011400       0.936432
    11409.013100       0.938634
    11422.044500       0.940797
    11435.105800       0.942922
    11448.196900       0.945009
    11461.318100       0.947057
    11474.469300       0.949066
    11487.650800       0.951036
    11500.862600       0.952968
    11514.104800       0.954860
    11527.377500       0.956714
    11540.680900       0.958528
    11554.015000       0.960303
    11567.380000       0.962039
    11580.775900       0.963735
    11594.202900       0.965393
    11607.661100       0.967011
    11621.150500       0.968589
    11634.671300       0.970128
    11648.223600       0.971628
    11661.807600       0.973089
    11675.423200       0.974510
    11689.070700       0.975891
    11702.750100       0.977233
    11716.461600       0.978536
    11730.205300       0.979799
    11743.981200       0.981024
    11757.789500       0.982208
    11771.630400       0.983354
    11785.503800       0.984461
    11799.410000       0.985528
    11813.349100       0.986556
    11827.321100       0.987546
    11841.326200       0.988496
    11855.364600       0.989408
    11869.436200       0.990281
    11883.541300       0.991116
    11897.680000       0.991912
    11911.852300       0.992669
    11926.058400       0.993389
    11940.298500       0.994070
    11954.572600       0.994713
    11968.880900       0.995319
    11983.223500       0.995886
    11997.600500       0.996417
    12012.012000       0.996910
    12026.458200       0.997365
    12040.939200       0.997784
    12055.455100       0.998166
    12070.006000       0.998511
    12084.592100       0.998819
    12099.213600       0.999092
    12113.870400       0.999328
    12128.562800       0.999528
    12143.290800       0.999693
    12158.054700       0.999822
    12172.854500       0.999916
    12187.690400       0.999976
    12202.562500       1.000000
    12217.471000       0.999990
    12232.415900       0.999946
    12247.397400       0.999867
    12262.415700       0.999755
    12277.470800       0.999610
    12292.563000       0.999431
    12307.692300       0.999220
    12322.858900       0.998975
    12338.062900       0.998699
    12353.304500       0.998390
    12368.583800       0.998050
    12383.900900       0.997678
    12399.256000       0.997275
    12414.649300       0.996842
    12430.080800       0.996377
    12445.550700       0.995883
    12461.059200       0.995359
    12476.606400       0.994805
    12492.192400       0.994222
    12507.817400       0.993611
    12523.481500       0.992970
    12539.185000       0.992302
    12554.927800       0.991606
    12570.710200       0.990882
    12586.532400       0.990132
    12602.394500       0.989354
    12618.296500       0.988551
    12634.238800       0.987721
    12650.221400       0.986866
    12666.244500       0.985985
    12682.308200       0.985080
    12698.412700       0.984151
    12714.558200       0.983197
    12730.744700       0.982220
    12746.972600       0.981219
    12763.241900       0.980196
    12779.552700       0.979150
    12795.905300       0.978082
    12812.299800       0.976993
    12828.736400       0.975882
    12845.215200       0.974751
    12861.736300       0.973599
    12878.300100       0.972428
    12894.906500       0.971237
    12911.555800       0.970026
    12928.248200       0.968798
    12944.983800       0.967550
    12961.762800       0.966285
    12978.585300       0.965003
    12995.451600       0.963704
    13012.361700       0.962388
    13029.316000       0.961057
    13046.314400       0.959709
    13063.357300       0.958347
    13080.444700       0.956970
    13097.576900       0.955578
    13114.754100       0.954173
    13131.976400       0.952755
    13149.243900       0.951323
    13166.556900       0.949879
    13183.915600       0.948423
    13201.320100       0.946955
    13218.770700       0.945477
    13236.267400       0.943987
    13253.810500       0.942488
    13271.400100       0.940978
    13289.036500       0.939460
    13306.719900       0.937932
    13324.450400       0.936396
    13342.228200       0.934852
    13360.053400       0.933301
    13377.926400       0.931742
    13395.847300       0.930177
    13413.816200       0.928606
    13431.833400       0.927029
    13449.899100       0.925447
    13468.013500       0.923860
    13486.176700       0.922269
    13504.388900       0.920673
    13522.650400       0.919075
    13540.961400       0.917473
    13559.322000       0.915869
    13577.732500       0.914262
    13596.193100       0.912654
    13614.703900       0.911045
    13633.265200       0.909434
    13651.877100       0.907824
    13670.540000       0.906213
    13689.253900       0.904603
    13708.019200       0.902994
    13726.836000       0.901386
    13745.704500       0.899780
    13764.624900       0.898175
    13783.597500       0.896574
    13802.622500       0.894975
    13821.700100       0.893380
    13840.830400       0.891789
    13860.013900       0.890201
    13879.250500       0.888619
    13898.540700       0.887041
    13917.884500       0.885469
    13937.282200       0.883902
    13956.734100       0.882342
    13976.240400       0.880788
    13995.801300       0.879241
    14015.417000       0.877701
    14035.087700       0.876169
    14054.813800       0.874645
    14074.595400       0.873129
    14094.432700       0.871623
    14114.326000       0.870125
    14134.275600       0.868636
    14154.281700       0.867158
    14174.344400       0.865689
    14194.464200       0.864231
    14214.641100       0.862784
    14234.875400       0.861347
    14255.167500       0.859923
    14275.517500       0.858509
    14295.925700       0.857108
    14316.392300       0.855719
    14336.917600       0.854343
    14357.501800       0.852980
    14378.145200       0.851630
    14398.848100       0.850293
    14419.610700       0.848970
    14440.433200       0.847661
    14461.316000       0.846367
    14482.259200       0.845087
    14503.263200       0.843821
    14524.328200       0.842571
    14545.454500       0.841336
    14566.642400       0.840116
    14587.892000       0.838912
    14609.203800       0.837724
    14630.577900       0.836552
    14652.014700       0.835396
    14673.514300       0.834257
    14695.077100       0.833135
    14716.703500       0.832029
    14738.393500       0.830940
    14760.147600       0.829869
    14781.966000       0.828815
    14803.849000       0.827778
    14825.796900       0.826759
    14847.809900       0.825758
    14869.888500       0.824775
    14892.032800       0.823809
    14914.243100       0.822862
    14936.519800       0.821933
    14958.863100       0.821023
    14981.273400       0.820131
    15003.750900       0.819257
    15026.296000       0.818402
    15048.909000       0.817565
    15071.590100       0.816747
    15094.339600       0.815948
    15117.158000       0.815168
    15140.045400       0.814406
    15163.002300       0.813664
    15186.028900       0.812940
    15209.125500       0.812235
    15232.292500       0.811549
    15255.530100       0.810881
    15278.838800       0.810233
    15302.218800       0.809603
    15325.670500       0.808992
    15349.194200       0.808399
    15372.790200       0.807825
    15396.458800       0.807270
    15420.200500       0.806733
    15444.015400       0.806215
    15467.904100       0.805715
    15491.866800       0.805233
    15515.903800       0.804769
    15540.015500       0.804323
    15564.202300       0.803896
    15588.464500       0.803485
    15612.802500       0.803093
    15637.216600       0.802717
    15661.707100       0.802359
    15686.274500       0.802019
    15710.919100       0.801695
    15735.641200       0.801387
    15760.441300       0.801096
    15785.319700       0.800822
    15810.276700       0.800564
    15835.312700       0.800321
    15860.428200       0.800094
    15885.623500       0.799882
    15910.899000       0.799686
    15936.255000       0.799504
    15961.691900       0.799337
    15987.210200       0.799184
    16012.810200       0.799046
    16038.492400       0.798921
    16064.257000       0.798809
    16090.104600       0.798710
    16116.035500       0.798624
    16142.050000       0.798551
    16168.148700       0.798489
    16194.332000       0.798440
    16220.600200       0.798401
    16246.953700       0.798374
    16273.393000       0.798357
    16299.918500       0.798351
    16326.530600       0.798354
    16353.229800       0.798366
    16380.016400       0.798388
    16406.890900       0.798418
    16433.853700       0.798457
    16460.905300       0.798503
    16488.046200       0.798556
    16515.276600       0.798616
    16542.597200       0.798682
    16570.008300       0.798754
    16597.510400       0.798832
    16625.103900       0.798914
    16652.789300       0.799001
    16680.567100       0.799092
    16708.437800       0.799186
    16736.401700       0.799283
    16764.459300       0.799382
    16792.611300       0.799483
    16820.857900       0.799585
    16849.199700       0.799687
    16877.637100       0.799790
    16906.170800       0.799893
    16934.801000       0.799994
    16963.528400       0.800094
    16992.353400       0.800192
    17021.276600       0.800287
    17050.298400       0.800378
    17079.419300       0.800466
    17108.639900       0.800548
    17137.960600       0.800626
    17167.382000       0.800698
    17196.904600       0.800763
    17226.528900       0.800821
    17256.255400       0.800872
    17286.084700       0.800914
    17316.017300       0.800946
    17346.053800       0.800970
    17376.194600       0.800982
    17406.440400       0.800984
    17436.791600       0.800974
    17467.248900       0.800951
    17497.812800       0.800916
    17528.483800       0.800866
    17559.262500       0.800802
    17590.149500       0.800723
    17621.145400       0.800628
    17652.250700       0.800516
    17683.466000       0.800387
    17714.791900       0.800240
    17746.228900       0.800075
    17777.777800       0.799889
    17809.439000       0.799684
    17841.213200       0.799457
    17873.101000       0.799209
    17905.103000       0.798939
    17937.219700       0.798645
    17969.451900       0.798328
    18001.800200       0.797986
    18034.265100       0.797618
    18066.847300       0.797225
    18099.547500       0.796805
    18132.366300       0.796357
    18165.304300       0.795880
    18198.362100       0.795375
    18231.540600       0.794840
    18264.840200       0.794274
    18298.261700       0.793678
    18331.805700       0.793049
    18365.472900       0.792387
    18399.264000       0.791692
    18433.179700       0.790962
    18467.220700       0.790197
    18501.387600       0.789397
    18535.681200       0.788560
    18570.102100       0.787686
    18604.651200       0.786774
    18639.329000       0.785823
    18674.136300       0.784833
    18709.073900       0.783803
    18744.142500       0.782732
    18779.342700       0.781619
    18814.675400       0.780464
    18850.141400       0.779266
    18885.741300       0.778024
    18921.475900       0.776738
    18957.346000       0.775406
    18993.352300       0.774029
    19029.495700       0.772605
    19065.776900       0.771134
    19102.196800       0.769615
    19138.756000       0.768048
    19175.455400       0.766431
    19212.295900       0.764765
    19249.278200       0.763048
    19286.403100       0.761280
    19323.671500       0.759460
    19361.084200       0.757588
    19398.642100       0.755663
    19436.346000       0.753684
    19474.196700       0.751651
    19512.195100       0.749564
    19550.342100       0.747421
    19588.638600       0.745222
    19627.085400       0.742966
    19665.683400       0.740654
    19704.433500       0.738284
    19743.336600       0.735856
    19782.393700       0.733369
    19821.605600       0.730823
    19860.973200       0.728218
    19900.497500       0.725552
    19940.179500       0.722827
    19980.020000       0.720040
    20020.020000       0.717192
    20060.180500       0.714282
    20100.502500       0.711310
    20140.986900       0.708275
    20181.634700       0.705177
    20222.446900       0.702017
    20263.424500       0.698792
    20304.568500       0.695504
    20345.880000       0.692151
    20387.359800       0.688734
    20429.009200       0.685253
    20470.829100       0.681706
    20512.820500       0.678094
    20554.984600       0.674416
    20597.322300       0.670673
    20639.834900       0.666864
    20682.523300       0.662989
    20725.388600       0.659048
    20768.432000       0.655041
    20811.654500       0.650968
    20855.057400       0.646829
    20898.641600       0.642623
    20942.408400       0.638350
    20986.358900       0.634012
    21030.494200       0.629607
    21074.815600       0.625136
    21119.324200       0.620599
    21164.021200       0.615995
    21208.907700       0.611326
    21253.985100       0.606591
    21299.254500       0.601790
    21344.717200       0.596924
    21390.374300       0.591994
    21436.227200       0.586998
    21482.277100       0.581938
    21528.525300       0.576813
    21574.973000       0.571625
    21621.621600       0.566373
    21668.472400       0.561059
    21715.526600       0.555682
    21762.785600       0.550242
    21810.250800       0.544742
    21857.923500       0.539180
    21905.805000       0.533558
    21953.896800       0.527876
    22002.200200       0.522135
    22050.716600       0.516335
    22099.447500       0.510478
    22148.394200       0.504564
    22197.558300       0.498594
    22246.941000       0.492568
    22296.544000       0.486488
    22346.368700       0.480354
    22396.416600       0.474168
    22446.689100       0.467930
    22497.187900       0.461641
    22547.914300       0.455304
    22598.870100       0.448917
    22650.056600       0.442483
    22701.475600       0.436003
    22753.128600       0.429478
    22805.017100       0.422910
    22857.142900       0.416299
    22909.507400       0.409648
    22962.112500       0.402956
    23014.959700       0.396227
    23068.050700       0.389461
    23121.387300       0.382660
    23174.971000       0.375825
    23228.803700       0.368959
    23282.887100       0.362063
    23337.222900       0.355138
    23391.812900       0.348186
    23446.658900       0.341209
    23501.762600       0.334210
    23557.126000       0.327189
    23612.750900       0.320149
    23668.639100       0.313092
    23724.792400       0.306020
    23781.212800       0.298936
    23837.902300       0.291840
    23894.862600       0.284736
    23952.095800       0.277626
    24009.603800       0.270512
    24067.388700       0.263396
    24125.452400       0.256282
    24183.796900       0.249171
    24242.424200       0.242066
    24301.336600       0.234970
    24360.535900       0.227886
    24420.024400       0.220815
    24479.804200       0.213762
    24539.877300       0.206728
    24600.246000       0.199717
    24660.912500       0.192732
    24721.878900       0.185775
    24783.147500       0.178850
    24844.720500       0.171961
    24906.600200       0.165109
    24968.789000       0.158299
    25031.289100       0.151534
    25094.102900       0.144818
    25157.232700       0.138153
    25220.681000       0.131544
    25284.450100       0.124993
    25348.542500       0.118506
    25412.960600       0.112084
    25477.707000       0.105734
