69,   69, MVIRI VIS channel from srf_MET2_1990258_1990259_1801-Release_S10EL_10.dat
Number of data points:
730
Wavenumber (cm-1)   Filter response
     8916.629500       0.000000
     8924.587200       0.000000
     8932.559200       0.000002
     8940.545400       0.000012
     8948.545900       0.000033
     8956.560700       0.000070
     8964.589900       0.000128
     8972.633500       0.000211
     8980.691500       0.000323
     8988.764000       0.000467
     8996.851100       0.000649
     9004.952700       0.000870
     9013.068900       0.001135
     9021.199800       0.001446
     9029.345400       0.001807
     9037.505600       0.002221
     9045.680700       0.002691
     9053.870500       0.003218
     9062.075200       0.003807
     9070.294800       0.004458
     9078.529300       0.005175
     9086.778700       0.005959
     9095.043200       0.006813
     9103.322700       0.007738
     9111.617300       0.008736
     9119.927000       0.009809
     9128.251900       0.010958
     9136.592100       0.012185
     9144.947400       0.013490
     9153.318100       0.014876
     9161.704100       0.016344
     9170.105500       0.017893
     9178.522300       0.019526
     9186.954500       0.021243
     9195.402300       0.023045
     9203.865600       0.024932
     9212.344500       0.026905
     9220.839100       0.028965
     9229.349300       0.031112
     9237.875300       0.033345
     9246.417000       0.035666
     9254.974500       0.038075
     9263.547900       0.040571
     9272.137200       0.043155
     9280.742500       0.045826
     9289.363700       0.048585
     9298.000900       0.051431
     9306.654300       0.054364
     9315.323700       0.057384
     9324.009300       0.060491
     9332.711200       0.063683
     9341.429200       0.066960
     9350.163600       0.070323
     9358.914400       0.073770
     9367.681500       0.077301
     9376.465100       0.080915
     9385.265100       0.084611
     9394.081700       0.088388
     9402.914900       0.092246
     9411.764700       0.096185
     9420.631200       0.100203
     9429.514400       0.104298
     9438.414300       0.108471
     9447.331100       0.112720
     9456.264800       0.117044
     9465.215300       0.121442
     9474.182900       0.125913
     9483.167400       0.130456
     9492.169000       0.135070
     9501.187600       0.139754
     9510.223500       0.144506
     9519.276500       0.149325
     9528.346800       0.154210
     9537.434400       0.159160
     9546.539400       0.164173
     9555.661700       0.169248
     9564.801500       0.174384
     9573.958800       0.179580
     9583.133700       0.184834
     9592.326100       0.190144
     9601.536200       0.195510
     9610.764100       0.200930
     9620.009600       0.206403
     9629.273000       0.211927
     9638.554200       0.217500
     9647.853400       0.223123
     9657.170400       0.228791
     9666.505600       0.234506
     9675.858700       0.240265
     9685.230000       0.246067
     9694.619500       0.251910
     9704.027200       0.257792
     9713.453100       0.263713
     9722.897400       0.269671
     9732.360100       0.275664
     9741.841200       0.281691
     9751.340800       0.287750
     9760.859000       0.293841
     9770.395700       0.299962
     9779.951100       0.306110
     9789.525200       0.312286
     9799.118100       0.318486
     9808.729800       0.324710
     9818.360300       0.330958
     9828.009800       0.337225
     9837.678300       0.343513
     9847.365800       0.349819
     9857.072400       0.356140
     9866.798200       0.362478
     9876.543200       0.368830
     9886.307500       0.375194
     9896.091000       0.381570
     9905.894000       0.387955
     9915.716400       0.394349
     9925.558300       0.400750
     9935.419800       0.407157
     9945.300800       0.413569
     9955.201600       0.419984
     9965.122100       0.426401
     9975.062300       0.432818
     9985.022500       0.439235
     9995.002500       0.445650
    10005.002500       0.452062
    10015.022500       0.458469
    10025.062700       0.464871
    10035.122900       0.471266
    10045.203400       0.477653
    10055.304200       0.484032
    10065.425300       0.490399
    10075.566800       0.496756
    10085.728700       0.503099
    10095.911200       0.509430
    10106.114200       0.515745
    10116.337900       0.522044
    10126.582300       0.528327
    10136.847400       0.534591
    10147.133400       0.540837
    10157.440300       0.547063
    10167.768200       0.553267
    10178.117000       0.559449
    10188.487000       0.565609
    10198.878100       0.571744
    10209.290500       0.577855
    10219.724100       0.583940
    10230.179000       0.589998
    10240.655400       0.596028
    10251.153300       0.602030
    10261.672700       0.608003
    10272.213700       0.613945
    10282.776300       0.619857
    10293.360800       0.625736
    10303.967000       0.631583
    10314.595200       0.637397
    10325.245200       0.643176
    10335.917300       0.648921
    10346.611500       0.654631
    10357.327800       0.660303
    10368.066400       0.665939
    10378.827200       0.671537
    10389.610400       0.677098
    10400.416000       0.682619
    10411.244100       0.688100
    10422.094800       0.693542
    10432.968200       0.698942
    10443.864200       0.704302
    10454.783100       0.709619
    10465.724800       0.714895
    10476.689400       0.720127
    10487.677000       0.725316
    10498.687700       0.730461
    10509.721500       0.735561
    10520.778500       0.740617
    10531.858900       0.745628
    10542.962600       0.750593
    10554.089700       0.755512
    10565.240400       0.760384
    10576.414600       0.765209
    10587.612500       0.769987
    10598.834100       0.774718
    10610.079600       0.779401
    10621.348900       0.784035
    10632.642200       0.788621
    10643.959600       0.793159
    10655.301000       0.797647
    10666.666700       0.802086
    10678.056600       0.806475
    10689.470900       0.810814
    10700.909600       0.815103
    10712.372800       0.819342
    10723.860600       0.823531
    10735.373100       0.827669
    10746.910300       0.831756
    10758.472300       0.835793
    10770.059200       0.839778
    10781.671200       0.843712
    10793.308100       0.847594
    10804.970300       0.851426
    10816.657700       0.855206
    10828.370300       0.858934
    10840.108400       0.862610
    10851.871900       0.866235
    10863.661100       0.869809
    10875.475800       0.873330
    10887.316300       0.876800
    10899.182600       0.880217
    10911.074700       0.883583
    10922.992900       0.886898
    10934.937100       0.890160
    10946.907500       0.893371
    10958.904100       0.896530
    10970.927000       0.899638
    10982.976400       0.902694
    10995.052200       0.905698
    11007.154700       0.908651
    11019.283700       0.911553
    11031.439600       0.914403
    11043.622300       0.917203
    11055.832000       0.919951
    11068.068600       0.922649
    11080.332400       0.925296
    11092.623400       0.927892
    11104.941700       0.930438
    11117.287400       0.932933
    11129.660500       0.935379
    11142.061300       0.937775
    11154.489700       0.940120
    11166.945800       0.942417
    11179.429800       0.944663
    11191.941800       0.946861
    11204.481800       0.949010
    11217.049900       0.951110
    11229.646300       0.953162
    11242.270900       0.955165
    11254.924000       0.957120
    11267.605600       0.959027
    11280.315800       0.960887
    11293.054800       0.962699
    11305.822500       0.964465
    11318.619100       0.966183
    11331.444800       0.967855
    11344.299500       0.969480
    11357.183400       0.971060
    11370.096600       0.972594
    11383.039300       0.974082
    11396.011400       0.975525
    11409.013100       0.976924
    11422.044500       0.978277
    11435.105800       0.979586
    11448.196900       0.980852
    11461.318100       0.982073
    11474.469300       0.983251
    11487.650800       0.984386
    11500.862600       0.985479
    11514.104800       0.986528
    11527.377500       0.987536
    11540.680900       0.988502
    11554.015000       0.989426
    11567.380000       0.990309
    11580.775900       0.991151
    11594.202900       0.991953
    11607.661100       0.992714
    11621.150500       0.993435
    11634.671300       0.994117
    11648.223600       0.994760
    11661.807600       0.995363
    11675.423200       0.995928
    11689.070700       0.996455
    11702.750100       0.996944
    11716.461600       0.997395
    11730.205300       0.997809
    11743.981200       0.998186
    11757.789500       0.998527
    11771.630400       0.998831
    11785.503800       0.999099
    11799.410000       0.999332
    11813.349100       0.999529
    11827.321100       0.999692
    11841.326200       0.999820
    11855.364600       0.999914
    11869.436200       0.999974
    11883.541300       1.000000
    11897.680000       0.999993
    11911.852300       0.999953
    11926.058400       0.999881
    11940.298500       0.999776
    11954.572600       0.999639
    11968.880900       0.999471
    11983.223500       0.999272
    11997.600500       0.999041
    12012.012000       0.998780
    12026.458200       0.998489
    12040.939200       0.998167
    12055.455100       0.997816
    12070.006000       0.997436
    12084.592100       0.997027
    12099.213600       0.996588
    12113.870400       0.996122
    12128.562800       0.995627
    12143.290800       0.995104
    12158.054700       0.994554
    12172.854500       0.993977
    12187.690400       0.993373
    12202.562500       0.992742
    12217.471000       0.992085
    12232.415900       0.991402
    12247.397400       0.990693
    12262.415700       0.989959
    12277.470800       0.989200
    12292.563000       0.988416
    12307.692300       0.987607
    12322.858900       0.986773
    12338.062900       0.985916
    12353.304500       0.985035
    12368.583800       0.984131
    12383.900900       0.983203
    12399.256000       0.982252
    12414.649300       0.981279
    12430.080800       0.980283
    12445.550700       0.979265
    12461.059200       0.978225
    12476.606400       0.977163
    12492.192400       0.976080
    12507.817400       0.974975
    12523.481500       0.973850
    12539.185000       0.972703
    12554.927800       0.971537
    12570.710200       0.970350
    12586.532400       0.969143
    12602.394500       0.967916
    12618.296500       0.966670
    12634.238800       0.965404
    12650.221400       0.964119
    12666.244500       0.962815
    12682.308200       0.961492
    12698.412700       0.960151
    12714.558200       0.958791
    12730.744700       0.957414
    12746.972600       0.956018
    12763.241900       0.954605
    12779.552700       0.953174
    12795.905300       0.951726
    12812.299800       0.950260
    12828.736400       0.948778
    12845.215200       0.947279
    12861.736300       0.945763
    12878.300100       0.944230
    12894.906500       0.942682
    12911.555800       0.941117
    12928.248200       0.939537
    12944.983800       0.937940
    12961.762800       0.936328
    12978.585300       0.934701
    12995.451600       0.933058
    13012.361700       0.931400
    13029.316000       0.929727
    13046.314400       0.928039
    13063.357300       0.926336
    13080.444700       0.924619
    13097.576900       0.922887
    13114.754100       0.921142
    13131.976400       0.919381
    13149.243900       0.917607
    13166.556900       0.915819
    13183.915600       0.914018
    13201.320100       0.912202
    13218.770700       0.910373
    13236.267400       0.908531
    13253.810500       0.906675
    13271.400100       0.904806
    13289.036500       0.902924
    13306.719900       0.901030
    13324.450400       0.899122
    13342.228200       0.897201
    13360.053400       0.895268
    13377.926400       0.893323
    13395.847300       0.891365
    13413.816200       0.889395
    13431.833400       0.887412
    13449.899100       0.885418
    13468.013500       0.883411
    13486.176700       0.881392
    13504.388900       0.879362
    13522.650400       0.877320
    13540.961400       0.875266
    13559.322000       0.873201
    13577.732500       0.871124
    13596.193100       0.869035
    13614.703900       0.866936
    13633.265200       0.864825
    13651.877100       0.862703
    13670.540000       0.860570
    13689.253900       0.858426
    13708.019200       0.856271
    13726.836000       0.854105
    13745.704500       0.851929
    13764.624900       0.849741
    13783.597500       0.847544
    13802.622500       0.845335
    13821.700100       0.843117
    13840.830400       0.840887
    13860.013900       0.838648
    13879.250500       0.836398
    13898.540700       0.834138
    13917.884500       0.831868
    13937.282200       0.829588
    13956.734100       0.827298
    13976.240400       0.824998
    13995.801300       0.822688
    14015.417000       0.820368
    14035.087700       0.818039
    14054.813800       0.815700
    14074.595400       0.813351
    14094.432700       0.810993
    14114.326000       0.808626
    14134.275600       0.806249
    14154.281700       0.803863
    14174.344400       0.801468
    14194.464200       0.799063
    14214.641100       0.796650
    14234.875400       0.794227
    14255.167500       0.791795
    14275.517500       0.789355
    14295.925700       0.786906
    14316.392300       0.784448
    14336.917600       0.781981
    14357.501800       0.779506
    14378.145200       0.777022
    14398.848100       0.774530
    14419.610700       0.772029
    14440.433200       0.769520
    14461.316000       0.767002
    14482.259200       0.764477
    14503.263200       0.761943
    14524.328200       0.759402
    14545.454500       0.756852
    14566.642400       0.754295
    14587.892000       0.751729
    14609.203800       0.749156
    14630.577900       0.746576
    14652.014700       0.743988
    14673.514300       0.741392
    14695.077100       0.738789
    14716.703500       0.736178
    14738.393500       0.733561
    14760.147600       0.730936
    14781.966000       0.728304
    14803.849000       0.725665
    14825.796900       0.723020
    14847.809900       0.720367
    14869.888500       0.717708
    14892.032800       0.715042
    14914.243100       0.712370
    14936.519800       0.709691
    14958.863100       0.707006
    14981.273400       0.704315
    15003.750900       0.701617
    15026.296000       0.698914
    15048.909000       0.696204
    15071.590100       0.693489
    15094.339600       0.690768
    15117.158000       0.688041
    15140.045400       0.685309
    15163.002300       0.682571
    15186.028900       0.679828
    15209.125500       0.677080
    15232.292500       0.674327
    15255.530100       0.671569
    15278.838800       0.668806
    15302.218800       0.666038
    15325.670500       0.663265
    15349.194200       0.660488
    15372.790200       0.657707
    15396.458800       0.654921
    15420.200500       0.652131
    15444.015400       0.649337
    15467.904100       0.646539
    15491.866800       0.643737
    15515.903800       0.640932
    15540.015500       0.638123
    15564.202300       0.635310
    15588.464500       0.632495
    15612.802500       0.629676
    15637.216600       0.626854
    15661.707100       0.624029
    15686.274500       0.621202
    15710.919100       0.618371
    15735.641200       0.615539
    15760.441300       0.612704
    15785.319700       0.609866
    15810.276700       0.607027
    15835.312700       0.604186
    15860.428200       0.601342
    15885.623500       0.598497
    15910.899000       0.595651
    15936.255000       0.592803
    15961.691900       0.589954
    15987.210200       0.587104
    16012.810200       0.584253
    16038.492400       0.581401
    16064.257000       0.578549
    16090.104600       0.575696
    16116.035500       0.572842
    16142.050000       0.569988
    16168.148700       0.567134
    16194.332000       0.564281
    16220.600200       0.561427
    16246.953700       0.558574
    16273.393000       0.555722
    16299.918500       0.552870
    16326.530600       0.550018
    16353.229800       0.547168
    16380.016400       0.544319
    16406.890900       0.541471
    16433.853700       0.538625
    16460.905300       0.535780
    16488.046200       0.532937
    16515.276600       0.530096
    16542.597200       0.527257
    16570.008300       0.524420
    16597.510400       0.521585
    16625.103900       0.518752
    16652.789300       0.515923
    16680.567100       0.513096
    16708.437800       0.510272
    16736.401700       0.507451
    16764.459300       0.504633
    16792.611300       0.501819
    16820.857900       0.499008
    16849.199700       0.496201
    16877.637100       0.493397
    16906.170800       0.490597
    16934.801000       0.487802
    16963.528400       0.485011
    16992.353400       0.482224
    17021.276600       0.479441
    17050.298400       0.476663
    17079.419300       0.473890
    17108.639900       0.471122
    17137.960600       0.468359
    17167.382000       0.465600
    17196.904600       0.462848
    17226.528900       0.460100
    17256.255400       0.457358
    17286.084700       0.454622
    17316.017300       0.451892
    17346.053800       0.449167
    17376.194600       0.446449
    17406.440400       0.443737
    17436.791600       0.441030
    17467.248900       0.438331
    17497.812800       0.435637
    17528.483800       0.432951
    17559.262500       0.430271
    17590.149500       0.427598
    17621.145400       0.424932
    17652.250700       0.422272
    17683.466000       0.419620
    17714.791900       0.416975
    17746.228900       0.414338
    17777.777800       0.411708
    17809.439000       0.409085
    17841.213200       0.406470
    17873.101000       0.403862
    17905.103000       0.401262
    17937.219700       0.398670
    17969.451900       0.396086
    18001.800200       0.393510
    18034.265100       0.390942
    18066.847300       0.388382
    18099.547500       0.385830
    18132.366300       0.383286
    18165.304300       0.380750
    18198.362100       0.378223
    18231.540600       0.375704
    18264.840200       0.373193
    18298.261700       0.370691
    18331.805700       0.368197
    18365.472900       0.365712
    18399.264000       0.363235
    18433.179700       0.360767
    18467.220700       0.358307
    18501.387600       0.355856
    18535.681200       0.353414
    18570.102100       0.350980
    18604.651200       0.348554
    18639.329000       0.346138
    18674.136300       0.343730
    18709.073900       0.341330
    18744.142500       0.338940
    18779.342700       0.336557
    18814.675400       0.334184
    18850.141400       0.331819
    18885.741300       0.329462
    18921.475900       0.327114
    18957.346000       0.324774
    18993.352300       0.322443
    19029.495700       0.320120
    19065.776900       0.317806
    19102.196800       0.315500
    19138.756000       0.313202
    19175.455400       0.310912
    19212.295900       0.308631
    19249.278200       0.306358
    19286.403100       0.304092
    19323.671500       0.301835
    19361.084200       0.299585
    19398.642100       0.297343
    19436.346000       0.295109
    19474.196700       0.292882
    19512.195100       0.290663
    19550.342100       0.288451
    19588.638600       0.286247
    19627.085400       0.284050
    19665.683400       0.281860
    19704.433500       0.279677
    19743.336600       0.277501
    19782.393700       0.275331
    19821.605600       0.273168
    19860.973200       0.271012
    19900.497500       0.268862
    19940.179500       0.266718
    19980.020000       0.264581
    20020.020000       0.262449
    20060.180500       0.260323
    20100.502500       0.258203
    20140.986900       0.256088
    20181.634700       0.253979
    20222.446900       0.251875
    20263.424500       0.249776
    20304.568500       0.247682
    20345.880000       0.245593
    20387.359800       0.243508
    20429.009200       0.241427
    20470.829100       0.239351
    20512.820500       0.237279
    20554.984600       0.235211
    20597.322300       0.233146
    20639.834900       0.231085
    20682.523300       0.229027
    20725.388600       0.226973
    20768.432000       0.224921
    20811.654500       0.222872
    20855.057400       0.220826
    20898.641600       0.218782
    20942.408400       0.216740
    20986.358900       0.214700
    21030.494200       0.212662
    21074.815600       0.210625
    21119.324200       0.208590
    21164.021200       0.206557
    21208.907700       0.204524
    21253.985100       0.202492
    21299.254500       0.200460
    21344.717200       0.198429
    21390.374300       0.196399
    21436.227200       0.194368
    21482.277100       0.192337
    21528.525300       0.190306
    21574.973000       0.188274
    21621.621600       0.186241
    21668.472400       0.184208
    21715.526600       0.182173
    21762.785600       0.180137
    21810.250800       0.178100
    21857.923500       0.176060
    21905.805000       0.174019
    21953.896800       0.171976
    22002.200200       0.169931
    22050.716600       0.167883
    22099.447500       0.165833
    22148.394200       0.163780
    22197.558300       0.161724
    22246.941000       0.159665
    22296.544000       0.157603
    22346.368700       0.155538
    22396.416600       0.153469
    22446.689100       0.151397
    22497.187900       0.149321
    22547.914300       0.147241
    22598.870100       0.145157
    22650.056600       0.143069
    22701.475600       0.140976
    22753.128600       0.138880
    22805.017100       0.136779
    22857.142900       0.134674
    22909.507400       0.132564
    22962.112500       0.130449
    23014.959700       0.128330
    23068.050700       0.126206
    23121.387300       0.124078
    23174.971000       0.121944
    23228.803700       0.119806
    23282.887100       0.117663
    23337.222900       0.115516
    23391.812900       0.113363
    23446.658900       0.111206
    23501.762600       0.109044
    23557.126000       0.106877
    23612.750900       0.104705
    23668.639100       0.102530
    23724.792400       0.100349
    23781.212800       0.098164
    23837.902300       0.095975
    23894.862600       0.093782
    23952.095800       0.091585
    24009.603800       0.089384
    24067.388700       0.087179
    24125.452400       0.084971
    24183.796900       0.082759
    24242.424200       0.080544
    24301.336600       0.078327
    24360.535900       0.076106
    24420.024400       0.073884
    24479.804200       0.071660
    24539.877300       0.069433
    24600.246000       0.067206
    24660.912500       0.064977
    24721.878900       0.062747
    24783.147500       0.060517
    24844.720500       0.058288
    24906.600200       0.056058
    24968.789000       0.053830
    25031.289100       0.051603
    25094.102900       0.049378
    25157.232700       0.047155
    25220.681000       0.044936
    25284.450100       0.042719
    25348.542500       0.040507
    25412.960600       0.038300
    25477.707000       0.036097
