117,   117, MVIRI VIS channel from srf_MET7_2012078_2012079_1801-Release_S10EE_10.dat
Number of data points:
793
Wavenumber (cm-1)   Filter response
     8442.380800       0.000000
     8449.514200       0.000000
     8456.659600       0.000004
     8463.817200       0.000057
     8470.986900       0.000167
     8478.168700       0.000334
     8485.362700       0.000557
     8492.569000       0.000832
     8499.787500       0.001159
     8507.018300       0.001537
     8514.261400       0.001963
     8521.516800       0.002437
     8528.784600       0.002957
     8536.064900       0.003521
     8543.357500       0.004129
     8550.662700       0.004780
     8557.980300       0.005471
     8565.310500       0.006203
     8572.653200       0.006974
     8580.008600       0.007782
     8587.376600       0.008627
     8594.757200       0.009509
     8602.150500       0.010425
     8609.556600       0.011376
     8616.975400       0.012360
     8624.407100       0.013376
     8631.851500       0.014425
     8639.308900       0.015504
     8646.779100       0.016614
     8654.262200       0.017753
     8661.758300       0.018922
     8669.267400       0.020119
     8676.789600       0.021344
     8684.324800       0.022596
     8691.873100       0.023875
     8699.434500       0.025180
     8707.009100       0.026511
     8714.596900       0.027868
     8722.198000       0.029249
     8729.812300       0.030655
     8737.439900       0.032086
     8745.080900       0.033540
     8752.735200       0.035018
     8760.403000       0.036519
     8768.084200       0.038044
     8775.778900       0.039591
     8783.487000       0.041160
     8791.208800       0.042752
     8798.944100       0.044366
     8806.693100       0.046002
     8814.455700       0.047659
     8822.232000       0.049338
     8830.022100       0.051039
     8837.825900       0.052760
     8845.643500       0.054503
     8853.475000       0.056267
     8861.320300       0.058052
     8869.179600       0.059858
     8877.052800       0.061685
     8884.940000       0.063533
     8892.841300       0.065402
     8900.756600       0.067291
     8908.686000       0.069201
     8916.629500       0.071132
     8924.587200       0.073083
     8932.559200       0.075055
     8940.545400       0.077049
     8948.545900       0.079063
     8956.560700       0.081097
     8964.589900       0.083153
     8972.633500       0.085229
     8980.691500       0.087326
     8988.764000       0.089445
     8996.851100       0.091584
     9004.952700       0.093745
     9013.068900       0.095926
     9021.199800       0.098129
     9029.345400       0.100354
     9037.505600       0.102599
     9045.680700       0.104866
     9053.870500       0.107155
     9062.075200       0.109465
     9070.294800       0.111798
     9078.529300       0.114152
     9086.778700       0.116528
     9095.043200       0.118926
     9103.322700       0.121345
     9111.617300       0.123788
     9119.927000       0.126252
     9128.251900       0.128739
     9136.592100       0.131248
     9144.947400       0.133780
     9153.318100       0.136334
     9161.704100       0.138911
     9170.105500       0.141511
     9178.522300       0.144134
     9186.954500       0.146779
     9195.402300       0.149448
     9203.865600       0.152140
     9212.344500       0.154855
     9220.839100       0.157593
     9229.349300       0.160354
     9237.875300       0.163139
     9246.417000       0.165947
     9254.974500       0.168779
     9263.547900       0.171634
     9272.137200       0.174513
     9280.742500       0.177415
     9289.363700       0.180341
     9298.000900       0.183291
     9306.654300       0.186264
     9315.323700       0.189261
     9324.009300       0.192282
     9332.711200       0.195327
     9341.429200       0.198395
     9350.163600       0.201487
     9358.914400       0.204602
     9367.681500       0.207742
     9376.465100       0.210905
     9385.265100       0.214092
     9394.081700       0.217303
     9402.914900       0.220537
     9411.764700       0.223795
     9420.631200       0.227076
     9429.514400       0.230381
     9438.414300       0.233710
     9447.331100       0.237061
     9456.264800       0.240437
     9465.215300       0.243835
     9474.182900       0.247257
     9483.167400       0.250701
     9492.169000       0.254169
     9501.187600       0.257660
     9510.223500       0.261173
     9519.276500       0.264709
     9528.346800       0.268268
     9537.434400       0.271850
     9546.539400       0.275453
     9555.661700       0.279079
     9564.801500       0.282726
     9573.958800       0.286396
     9583.133700       0.290088
     9592.326100       0.293800
     9601.536200       0.297535
     9610.764100       0.301290
     9620.009600       0.305067
     9629.273000       0.308864
     9638.554200       0.312682
     9647.853400       0.316521
     9657.170400       0.320379
     9666.505600       0.324258
     9675.858700       0.328157
     9685.230000       0.332075
     9694.619500       0.336013
     9704.027200       0.339969
     9713.453100       0.343945
     9722.897400       0.347939
     9732.360100       0.351951
     9741.841200       0.355981
     9751.340800       0.360029
     9760.859000       0.364095
     9770.395700       0.368179
     9779.951100       0.372278
     9789.525200       0.376395
     9799.118100       0.380528
     9808.729800       0.384677
     9818.360300       0.388842
     9828.009800       0.393022
     9837.678300       0.397218
     9847.365800       0.401428
     9857.072400       0.405652
     9866.798200       0.409891
     9876.543200       0.414143
     9886.307500       0.418410
     9896.091000       0.422689
     9905.894000       0.426980
     9915.716400       0.431284
     9925.558300       0.435600
     9935.419800       0.439928
     9945.300800       0.444267
     9955.201600       0.448616
     9965.122100       0.452976
     9975.062300       0.457346
     9985.022500       0.461726
     9995.002500       0.466116
    10005.002500       0.470514
    10015.022500       0.474920
    10025.062700       0.479334
    10035.122900       0.483757
    10045.203400       0.488186
    10055.304200       0.492622
    10065.425300       0.497065
    10075.566800       0.501513
    10085.728700       0.505967
    10095.911200       0.510427
    10106.114200       0.514890
    10116.337900       0.519358
    10126.582300       0.523830
    10136.847400       0.528305
    10147.133400       0.532784
    10157.440300       0.537264
    10167.768200       0.541746
    10178.117000       0.546230
    10188.487000       0.550715
    10198.878100       0.555201
    10209.290500       0.559687
    10219.724100       0.564172
    10230.179000       0.568657
    10240.655400       0.573141
    10251.153300       0.577622
    10261.672700       0.582102
    10272.213700       0.586579
    10282.776300       0.591052
    10293.360800       0.595523
    10303.967000       0.599989
    10314.595200       0.604451
    10325.245200       0.608907
    10335.917300       0.613358
    10346.611500       0.617804
    10357.327800       0.622242
    10368.066400       0.626674
    10378.827200       0.631098
    10389.610400       0.635515
    10400.416000       0.639923
    10411.244100       0.644323
    10422.094800       0.648713
    10432.968200       0.653093
    10443.864200       0.657464
    10454.783100       0.661823
    10465.724800       0.666171
    10476.689400       0.670508
    10487.677000       0.674833
    10498.687700       0.679144
    10509.721500       0.683443
    10520.778500       0.687728
    10531.858900       0.692000
    10542.962600       0.696257
    10554.089700       0.700499
    10565.240400       0.704725
    10576.414600       0.708936
    10587.612500       0.713130
    10598.834100       0.717308
    10610.079600       0.721468
    10621.348900       0.725611
    10632.642200       0.729735
    10643.959600       0.733842
    10655.301000       0.737929
    10666.666700       0.741996
    10678.056600       0.746044
    10689.470900       0.750072
    10700.909600       0.754078
    10712.372800       0.758064
    10723.860600       0.762028
    10735.373100       0.765970
    10746.910300       0.769889
    10758.472300       0.773786
    10770.059200       0.777659
    10781.671200       0.781509
    10793.308100       0.785334
    10804.970300       0.789136
    10816.657700       0.792912
    10828.370300       0.796662
    10840.108400       0.800388
    10851.871900       0.804087
    10863.661100       0.807760
    10875.475800       0.811405
    10887.316300       0.815024
    10899.182600       0.818615
    10911.074700       0.822179
    10922.992900       0.825713
    10934.937100       0.829220
    10946.907500       0.832697
    10958.904100       0.836145
    10970.927000       0.839563
    10982.976400       0.842951
    10995.052200       0.846309
    11007.154700       0.849636
    11019.283700       0.852933
    11031.439600       0.856198
    11043.622300       0.859431
    11055.832000       0.862632
    11068.068600       0.865801
    11080.332400       0.868938
    11092.623400       0.872042
    11104.941700       0.875112
    11117.287400       0.878150
    11129.660500       0.881153
    11142.061300       0.884123
    11154.489700       0.887059
    11166.945800       0.889960
    11179.429800       0.892827
    11191.941800       0.895658
    11204.481800       0.898455
    11217.049900       0.901216
    11229.646300       0.903941
    11242.270900       0.906631
    11254.924000       0.909285
    11267.605600       0.911902
    11280.315800       0.914483
    11293.054800       0.917027
    11305.822500       0.919535
    11318.619100       0.922005
    11331.444800       0.924439
    11344.299500       0.926835
    11357.183400       0.929193
    11370.096600       0.931514
    11383.039300       0.933797
    11396.011400       0.936042
    11409.013100       0.938249
    11422.044500       0.940418
    11435.105800       0.942549
    11448.196900       0.944641
    11461.318100       0.946694
    11474.469300       0.948709
    11487.650800       0.950685
    11500.862600       0.952622
    11514.104800       0.954520
    11527.377500       0.956380
    11540.680900       0.958200
    11554.015000       0.959981
    11567.380000       0.961723
    11580.775900       0.963426
    11594.202900       0.965089
    11607.661100       0.966713
    11621.150500       0.968298
    11634.671300       0.969844
    11648.223600       0.971350
    11661.807600       0.972817
    11675.423200       0.974244
    11689.070700       0.975632
    11702.750100       0.976981
    11716.461600       0.978290
    11730.205300       0.979560
    11743.981200       0.980791
    11757.789500       0.981983
    11771.630400       0.983135
    11785.503800       0.984248
    11799.410000       0.985323
    11813.349100       0.986358
    11827.321100       0.987354
    11841.326200       0.988312
    11855.364600       0.989231
    11869.436200       0.990111
    11883.541300       0.990952
    11897.680000       0.991755
    11911.852300       0.992520
    11926.058400       0.993247
    11940.298500       0.993935
    11954.572600       0.994586
    11968.880900       0.995199
    11983.223500       0.995774
    11997.600500       0.996311
    12012.012000       0.996811
    12026.458200       0.997274
    12040.939200       0.997701
    12055.455100       0.998090
    12070.006000       0.998442
    12084.592100       0.998758
    12099.213600       0.999038
    12113.870400       0.999282
    12128.562800       0.999490
    12143.290800       0.999662
    12158.054700       0.999799
    12172.854500       0.999901
    12187.690400       0.999968
    12202.562500       1.000000
    12217.471000       0.999998
    12232.415900       0.999961
    12247.397400       0.999890
    12262.415700       0.999786
    12277.470800       0.999648
    12292.563000       0.999478
    12307.692300       0.999274
    12322.858900       0.999037
    12338.062900       0.998769
    12353.304500       0.998468
    12368.583800       0.998135
    12383.900900       0.997772
    12399.256000       0.997377
    12414.649300       0.996951
    12430.080800       0.996494
    12445.550700       0.996008
    12461.059200       0.995492
    12476.606400       0.994946
    12492.192400       0.994371
    12507.817400       0.993767
    12523.481500       0.993135
    12539.185000       0.992474
    12554.927800       0.991786
    12570.710200       0.991070
    12586.532400       0.990328
    12602.394500       0.989558
    12618.296500       0.988762
    12634.238800       0.987941
    12650.221400       0.987093
    12666.244500       0.986221
    12682.308200       0.985324
    12698.412700       0.984402
    12714.558200       0.983456
    12730.744700       0.982487
    12746.972600       0.981494
    12763.241900       0.980479
    12779.552700       0.979441
    12795.905300       0.978381
    12812.299800       0.977300
    12828.736400       0.976197
    12845.215200       0.975074
    12861.736300       0.973930
    12878.300100       0.972766
    12894.906500       0.971583
    12911.555800       0.970380
    12928.248200       0.969159
    12944.983800       0.967920
    12961.762800       0.966663
    12978.585300       0.965389
    12995.451600       0.964097
    13012.361700       0.962789
    13029.316000       0.961465
    13046.314400       0.960126
    13063.357300       0.958771
    13080.444700       0.957402
    13097.576900       0.956018
    13114.754100       0.954621
    13131.976400       0.953210
    13149.243900       0.951786
    13166.556900       0.950350
    13183.915600       0.948901
    13201.320100       0.947441
    13218.770700       0.945970
    13236.267400       0.944488
    13253.810500       0.942996
    13271.400100       0.941495
    13289.036500       0.939984
    13306.719900       0.938464
    13324.450400       0.936935
    13342.228200       0.935399
    13360.053400       0.933855
    13377.926400       0.932304
    13395.847300       0.930747
    13413.816200       0.929183
    13431.833400       0.927614
    13449.899100       0.926039
    13468.013500       0.924460
    13486.176700       0.922876
    13504.388900       0.921288
    13522.650400       0.919697
    13540.961400       0.918102
    13559.322000       0.916506
    13577.732500       0.914907
    13596.193100       0.913306
    13614.703900       0.911704
    13633.265200       0.910101
    13651.877100       0.908498
    13670.540000       0.906894
    13689.253900       0.905292
    13708.019200       0.903690
    13726.836000       0.902089
    13745.704500       0.900490
    13764.624900       0.898893
    13783.597500       0.897299
    13802.622500       0.895708
    13821.700100       0.894120
    13840.830400       0.892536
    13860.013900       0.890956
    13879.250500       0.889380
    13898.540700       0.887810
    13917.884500       0.886245
    13937.282200       0.884686
    13956.734100       0.883132
    13976.240400       0.881586
    13995.801300       0.880046
    14015.417000       0.878514
    14035.087700       0.876989
    14054.813800       0.875472
    14074.595400       0.873964
    14094.432700       0.872464
    14114.326000       0.870973
    14134.275600       0.869492
    14154.281700       0.868021
    14174.344400       0.866559
    14194.464200       0.865109
    14214.641100       0.863668
    14234.875400       0.862239
    14255.167500       0.860822
    14275.517500       0.859416
    14295.925700       0.858022
    14316.392300       0.856640
    14336.917600       0.855272
    14357.501800       0.853916
    14378.145200       0.852573
    14398.848100       0.851243
    14419.610700       0.849928
    14440.433200       0.848626
    14461.316000       0.847339
    14482.259200       0.846066
    14503.263200       0.844808
    14524.328200       0.843565
    14545.454500       0.842337
    14566.642400       0.841125
    14587.892000       0.839928
    14609.203800       0.838748
    14630.577900       0.837583
    14652.014700       0.836435
    14673.514300       0.835303
    14695.077100       0.834188
    14716.703500       0.833090
    14738.393500       0.832009
    14760.147600       0.830945
    14781.966000       0.829898
    14803.849000       0.828869
    14825.796900       0.827858
    14847.809900       0.826864
    14869.888500       0.825889
    14892.032800       0.824931
    14914.243100       0.823991
    14936.519800       0.823070
    14958.863100       0.822167
    14981.273400       0.821283
    15003.750900       0.820417
    15026.296000       0.819570
    15048.909000       0.818741
    15071.590100       0.817931
    15094.339600       0.817140
    15117.158000       0.816368
    15140.045400       0.815614
    15163.002300       0.814879
    15186.028900       0.814164
    15209.125500       0.813467
    15232.292500       0.812788
    15255.530100       0.812129
    15278.838800       0.811489
    15302.218800       0.810867
    15325.670500       0.810264
    15349.194200       0.809680
    15372.790200       0.809115
    15396.458800       0.808568
    15420.200500       0.808039
    15444.015400       0.807529
    15467.904100       0.807038
    15491.866800       0.806565
    15515.903800       0.806109
    15540.015500       0.805672
    15564.202300       0.805253
    15588.464500       0.804851
    15612.802500       0.804468
    15637.216600       0.804101
    15661.707100       0.803752
    15686.274500       0.803420
    15710.919100       0.803105
    15735.641200       0.802806
    15760.441300       0.802525
    15785.319700       0.802259
    15810.276700       0.802010
    15835.312700       0.801776
    15860.428200       0.801559
    15885.623500       0.801356
    15910.899000       0.801169
    15936.255000       0.800997
    15961.691900       0.800839
    15987.210200       0.800696
    16012.810200       0.800566
    16038.492400       0.800451
    16064.257000       0.800348
    16090.104600       0.800259
    16116.035500       0.800183
    16142.050000       0.800119
    16168.148700       0.800068
    16194.332000       0.800028
    16220.600200       0.799999
    16246.953700       0.799982
    16273.393000       0.799975
    16299.918500       0.799978
    16326.530600       0.799991
    16353.229800       0.800014
    16380.016400       0.800046
    16406.890900       0.800086
    16433.853700       0.800135
    16460.905300       0.800191
    16488.046200       0.800254
    16515.276600       0.800325
    16542.597200       0.800401
    16570.008300       0.800484
    16597.510400       0.800572
    16625.103900       0.800665
    16652.789300       0.800762
    16680.567100       0.800863
    16708.437800       0.800967
    16736.401700       0.801075
    16764.459300       0.801185
    16792.611300       0.801296
    16820.857900       0.801409
    16849.199700       0.801523
    16877.637100       0.801636
    16906.170800       0.801749
    16934.801000       0.801862
    16963.528400       0.801972
    16992.353400       0.802081
    17021.276600       0.802186
    17050.298400       0.802289
    17079.419300       0.802387
    17108.639900       0.802481
    17137.960600       0.802569
    17167.382000       0.802652
    17196.904600       0.802728
    17226.528900       0.802797
    17256.255400       0.802859
    17286.084700       0.802912
    17316.017300       0.802955
    17346.053800       0.802990
    17376.194600       0.803013
    17406.440400       0.803026
    17436.791600       0.803027
    17467.248900       0.803015
    17497.812800       0.802991
    17528.483800       0.802952
    17559.262500       0.802899
    17590.149500       0.802831
    17621.145400       0.802747
    17652.250700       0.802646
    17683.466000       0.802528
    17714.791900       0.802391
    17746.228900       0.802236
    17777.777800       0.802062
    17809.439000       0.801867
    17841.213200       0.801651
    17873.101000       0.801414
    17905.103000       0.801154
    17937.219700       0.800871
    17969.451900       0.800564
    18001.800200       0.800232
    18034.265100       0.799875
    18066.847300       0.799492
    18099.547500       0.799082
    18132.366300       0.798645
    18165.304300       0.798179
    18198.362100       0.797683
    18231.540600       0.797158
    18264.840200       0.796603
    18298.261700       0.796016
    18331.805700       0.795396
    18365.472900       0.794744
    18399.264000       0.794059
    18433.179700       0.793339
    18467.220700       0.792583
    18501.387600       0.791792
    18535.681200       0.790965
    18570.102100       0.790100
    18604.651200       0.789197
    18639.329000       0.788255
    18674.136300       0.787273
    18709.073900       0.786251
    18744.142500       0.785189
    18779.342700       0.784084
    18814.675400       0.782937
    18850.141400       0.781747
    18885.741300       0.780513
    18921.475900       0.779235
    18957.346000       0.777911
    18993.352300       0.776541
    19029.495700       0.775125
    19065.776900       0.773661
    19102.196800       0.772149
    19138.756000       0.770588
    19175.455400       0.768978
    19212.295900       0.767318
    19249.278200       0.765607
    19286.403100       0.763845
    19323.671500       0.762031
    19361.084200       0.760165
    19398.642100       0.758245
    19436.346000       0.756271
    19474.196700       0.754243
    19512.195100       0.752160
    19550.342100       0.750022
    19588.638600       0.747827
    19627.085400       0.745576
    19665.683400       0.743267
    19704.433500       0.740900
    19743.336600       0.738475
    19782.393700       0.735992
    19821.605600       0.733448
    19860.973200       0.730845
    19900.497500       0.728182
    19940.179500       0.725458
    19980.020000       0.722673
    20020.020000       0.719826
    20060.180500       0.716917
    20100.502500       0.713946
    20140.986900       0.710912
    20181.634700       0.707814
    20222.446900       0.704653
    20263.424500       0.701428
    20304.568500       0.698139
    20345.880000       0.694785
    20387.359800       0.691367
    20429.009200       0.687883
    20470.829100       0.684334
    20512.820500       0.680720
    20554.984600       0.677039
    20597.322300       0.673293
    20639.834900       0.669481
    20682.523300       0.665602
    20725.388600       0.661657
    20768.432000       0.657645
    20811.654500       0.653567
    20855.057400       0.649421
    20898.641600       0.645210
    20942.408400       0.640931
    20986.358900       0.636586
    21030.494200       0.632174
    21074.815600       0.627696
    21119.324200       0.623151
    21164.021200       0.618539
    21208.907700       0.613861
    21253.985100       0.609117
    21299.254500       0.604307
    21344.717200       0.599431
    21390.374300       0.594490
    21436.227200       0.589484
    21482.277100       0.584412
    21528.525300       0.579276
    21574.973000       0.574076
    21621.621600       0.568812
    21668.472400       0.563485
    21715.526600       0.558094
    21762.785600       0.552641
    21810.250800       0.547126
    21857.923500       0.541550
    21905.805000       0.535913
    21953.896800       0.530215
    22002.200200       0.524458
    22050.716600       0.518643
    22099.447500       0.512768
    22148.394200       0.506837
    22197.558300       0.500849
    22246.941000       0.494805
    22296.544000       0.488706
    22346.368700       0.482554
    22396.416600       0.476348
    22446.689100       0.470090
    22497.187900       0.463781
    22547.914300       0.457422
    22598.870100       0.451014
    22650.056600       0.444559
    22701.475600       0.438056
    22753.128600       0.431509
    22805.017100       0.424917
    22857.142900       0.418283
    22909.507400       0.411608
    22962.112500       0.404892
    23014.959700       0.398138
    23068.050700       0.391347
    23121.387300       0.384520
    23174.971000       0.377660
    23228.803700       0.370767
    23282.887100       0.363844
    23337.222900       0.356891
    23391.812900       0.349912
    23446.658900       0.342907
    23501.762600       0.335880
    23557.126000       0.328830
    23612.750900       0.321761
    23668.639100       0.314675
    23724.792400       0.307573
    23781.212800       0.300458
    23837.902300       0.293333
    23894.862600       0.286198
    23952.095800       0.279057
    24009.603800       0.271912
    24067.388700       0.264764
    24125.452400       0.257618
    24183.796900       0.250475
    24242.424200       0.243338
    24301.336600       0.236210
    24360.535900       0.229092
    24420.024400       0.221989
    24479.804200       0.214902
    24539.877300       0.207835
    24600.246000       0.200791
    24660.912500       0.193771
    24721.878900       0.186781
    24783.147500       0.179823
    24844.720500       0.172899
    24906.600200       0.166014
    24968.789000       0.159170
    25031.289100       0.152371
    25094.102900       0.145620
    25157.232700       0.138921
    25220.681000       0.132278
    25284.450100       0.125694
    25348.542500       0.119172
    25412.960600       0.112717
    25477.707000       0.106333
