40,   40, MVIRI VIS channel from srf_MET2_1987033_1987034_1801-Release_S10EL_10.dat
Number of data points:
730
Wavenumber (cm-1)   Filter response
     8916.629500       0.000000
     8924.587200       0.000000
     8932.559200       0.000002
     8940.545400       0.000011
     8948.545900       0.000032
     8956.560700       0.000069
     8964.589900       0.000126
     8972.633500       0.000208
     8980.691500       0.000319
     8988.764000       0.000461
     8996.851100       0.000640
     9004.952700       0.000859
     9013.068900       0.001120
     9021.199800       0.001428
     9029.345400       0.001785
     9037.505600       0.002193
     9045.680700       0.002657
     9053.870500       0.003178
     9062.075200       0.003759
     9070.294800       0.004403
     9078.529300       0.005111
     9086.778700       0.005885
     9095.043200       0.006729
     9103.322700       0.007642
     9111.617300       0.008628
     9119.927000       0.009688
     9128.251900       0.010823
     9136.592100       0.012036
     9144.947400       0.013326
     9153.318100       0.014695
     9161.704100       0.016145
     9170.105500       0.017676
     9178.522300       0.019290
     9186.954500       0.020986
     9195.402300       0.022767
     9203.865600       0.024632
     9212.344500       0.026582
     9220.839100       0.028618
     9229.349300       0.030739
     9237.875300       0.032947
     9246.417000       0.035241
     9254.974500       0.037622
     9263.547900       0.040090
     9272.137200       0.042644
     9280.742500       0.045285
     9289.363700       0.048013
     9298.000900       0.050827
     9306.654300       0.053727
     9315.323700       0.056713
     9324.009300       0.059785
     9332.711200       0.062941
     9341.429200       0.066183
     9350.163600       0.069508
     9358.914400       0.072917
     9367.681500       0.076409
     9376.465100       0.079984
     9385.265100       0.083640
     9394.081700       0.087377
     9402.914900       0.091193
     9411.764700       0.095090
     9420.631200       0.099064
     9429.514400       0.103116
     9438.414300       0.107245
     9447.331100       0.111449
     9456.264800       0.115728
     9465.215300       0.120080
     9474.182900       0.124505
     9483.167400       0.129001
     9492.169000       0.133567
     9501.187600       0.138203
     9510.223500       0.142907
     9519.276500       0.147676
     9528.346800       0.152513
     9537.434400       0.157413
     9546.539400       0.162376
     9555.661700       0.167401
     9564.801500       0.172486
     9573.958800       0.177631
     9583.133700       0.182834
     9592.326100       0.188092
     9601.536200       0.193407
     9610.764100       0.198774
     9620.009600       0.204195
     9629.273000       0.209667
     9638.554200       0.215188
     9647.853400       0.220758
     9657.170400       0.226374
     9666.505600       0.232036
     9675.858700       0.237743
     9685.230000       0.243491
     9694.619500       0.249281
     9704.027200       0.255111
     9713.453100       0.260979
     9722.897400       0.266884
     9732.360100       0.272824
     9741.841200       0.278799
     9751.340800       0.284806
     9760.859000       0.290845
     9770.395700       0.296913
     9779.951100       0.303010
     9789.525200       0.309134
     9799.118100       0.315283
     9808.729800       0.321456
     9818.360300       0.327652
     9828.009800       0.333868
     9837.678300       0.340106
     9847.365800       0.346362
     9857.072400       0.352634
     9866.798200       0.358923
     9876.543200       0.365225
     9886.307500       0.371541
     9896.091000       0.377869
     9905.894000       0.384206
     9915.716400       0.390553
     9925.558300       0.396907
     9935.419800       0.403268
     9945.300800       0.409634
     9955.201600       0.416004
     9965.122100       0.422376
     9975.062300       0.428749
     9985.022500       0.435122
     9995.002500       0.441495
    10005.002500       0.447864
    10015.022500       0.454230
    10025.062700       0.460590
    10035.122900       0.466945
    10045.203400       0.473292
    10055.304200       0.479632
    10065.425300       0.485961
    10075.566800       0.492280
    10085.728700       0.498586
    10095.911200       0.504881
    10106.114200       0.511160
    10116.337900       0.517425
    10126.582300       0.523673
    10136.847400       0.529905
    10147.133400       0.536118
    10157.440300       0.542312
    10167.768200       0.548486
    10178.117000       0.554638
    10188.487000       0.560768
    10198.878100       0.566876
    10209.290500       0.572959
    10219.724100       0.579017
    10230.179000       0.585049
    10240.655400       0.591055
    10251.153300       0.597033
    10261.672700       0.602982
    10272.213700       0.608902
    10282.776300       0.614792
    10293.360800       0.620652
    10303.967000       0.626479
    10314.595200       0.632274
    10325.245200       0.638036
    10335.917300       0.643764
    10346.611500       0.649458
    10357.327800       0.655116
    10368.066400       0.660737
    10378.827200       0.666323
    10389.610400       0.671871
    10400.416000       0.677381
    10411.244100       0.682853
    10422.094800       0.688285
    10432.968200       0.693677
    10443.864200       0.699030
    10454.783100       0.704341
    10465.724800       0.709611
    10476.689400       0.714839
    10487.677000       0.720025
    10498.687700       0.725168
    10509.721500       0.730267
    10520.778500       0.735323
    10531.858900       0.740334
    10542.962600       0.745301
    10554.089700       0.750223
    10565.240400       0.755099
    10576.414600       0.759929
    10587.612500       0.764713
    10598.834100       0.769450
    10610.079600       0.774141
    10621.348900       0.778784
    10632.642200       0.783380
    10643.959600       0.787928
    10655.301000       0.792427
    10666.666700       0.796879
    10678.056600       0.801282
    10689.470900       0.805635
    10700.909600       0.809941
    10712.372800       0.814196
    10723.860600       0.818402
    10735.373100       0.822559
    10746.910300       0.826666
    10758.472300       0.830722
    10770.059200       0.834729
    10781.671200       0.838685
    10793.308100       0.842591
    10804.970300       0.846447
    10816.657700       0.850252
    10828.370300       0.854006
    10840.108400       0.857710
    10851.871900       0.861363
    10863.661100       0.864965
    10875.475800       0.868516
    10887.316300       0.872017
    10899.182600       0.875466
    10911.074700       0.878865
    10922.992900       0.882213
    10934.937100       0.885510
    10946.907500       0.888756
    10958.904100       0.891951
    10970.927000       0.895096
    10982.976400       0.898190
    10995.052200       0.901233
    11007.154700       0.904226
    11019.283700       0.907168
    11031.439600       0.910060
    11043.622300       0.912902
    11055.832000       0.915694
    11068.068600       0.918435
    11080.332400       0.921127
    11092.623400       0.923769
    11104.941700       0.926361
    11117.287400       0.928904
    11129.660500       0.931398
    11142.061300       0.933843
    11154.489700       0.936238
    11166.945800       0.938585
    11179.429800       0.940883
    11191.941800       0.943133
    11204.481800       0.945334
    11217.049900       0.947488
    11229.646300       0.949594
    11242.270900       0.951652
    11254.924000       0.953663
    11267.605600       0.955627
    11280.315800       0.957544
    11293.054800       0.959414
    11305.822500       0.961238
    11318.619100       0.963016
    11331.444800       0.964748
    11344.299500       0.966434
    11357.183400       0.968075
    11370.096600       0.969671
    11383.039300       0.971222
    11396.011400       0.972729
    11409.013100       0.974191
    11422.044500       0.975610
    11435.105800       0.976984
    11448.196900       0.978316
    11461.318100       0.979604
    11474.469300       0.980849
    11487.650800       0.982052
    11500.862600       0.983213
    11514.104800       0.984332
    11527.377500       0.985409
    11540.680900       0.986445
    11554.015000       0.987440
    11567.380000       0.988395
    11580.775900       0.989309
    11594.202900       0.990183
    11607.661100       0.991017
    11621.150500       0.991812
    11634.671300       0.992568
    11648.223600       0.993285
    11661.807600       0.993964
    11675.423200       0.994605
    11689.070700       0.995208
    11702.750100       0.995773
    11716.461600       0.996302
    11730.205300       0.996793
    11743.981200       0.997249
    11757.789500       0.997668
    11771.630400       0.998051
    11785.503800       0.998399
    11799.410000       0.998712
    11813.349100       0.998990
    11827.321100       0.999233
    11841.326200       0.999443
    11855.364600       0.999618
    11869.436200       0.999760
    11883.541300       0.999869
    11897.680000       0.999945
    11911.852300       0.999989
    11926.058400       1.000000
    11940.298500       0.999979
    11954.572600       0.999927
    11968.880900       0.999844
    11983.223500       0.999730
    11997.600500       0.999585
    12012.012000       0.999410
    12026.458200       0.999205
    12040.939200       0.998970
    12055.455100       0.998706
    12070.006000       0.998413
    12084.592100       0.998092
    12099.213600       0.997742
    12113.870400       0.997363
    12128.562800       0.996957
    12143.290800       0.996524
    12158.054700       0.996063
    12172.854500       0.995575
    12187.690400       0.995061
    12202.562500       0.994520
    12217.471000       0.993954
    12232.415900       0.993361
    12247.397400       0.992744
    12262.415700       0.992101
    12277.470800       0.991433
    12292.563000       0.990740
    12307.692300       0.990023
    12322.858900       0.989282
    12338.062900       0.988517
    12353.304500       0.987729
    12368.583800       0.986917
    12383.900900       0.986083
    12399.256000       0.985225
    12414.649300       0.984345
    12430.080800       0.983443
    12445.550700       0.982519
    12461.059200       0.981573
    12476.606400       0.980606
    12492.192400       0.979617
    12507.817400       0.978607
    12523.481500       0.977577
    12539.185000       0.976526
    12554.927800       0.975454
    12570.710200       0.974362
    12586.532400       0.973251
    12602.394500       0.972120
    12618.296500       0.970969
    12634.238800       0.969799
    12650.221400       0.968611
    12666.244500       0.967403
    12682.308200       0.966177
    12698.412700       0.964932
    12714.558200       0.963669
    12730.744700       0.962388
    12746.972600       0.961089
    12763.241900       0.959773
    12779.552700       0.958439
    12795.905300       0.957088
    12812.299800       0.955720
    12828.736400       0.954335
    12845.215200       0.952933
    12861.736300       0.951515
    12878.300100       0.950080
    12894.906500       0.948629
    12911.555800       0.947162
    12928.248200       0.945679
    12944.983800       0.944181
    12961.762800       0.942667
    12978.585300       0.941137
    12995.451600       0.939592
    13012.361700       0.938032
    13029.316000       0.936457
    13046.314400       0.934867
    13063.357300       0.933263
    13080.444700       0.931644
    13097.576900       0.930010
    13114.754100       0.928363
    13131.976400       0.926701
    13149.243900       0.925025
    13166.556900       0.923335
    13183.915600       0.921632
    13201.320100       0.919914
    13218.770700       0.918184
    13236.267400       0.916439
    13253.810500       0.914682
    13271.400100       0.912911
    13289.036500       0.911127
    13306.719900       0.909330
    13324.450400       0.907521
    13342.228200       0.905698
    13360.053400       0.903863
    13377.926400       0.902015
    13395.847300       0.900155
    13413.816200       0.898283
    13431.833400       0.896398
    13449.899100       0.894501
    13468.013500       0.892591
    13486.176700       0.890670
    13504.388900       0.888737
    13522.650400       0.886792
    13540.961400       0.884836
    13559.322000       0.882867
    13577.732500       0.880887
    13596.193100       0.878896
    13614.703900       0.876893
    13633.265200       0.874879
    13651.877100       0.872853
    13670.540000       0.870816
    13689.253900       0.868768
    13708.019200       0.866709
    13726.836000       0.864639
    13745.704500       0.862559
    13764.624900       0.860467
    13783.597500       0.858364
    13802.622500       0.856251
    13821.700100       0.854127
    13840.830400       0.851993
    13860.013900       0.849848
    13879.250500       0.847693
    13898.540700       0.845527
    13917.884500       0.843351
    13937.282200       0.841164
    13956.734100       0.838968
    13976.240400       0.836761
    13995.801300       0.834545
    14015.417000       0.832318
    14035.087700       0.830081
    14054.813800       0.827835
    14074.595400       0.825579
    14094.432700       0.823313
    14114.326000       0.821037
    14134.275600       0.818751
    14154.281700       0.816457
    14174.344400       0.814152
    14194.464200       0.811838
    14214.641100       0.809515
    14234.875400       0.807182
    14255.167500       0.804841
    14275.517500       0.802489
    14295.925700       0.800129
    14316.392300       0.797760
    14336.917600       0.795382
    14357.501800       0.792995
    14378.145200       0.790599
    14398.848100       0.788194
    14419.610700       0.785780
    14440.433200       0.783358
    14461.316000       0.780927
    14482.259200       0.778487
    14503.263200       0.776039
    14524.328200       0.773583
    14545.454500       0.771118
    14566.642400       0.768645
    14587.892000       0.766164
    14609.203800       0.763675
    14630.577900       0.761177
    14652.014700       0.758672
    14673.514300       0.756159
    14695.077100       0.753638
    14716.703500       0.751109
    14738.393500       0.748573
    14760.147600       0.746029
    14781.966000       0.743477
    14803.849000       0.740918
    14825.796900       0.738352
    14847.809900       0.735778
    14869.888500       0.733197
    14892.032800       0.730609
    14914.243100       0.728014
    14936.519800       0.725413
    14958.863100       0.722804
    14981.273400       0.720189
    15003.750900       0.717566
    15026.296000       0.714938
    15048.909000       0.712303
    15071.590100       0.709661
    15094.339600       0.707014
    15117.158000       0.704360
    15140.045400       0.701700
    15163.002300       0.699034
    15186.028900       0.696362
    15209.125500       0.693685
    15232.292500       0.691001
    15255.530100       0.688313
    15278.838800       0.685618
    15302.218800       0.682919
    15325.670500       0.680214
    15349.194200       0.677504
    15372.790200       0.674789
    15396.458800       0.672070
    15420.200500       0.669345
    15444.015400       0.666616
    15467.904100       0.663882
    15491.866800       0.661144
    15515.903800       0.658401
    15540.015500       0.655655
    15564.202300       0.652904
    15588.464500       0.650149
    15612.802500       0.647391
    15637.216600       0.644629
    15661.707100       0.641863
    15686.274500       0.639094
    15710.919100       0.636322
    15735.641200       0.633546
    15760.441300       0.630767
    15785.319700       0.627986
    15810.276700       0.625202
    15835.312700       0.622415
    15860.428200       0.619626
    15885.623500       0.616834
    15910.899000       0.614040
    15936.255000       0.611244
    15961.691900       0.608446
    15987.210200       0.605646
    16012.810200       0.602845
    16038.492400       0.600042
    16064.257000       0.597238
    16090.104600       0.594432
    16116.035500       0.591626
    16142.050000       0.588818
    16168.148700       0.586010
    16194.332000       0.583201
    16220.600200       0.580392
    16246.953700       0.577582
    16273.393000       0.574772
    16299.918500       0.571962
    16326.530600       0.569152
    16353.229800       0.566342
    16380.016400       0.563533
    16406.890900       0.560724
    16433.853700       0.557916
    16460.905300       0.555109
    16488.046200       0.552303
    16515.276600       0.549498
    16542.597200       0.546694
    16570.008300       0.543892
    16597.510400       0.541091
    16625.103900       0.538292
    16652.789300       0.535495
    16680.567100       0.532700
    16708.437800       0.529907
    16736.401700       0.527116
    16764.459300       0.524328
    16792.611300       0.521543
    16820.857900       0.518760
    16849.199700       0.515980
    16877.637100       0.513203
    16906.170800       0.510430
    16934.801000       0.507660
    16963.528400       0.504893
    16992.353400       0.502130
    17021.276600       0.499371
    17050.298400       0.496615
    17079.419300       0.493864
    17108.639900       0.491117
    17137.960600       0.488374
    17167.382000       0.485635
    17196.904600       0.482901
    17226.528900       0.480172
    17256.255400       0.477448
    17286.084700       0.474728
    17316.017300       0.472014
    17346.053800       0.469305
    17376.194600       0.466601
    17406.440400       0.463903
    17436.791600       0.461210
    17467.248900       0.458523
    17497.812800       0.455841
    17528.483800       0.453166
    17559.262500       0.450497
    17590.149500       0.447833
    17621.145400       0.445176
    17652.250700       0.442526
    17683.466000       0.439881
    17714.791900       0.437244
    17746.228900       0.434612
    17777.777800       0.431988
    17809.439000       0.429370
    17841.213200       0.426760
    17873.101000       0.424156
    17905.103000       0.421559
    17937.219700       0.418970
    17969.451900       0.416387
    18001.800200       0.413812
    18034.265100       0.411244
    18066.847300       0.408684
    18099.547500       0.406131
    18132.366300       0.403586
    18165.304300       0.401048
    18198.362100       0.398518
    18231.540600       0.395996
    18264.840200       0.393481
    18298.261700       0.390974
    18331.805700       0.388475
    18365.472900       0.385984
    18399.264000       0.383500
    18433.179700       0.381025
    18467.220700       0.378557
    18501.387600       0.376098
    18535.681200       0.373646
    18570.102100       0.371202
    18604.651200       0.368767
    18639.329000       0.366339
    18674.136300       0.363919
    18709.073900       0.361507
    18744.142500       0.359104
    18779.342700       0.356708
    18814.675400       0.354320
    18850.141400       0.351940
    18885.741300       0.349568
    18921.475900       0.347203
    18957.346000       0.344847
    18993.352300       0.342498
    19029.495700       0.340157
    19065.776900       0.337824
    19102.196800       0.335498
    19138.756000       0.333180
    19175.455400       0.330870
    19212.295900       0.328567
    19249.278200       0.326271
    19286.403100       0.323983
    19323.671500       0.321702
    19361.084200       0.319428
    19398.642100       0.317161
    19436.346000       0.314901
    19474.196700       0.312648
    19512.195100       0.310401
    19550.342100       0.308162
    19588.638600       0.305929
    19627.085400       0.303702
    19665.683400       0.301482
    19704.433500       0.299268
    19743.336600       0.297060
    19782.393700       0.294858
    19821.605600       0.292662
    19860.973200       0.290471
    19900.497500       0.288286
    19940.179500       0.286107
    19980.020000       0.283932
    20020.020000       0.281763
    20060.180500       0.279599
    20100.502500       0.277439
    20140.986900       0.275285
    20181.634700       0.273134
    20222.446900       0.270988
    20263.424500       0.268846
    20304.568500       0.266708
    20345.880000       0.264573
    20387.359800       0.262442
    20429.009200       0.260315
    20470.829100       0.258191
    20512.820500       0.256069
    20554.984600       0.253951
    20597.322300       0.251835
    20639.834900       0.249721
    20682.523300       0.247609
    20725.388600       0.245500
    20768.432000       0.243392
    20811.654500       0.241286
    20855.057400       0.239181
    20898.641600       0.237077
    20942.408400       0.234974
    20986.358900       0.232872
    21030.494200       0.230770
    21074.815600       0.228668
    21119.324200       0.226566
    21164.021200       0.224465
    21208.907700       0.222362
    21253.985100       0.220259
    21299.254500       0.218155
    21344.717200       0.216050
    21390.374300       0.213944
    21436.227200       0.211836
    21482.277100       0.209726
    21528.525300       0.207614
    21574.973000       0.205500
    21621.621600       0.203383
    21668.472400       0.201263
    21715.526600       0.199141
    21762.785600       0.197016
    21810.250800       0.194887
    21857.923500       0.192754
    21905.805000       0.190618
    21953.896800       0.188477
    22002.200200       0.186333
    22050.716600       0.184184
    22099.447500       0.182030
    22148.394200       0.179872
    22197.558300       0.177708
    22246.941000       0.175539
    22296.544000       0.173365
    22346.368700       0.171185
    22396.416600       0.169000
    22446.689100       0.166808
    22497.187900       0.164610
    22547.914300       0.162406
    22598.870100       0.160196
    22650.056600       0.157979
    22701.475600       0.155755
    22753.128600       0.153525
    22805.017100       0.151287
    22857.142900       0.149043
    22909.507400       0.146791
    22962.112500       0.144532
    23014.959700       0.142265
    23068.050700       0.139991
    23121.387300       0.137710
    23174.971000       0.135421
    23228.803700       0.133124
    23282.887100       0.130819
    23337.222900       0.128507
    23391.812900       0.126187
    23446.658900       0.123859
    23501.762600       0.121524
    23557.126000       0.119181
    23612.750900       0.116830
    23668.639100       0.114471
    23724.792400       0.112105
    23781.212800       0.109731
    23837.902300       0.107350
    23894.862600       0.104962
    23952.095800       0.102566
    24009.603800       0.100164
    24067.388700       0.097754
    24125.452400       0.095338
    24183.796900       0.092915
    24242.424200       0.090486
    24301.336600       0.088051
    24360.535900       0.085610
    24420.024400       0.083164
    24479.804200       0.080712
    24539.877300       0.078256
    24600.246000       0.075795
    24660.912500       0.073329
    24721.878900       0.070860
    24783.147500       0.068387
    24844.720500       0.065911
    24906.600200       0.063433
    24968.789000       0.060952
    25031.289100       0.058470
    25094.102900       0.055987
    25157.232700       0.053503
    25220.681000       0.051020
    25284.450100       0.048537
    25348.542500       0.046055
    25412.960600       0.043576
    25477.707000       0.041099
