136,   136, MVIRI VIS channel from srf_MET7_2014213_2014214_1801-Release_S10EE_10.dat
Number of data points:
793
Wavenumber (cm-1)   Filter response
     8442.380800       0.000000
     8449.514200       0.000000
     8456.659600       0.000004
     8463.817200       0.000057
     8470.986900       0.000168
     8478.168700       0.000337
     8485.362700       0.000560
     8492.569000       0.000838
     8499.787500       0.001167
     8507.018300       0.001547
     8514.261400       0.001976
     8521.516800       0.002453
     8528.784600       0.002976
     8536.064900       0.003544
     8543.357500       0.004156
     8550.662700       0.004811
     8557.980300       0.005507
     8565.310500       0.006243
     8572.653200       0.007019
     8580.008600       0.007832
     8587.376600       0.008683
     8594.757200       0.009570
     8602.150500       0.010492
     8609.556600       0.011449
     8616.975400       0.012439
     8624.407100       0.013462
     8631.851500       0.014517
     8639.308900       0.015603
     8646.779100       0.016720
     8654.262200       0.017866
     8661.758300       0.019042
     8669.267400       0.020246
     8676.789600       0.021478
     8684.324800       0.022738
     8691.873100       0.024025
     8699.434500       0.025338
     8707.009100       0.026677
     8714.596900       0.028042
     8722.198000       0.029432
     8729.812300       0.030846
     8737.439900       0.032285
     8745.080900       0.033748
     8752.735200       0.035235
     8760.403000       0.036745
     8768.084200       0.038278
     8775.778900       0.039834
     8783.487000       0.041413
     8791.208800       0.043014
     8798.944100       0.044637
     8806.693100       0.046282
     8814.455700       0.047949
     8822.232000       0.049638
     8830.022100       0.051348
     8837.825900       0.053080
     8845.643500       0.054832
     8853.475000       0.056606
     8861.320300       0.058401
     8869.179600       0.060217
     8877.052800       0.062054
     8884.940000       0.063912
     8892.841300       0.065791
     8900.756600       0.067691
     8908.686000       0.069612
     8916.629500       0.071553
     8924.587200       0.073515
     8932.559200       0.075498
     8940.545400       0.077501
     8948.545900       0.079526
     8956.560700       0.081571
     8964.589900       0.083638
     8972.633500       0.085725
     8980.691500       0.087833
     8988.764000       0.089963
     8996.851100       0.092113
     9004.952700       0.094285
     9013.068900       0.096478
     9021.199800       0.098692
     9029.345400       0.100928
     9037.505600       0.103185
     9045.680700       0.105464
     9053.870500       0.107764
     9062.075200       0.110086
     9070.294800       0.112430
     9078.529300       0.114795
     9086.778700       0.117183
     9095.043200       0.119593
     9103.322700       0.122025
     9111.617300       0.124479
     9119.927000       0.126955
     9128.251900       0.129454
     9136.592100       0.131975
     9144.947400       0.134519
     9153.318100       0.137086
     9161.704100       0.139675
     9170.105500       0.142287
     9178.522300       0.144922
     9186.954500       0.147580
     9195.402300       0.150261
     9203.865600       0.152965
     9212.344500       0.155693
     9220.839100       0.158443
     9229.349300       0.161217
     9237.875300       0.164015
     9246.417000       0.166835
     9254.974500       0.169680
     9263.547900       0.172548
     9272.137200       0.175439
     9280.742500       0.178354
     9289.363700       0.181293
     9298.000900       0.184255
     9306.654300       0.187241
     9315.323700       0.190251
     9324.009300       0.193285
     9332.711200       0.196342
     9341.429200       0.199423
     9350.163600       0.202528
     9358.914400       0.205657
     9367.681500       0.208810
     9376.465100       0.211986
     9385.265100       0.215186
     9394.081700       0.218409
     9402.914900       0.221657
     9411.764700       0.224928
     9420.631200       0.228222
     9429.514400       0.231540
     9438.414300       0.234882
     9447.331100       0.238247
     9456.264800       0.241635
     9465.215300       0.245047
     9474.182900       0.248481
     9483.167400       0.251939
     9492.169000       0.255420
     9501.187600       0.258924
     9510.223500       0.262451
     9519.276500       0.266000
     9528.346800       0.269572
     9537.434400       0.273166
     9546.539400       0.276782
     9555.661700       0.280421
     9564.801500       0.284082
     9573.958800       0.287764
     9583.133700       0.291469
     9592.326100       0.295194
     9601.536200       0.298942
     9610.764100       0.302710
     9620.009600       0.306500
     9629.273000       0.310310
     9638.554200       0.314140
     9647.853400       0.317992
     9657.170400       0.321863
     9666.505600       0.325755
     9675.858700       0.329666
     9685.230000       0.333596
     9694.619500       0.337546
     9704.027200       0.341515
     9713.453100       0.345503
     9722.897400       0.349509
     9732.360100       0.353534
     9741.841200       0.357577
     9751.340800       0.361637
     9760.859000       0.365715
     9770.395700       0.369810
     9779.951100       0.373921
     9789.525200       0.378050
     9799.118100       0.382195
     9808.729800       0.386355
     9818.360300       0.390532
     9828.009800       0.394723
     9837.678300       0.398930
     9847.365800       0.403152
     9857.072400       0.407387
     9866.798200       0.411637
     9876.543200       0.415900
     9886.307500       0.420177
     9896.091000       0.424467
     9905.894000       0.428769
     9915.716400       0.433083
     9925.558300       0.437409
     9935.419800       0.441747
     9945.300800       0.446096
     9955.201600       0.450456
     9965.122100       0.454826
     9975.062300       0.459205
     9985.022500       0.463595
     9995.002500       0.467994
    10005.002500       0.472401
    10015.022500       0.476816
    10025.062700       0.481240
    10035.122900       0.485671
    10045.203400       0.490109
    10055.304200       0.494554
    10065.425300       0.499005
    10075.566800       0.503462
    10085.728700       0.507924
    10095.911200       0.512391
    10106.114200       0.516862
    10116.337900       0.521338
    10126.582300       0.525817
    10136.847400       0.530299
    10147.133400       0.534785
    10157.440300       0.539272
    10167.768200       0.543761
    10178.117000       0.548251
    10188.487000       0.552743
    10198.878100       0.557235
    10209.290500       0.561726
    10219.724100       0.566217
    10230.179000       0.570708
    10240.655400       0.575197
    10251.153300       0.579684
    10261.672700       0.584168
    10272.213700       0.588650
    10282.776300       0.593128
    10293.360800       0.597603
    10303.967000       0.602073
    10314.595200       0.606538
    10325.245200       0.610998
    10335.917300       0.615453
    10346.611500       0.619902
    10357.327800       0.624343
    10368.066400       0.628778
    10378.827200       0.633205
    10389.610400       0.637624
    10400.416000       0.642034
    10411.244100       0.646435
    10422.094800       0.650827
    10432.968200       0.655209
    10443.864200       0.659580
    10454.783100       0.663941
    10465.724800       0.668290
    10476.689400       0.672627
    10487.677000       0.676952
    10498.687700       0.681263
    10509.721500       0.685562
    10520.778500       0.689847
    10531.858900       0.694117
    10542.962600       0.698373
    10554.089700       0.702614
    10565.240400       0.706839
    10576.414600       0.711048
    10587.612500       0.715240
    10598.834100       0.719415
    10610.079600       0.723573
    10621.348900       0.727713
    10632.642200       0.731835
    10643.959600       0.735938
    10655.301000       0.740021
    10666.666700       0.744085
    10678.056600       0.748128
    10689.470900       0.752152
    10700.909600       0.756154
    10712.372800       0.760134
    10723.860600       0.764093
    10735.373100       0.768030
    10746.910300       0.771944
    10758.472300       0.775834
    10770.059200       0.779701
    10781.671200       0.783545
    10793.308100       0.787363
    10804.970300       0.791158
    10816.657700       0.794926
    10828.370300       0.798670
    10840.108400       0.802387
    10851.871900       0.806078
    10863.661100       0.809743
    10875.475800       0.813380
    10887.316300       0.816990
    10899.182600       0.820572
    10911.074700       0.824126
    10922.992900       0.827651
    10934.937100       0.831147
    10946.907500       0.834615
    10958.904100       0.838052
    10970.927000       0.841460
    10982.976400       0.844837
    10995.052200       0.848184
    11007.154700       0.851499
    11019.283700       0.854784
    11031.439600       0.858037
    11043.622300       0.861258
    11055.832000       0.864447
    11068.068600       0.867603
    11080.332400       0.870727
    11092.623400       0.873817
    11104.941700       0.876875
    11117.287400       0.879898
    11129.660500       0.882888
    11142.061300       0.885843
    11154.489700       0.888765
    11166.945800       0.891651
    11179.429800       0.894503
    11191.941800       0.897319
    11204.481800       0.900100
    11217.049900       0.902845
    11229.646300       0.905555
    11242.270900       0.908228
    11254.924000       0.910866
    11267.605600       0.913466
    11280.315800       0.916030
    11293.054800       0.918558
    11305.822500       0.921048
    11318.619100       0.923501
    11331.444800       0.925916
    11344.299500       0.928294
    11357.183400       0.930634
    11370.096600       0.932937
    11383.039300       0.935201
    11396.011400       0.937427
    11409.013100       0.939615
    11422.044500       0.941765
    11435.105800       0.943876
    11448.196900       0.945948
    11461.318100       0.947981
    11474.469300       0.949976
    11487.650800       0.951932
    11500.862600       0.953849
    11514.104800       0.955726
    11527.377500       0.957564
    11540.680900       0.959364
    11554.015000       0.961123
    11567.380000       0.962844
    11580.775900       0.964525
    11594.202900       0.966166
    11607.661100       0.967768
    11621.150500       0.969331
    11634.671300       0.970854
    11648.223600       0.972338
    11661.807600       0.973782
    11675.423200       0.975186
    11689.070700       0.976551
    11702.750100       0.977877
    11716.461600       0.979162
    11730.205300       0.980409
    11743.981200       0.981616
    11757.789500       0.982784
    11771.630400       0.983912
    11785.503800       0.985001
    11799.410000       0.986051
    11813.349100       0.987062
    11827.321100       0.988034
    11841.326200       0.988966
    11855.364600       0.989860
    11869.436200       0.990715
    11883.541300       0.991532
    11897.680000       0.992310
    11911.852300       0.993049
    11926.058400       0.993750
    11940.298500       0.994413
    11954.572600       0.995038
    11968.880900       0.995625
    11983.223500       0.996174
    11997.600500       0.996685
    12012.012000       0.997160
    12026.458200       0.997596
    12040.939200       0.997996
    12055.455100       0.998359
    12070.006000       0.998685
    12084.592100       0.998974
    12099.213600       0.999228
    12113.870400       0.999445
    12128.562800       0.999626
    12143.290800       0.999771
    12158.054700       0.999881
    12172.854500       0.999956
    12187.690400       0.999995
    12202.562500       1.000000
    12217.471000       0.999970
    12232.415900       0.999906
    12247.397400       0.999808
    12262.415700       0.999677
    12277.470800       0.999511
    12292.563000       0.999313
    12307.692300       0.999081
    12322.858900       0.998817
    12338.062900       0.998521
    12353.304500       0.998192
    12368.583800       0.997832
    12383.900900       0.997440
    12399.256000       0.997018
    12414.649300       0.996564
    12430.080800       0.996080
    12445.550700       0.995565
    12461.059200       0.995021
    12476.606400       0.994447
    12492.192400       0.993844
    12507.817400       0.993212
    12523.481500       0.992552
    12539.185000       0.991863
    12554.927800       0.991147
    12570.710200       0.990403
    12586.532400       0.989632
    12602.394500       0.988835
    12618.296500       0.988011
    12634.238800       0.987161
    12650.221400       0.986286
    12666.244500       0.985385
    12682.308200       0.984460
    12698.412700       0.983510
    12714.558200       0.982536
    12730.744700       0.981539
    12746.972600       0.980518
    12763.241900       0.979475
    12779.552700       0.978409
    12795.905300       0.977321
    12812.299800       0.976212
    12828.736400       0.975081
    12845.215200       0.973930
    12861.736300       0.972758
    12878.300100       0.971566
    12894.906500       0.970355
    12911.555800       0.969125
    12928.248200       0.967876
    12944.983800       0.966609
    12961.762800       0.965324
    12978.585300       0.964022
    12995.451600       0.962703
    13012.361700       0.961368
    13029.316000       0.960016
    13046.314400       0.958649
    13063.357300       0.957267
    13080.444700       0.955870
    13097.576900       0.954459
    13114.754100       0.953034
    13131.976400       0.951596
    13149.243900       0.950145
    13166.556900       0.948681
    13183.915600       0.947205
    13201.320100       0.945718
    13218.770700       0.944220
    13236.267400       0.942711
    13253.810500       0.941192
    13271.400100       0.939663
    13289.036500       0.938125
    13306.719900       0.936579
    13324.450400       0.935023
    13342.228200       0.933460
    13360.053400       0.931889
    13377.926400       0.930312
    13395.847300       0.928728
    13413.816200       0.927137
    13431.833400       0.925541
    13449.899100       0.923940
    13468.013500       0.922334
    13486.176700       0.920724
    13504.388900       0.919110
    13522.650400       0.917492
    13540.961400       0.915871
    13559.322000       0.914248
    13577.732500       0.912623
    13596.193100       0.910996
    13614.703900       0.909368
    13633.265200       0.907739
    13651.877100       0.906109
    13670.540000       0.904480
    13689.253900       0.902851
    13708.019200       0.901223
    13726.836000       0.899596
    13745.704500       0.897972
    13764.624900       0.896349
    13783.597500       0.894729
    13802.622500       0.893112
    13821.700100       0.891498
    13840.830400       0.889888
    13860.013900       0.888282
    13879.250500       0.886681
    13898.540700       0.885085
    13917.884500       0.883494
    13937.282200       0.881909
    13956.734100       0.880330
    13976.240400       0.878758
    13995.801300       0.877193
    14015.417000       0.875635
    14035.087700       0.874084
    14054.813800       0.872542
    14074.595400       0.871008
    14094.432700       0.869483
    14114.326000       0.867966
    14134.275600       0.866460
    14154.281700       0.864963
    14174.344400       0.863476
    14194.464200       0.861999
    14214.641100       0.860533
    14234.875400       0.859079
    14255.167500       0.857636
    14275.517500       0.856204
    14295.925700       0.854785
    14316.392300       0.853377
    14336.917600       0.851983
    14357.501800       0.850601
    14378.145200       0.849232
    14398.848100       0.847877
    14419.610700       0.846536
    14440.433200       0.845208
    14461.316000       0.843895
    14482.259200       0.842597
    14503.263200       0.841313
    14524.328200       0.840044
    14545.454500       0.838790
    14566.642400       0.837551
    14587.892000       0.836329
    14609.203800       0.835122
    14630.577900       0.833931
    14652.014700       0.832756
    14673.514300       0.831598
    14695.077100       0.830457
    14716.703500       0.829332
    14738.393500       0.828225
    14760.147600       0.827134
    14781.966000       0.826061
    14803.849000       0.825005
    14825.796900       0.823967
    14847.809900       0.822946
    14869.888500       0.821944
    14892.032800       0.820959
    14914.243100       0.819992
    14936.519800       0.819044
    14958.863100       0.818114
    14981.273400       0.817202
    15003.750900       0.816308
    15026.296000       0.815433
    15048.909000       0.814577
    15071.590100       0.813739
    15094.339600       0.812920
    15117.158000       0.812119
    15140.045400       0.811338
    15163.002300       0.810575
    15186.028900       0.809830
    15209.125500       0.809105
    15232.292500       0.808398
    15255.530100       0.807710
    15278.838800       0.807041
    15302.218800       0.806390
    15325.670500       0.805758
    15349.194200       0.805145
    15372.790200       0.804550
    15396.458800       0.803973
    15420.200500       0.803415
    15444.015400       0.802876
    15467.904100       0.802354
    15491.866800       0.801851
    15515.903800       0.801365
    15540.015500       0.800897
    15564.202300       0.800448
    15588.464500       0.800015
    15612.802500       0.799601
    15637.216600       0.799203
    15661.707100       0.798823
    15686.274500       0.798460
    15710.919100       0.798113
    15735.641200       0.797783
    15760.441300       0.797469
    15785.319700       0.797172
    15810.276700       0.796891
    15835.312700       0.796625
    15860.428200       0.796375
    15885.623500       0.796140
    15910.899000       0.795920
    15936.255000       0.795715
    15961.691900       0.795524
    15987.210200       0.795347
    16012.810200       0.795184
    16038.492400       0.795035
    16064.257000       0.794900
    16090.104600       0.794777
    16116.035500       0.794666
    16142.050000       0.794568
    16168.148700       0.794482
    16194.332000       0.794408
    16220.600200       0.794345
    16246.953700       0.794292
    16273.393000       0.794251
    16299.918500       0.794219
    16326.530600       0.794197
    16353.229800       0.794184
    16380.016400       0.794180
    16406.890900       0.794185
    16433.853700       0.794197
    16460.905300       0.794217
    16488.046200       0.794245
    16515.276600       0.794279
    16542.597200       0.794319
    16570.008300       0.794365
    16597.510400       0.794416
    16625.103900       0.794472
    16652.789300       0.794533
    16680.567100       0.794597
    16708.437800       0.794664
    16736.401700       0.794734
    16764.459300       0.794806
    16792.611300       0.794880
    16820.857900       0.794956
    16849.199700       0.795031
    16877.637100       0.795107
    16906.170800       0.795182
    16934.801000       0.795257
    16963.528400       0.795329
    16992.353400       0.795399
    17021.276600       0.795467
    17050.298400       0.795531
    17079.419300       0.795591
    17108.639900       0.795646
    17137.960600       0.795696
    17167.382000       0.795740
    17196.904600       0.795778
    17226.528900       0.795809
    17256.255400       0.795831
    17286.084700       0.795846
    17316.017300       0.795851
    17346.053800       0.795846
    17376.194600       0.795831
    17406.440400       0.795805
    17436.791600       0.795767
    17467.248900       0.795717
    17497.812800       0.795654
    17528.483800       0.795577
    17559.262500       0.795485
    17590.149500       0.795379
    17621.145400       0.795256
    17652.250700       0.795117
    17683.466000       0.794961
    17714.791900       0.794786
    17746.228900       0.794593
    17777.777800       0.794381
    17809.439000       0.794148
    17841.213200       0.793895
    17873.101000       0.793620
    17905.103000       0.793323
    17937.219700       0.793003
    17969.451900       0.792659
    18001.800200       0.792290
    18034.265100       0.791896
    18066.847300       0.791477
    18099.547500       0.791031
    18132.366300       0.790557
    18165.304300       0.790055
    18198.362100       0.789524
    18231.540600       0.788964
    18264.840200       0.788374
    18298.261700       0.787752
    18331.805700       0.787098
    18365.472900       0.786412
    18399.264000       0.785693
    18433.179700       0.784939
    18467.220700       0.784151
    18501.387600       0.783327
    18535.681200       0.782467
    18570.102100       0.781570
    18604.651200       0.780636
    18639.329000       0.779663
    18674.136300       0.778651
    18709.073900       0.777599
    18744.142500       0.776506
    18779.342700       0.775373
    18814.675400       0.774197
    18850.141400       0.772979
    18885.741300       0.771717
    18921.475900       0.770411
    18957.346000       0.769061
    18993.352300       0.767665
    19029.495700       0.766223
    19065.776900       0.764734
    19102.196800       0.763198
    19138.756000       0.761614
    19175.455400       0.759981
    19212.295900       0.758299
    19249.278200       0.756567
    19286.403100       0.754784
    19323.671500       0.752949
    19361.084200       0.751063
    19398.642100       0.749125
    19436.346000       0.747133
    19474.196700       0.745088
    19512.195100       0.742989
    19550.342100       0.740835
    19588.638600       0.738625
    19627.085400       0.736360
    19665.683400       0.734038
    19704.433500       0.731660
    19743.336600       0.729223
    19782.393700       0.726729
    19821.605600       0.724177
    19860.973200       0.721566
    19900.497500       0.718895
    19940.179500       0.716165
    19980.020000       0.713374
    20020.020000       0.710523
    20060.180500       0.707611
    20100.502500       0.704637
    20140.986900       0.701601
    20181.634700       0.698504
    20222.446900       0.695344
    20263.424500       0.692121
    20304.568500       0.688835
    20345.880000       0.685485
    20387.359800       0.682072
    20429.009200       0.678595
    20470.829100       0.675054
    20512.820500       0.671449
    20554.984600       0.667779
    20597.322300       0.664044
    20639.834900       0.660245
    20682.523300       0.656380
    20725.388600       0.652450
    20768.432000       0.648455
    20811.654500       0.644395
    20855.057400       0.640269
    20898.641600       0.636078
    20942.408400       0.631822
    20986.358900       0.627500
    21030.494200       0.623113
    21074.815600       0.618661
    21119.324200       0.614144
    21164.021200       0.609561
    21208.907700       0.604914
    21253.985100       0.600202
    21299.254500       0.595426
    21344.717200       0.590585
    21390.374300       0.585680
    21436.227200       0.580712
    21482.277100       0.575680
    21528.525300       0.570585
    21574.973000       0.565427
    21621.621600       0.560207
    21668.472400       0.554925
    21715.526600       0.549582
    21762.785600       0.544177
    21810.250800       0.538713
    21857.923500       0.533188
    21905.805000       0.527604
    21953.896800       0.521962
    22002.200200       0.516261
    22050.716600       0.510503
    22099.447500       0.504689
    22148.394200       0.498819
    22197.558300       0.492893
    22246.941000       0.486914
    22296.544000       0.480881
    22346.368700       0.474796
    22396.416600       0.468659
    22446.689100       0.462472
    22497.187900       0.456235
    22547.914300       0.449950
    22598.870100       0.443618
    22650.056600       0.437239
    22701.475600       0.430815
    22753.128600       0.424348
    22805.017100       0.417838
    22857.142900       0.411287
    22909.507400       0.404696
    22962.112500       0.398066
    23014.959700       0.391400
    23068.050700       0.384698
    23121.387300       0.377961
    23174.971000       0.371193
    23228.803700       0.364393
    23282.887100       0.357565
    23337.222900       0.350708
    23391.812900       0.343826
    23446.658900       0.336920
    23501.762600       0.329993
    23557.126000       0.323044
    23612.750900       0.316078
    23668.639100       0.309096
    23724.792400       0.302099
    23781.212800       0.295090
    23837.902300       0.288072
    23894.862600       0.281045
    23952.095800       0.274013
    24009.603800       0.266979
    24067.388700       0.259943
    24125.452400       0.252909
    24183.796900       0.245879
    24242.424200       0.238856
    24301.336600       0.231843
    24360.535900       0.224841
    24420.024400       0.217854
    24479.804200       0.210884
    24539.877300       0.203934
    24600.246000       0.197008
    24660.912500       0.190107
    24721.878900       0.183236
    24783.147500       0.176397
    24844.720500       0.169593
    24906.600200       0.162827
    24968.789000       0.156103
    25031.289100       0.149424
    25094.102900       0.142794
    25157.232700       0.136215
    25220.681000       0.129691
    25284.450100       0.123227
    25348.542500       0.116825
    25412.960600       0.110489
    25477.707000       0.104223
