  12  ,noaa_12_hirs_12.flt
Number of data points:
101
Wavenumber (cm-1)   Filter response
     1379.900000       0.000000
     1386.100000       0.009167
     1394.700000       0.012156
     1398.000000       0.013441
     1401.000000       0.013763
     1403.700000       0.015637
     1406.500000       0.015484
     1409.600000       0.017861
     1411.700000       0.017706
     1413.300000       0.020073
     1415.700000       0.019858
     1418.700000       0.023564
     1420.700000       0.037515
     1425.400000       0.078386
     1428.000000       0.107270
     1428.600000       0.133060
     1429.800000       0.168390
     1431.200000       0.222460
     1432.900000       0.304150
     1435.400000       0.419720
     1436.000000       0.463100
     1436.800000       0.506730
     1437.300000       0.538390
     1438.100000       0.574740
     1438.700000       0.611620
     1439.300000       0.636890
     1439.700000       0.668080
     1440.100000       0.690950
     1441.500000       0.735480
     1442.600000       0.768190
     1443.200000       0.794820
     1444.100000       0.815330
     1446.000000       0.841670
     1447.200000       0.847040
     1448.300000       0.849370
     1449.300000       0.843310
     1450.500000       0.829230
     1451.200000       0.820380
     1452.700000       0.810360
     1454.600000       0.792920
     1456.900000       0.772910
     1458.400000       0.761560
     1460.000000       0.753970
     1461.100000       0.749090
     1462.100000       0.746810
     1464.100000       0.750700
     1466.500000       0.760580
     1467.800000       0.781140
     1469.300000       0.793480
     1469.900000       0.813030
     1470.800000       0.826080
     1472.300000       0.856080
     1473.400000       0.878190
     1477.200000       0.944310
     1481.500000       0.999500
     1483.700000       1.000000
     1485.200000       0.990270
     1485.500000       0.990610
     1486.900000       0.981110
     1487.900000       0.973680
     1489.000000       0.960340
     1490.700000       0.939920
     1492.400000       0.927390
     1493.900000       0.916010
     1496.200000       0.909160
     1497.800000       0.908260
     1499.700000       0.902180
     1501.400000       0.892100
     1502.300000       0.883200
     1504.000000       0.851540
     1505.700000       0.804970
     1509.900000       0.666180
     1513.700000       0.537360
     1517.200000       0.471600
     1518.700000       0.453120
     1519.600000       0.447440
     1520.000000       0.447330
     1520.800000       0.443900
     1521.100000       0.448670
     1522.100000       0.454880
     1523.200000       0.470410
     1526.300000       0.572360
     1527.400000       0.599350
     1528.500000       0.622900
     1529.400000       0.625140
     1529.600000       0.619730
     1529.900000       0.608040
     1530.200000       0.589820
     1530.500000       0.574480
     1532.000000       0.451730
     1533.800000       0.260130
     1538.200000       0.063245
     1540.800000       0.025157
     1542.800000       0.015325
     1545.100000       0.009435
     1548.500000       0.006585
     1555.300000       0.004457
     1563.500000       0.000000
     1568.000000       0.000000
     1574.100000       0.000000
     1580.000000       0.000000
