141,   141, MVIRI VIS channel from srf_MET7_2015078_2015079_1801-Release_S10EE_10.dat
Number of data points:
793
Wavenumber (cm-1)   Filter response
     8442.380800       0.000000
     8449.514200       0.000000
     8456.659600       0.000004
     8463.817200       0.000057
     8470.986900       0.000169
     8478.168700       0.000337
     8485.362700       0.000561
     8492.569000       0.000839
     8499.787500       0.001169
     8507.018300       0.001549
     8514.261400       0.001979
     8521.516800       0.002457
     8528.784600       0.002981
     8536.064900       0.003550
     8543.357500       0.004163
     8550.662700       0.004818
     8557.980300       0.005515
     8565.310500       0.006253
     8572.653200       0.007029
     8580.008600       0.007844
     8587.376600       0.008696
     8594.757200       0.009584
     8602.150500       0.010508
     8609.556600       0.011466
     8616.975400       0.012457
     8624.407100       0.013482
     8631.851500       0.014538
     8639.308900       0.015626
     8646.779100       0.016744
     8654.262200       0.017892
     8661.758300       0.019069
     8669.267400       0.020275
     8676.789600       0.021510
     8684.324800       0.022771
     8691.873100       0.024060
     8699.434500       0.025375
     8707.009100       0.026716
     8714.596900       0.028082
     8722.198000       0.029474
     8729.812300       0.030891
     8737.439900       0.032331
     8745.080900       0.033796
     8752.735200       0.035285
     8760.403000       0.036797
     8768.084200       0.038332
     8775.778900       0.039890
     8783.487000       0.041471
     8791.208800       0.043074
     8798.944100       0.044700
     8806.693100       0.046347
     8814.455700       0.048016
     8822.232000       0.049707
     8830.022100       0.051419
     8837.825900       0.053153
     8845.643500       0.054908
     8853.475000       0.056684
     8861.320300       0.058482
     8869.179600       0.060300
     8877.052800       0.062140
     8884.940000       0.064000
     8892.841300       0.065881
     8900.756600       0.067783
     8908.686000       0.069706
     8916.629500       0.071650
     8924.587200       0.073614
     8932.559200       0.075599
     8940.545400       0.077606
     8948.545900       0.079633
     8956.560700       0.081681
     8964.589900       0.083750
     8972.633500       0.085839
     8980.691500       0.087950
     8988.764000       0.090082
     8996.851100       0.092235
     9004.952700       0.094410
     9013.068900       0.096605
     9021.199800       0.098822
     9029.345400       0.101060
     9037.505600       0.103320
     9045.680700       0.105601
     9053.870500       0.107904
     9062.075200       0.110229
     9070.294800       0.112575
     9078.529300       0.114944
     9086.778700       0.117334
     9095.043200       0.119747
     9103.322700       0.122181
     9111.617300       0.124638
     9119.927000       0.127117
     9128.251900       0.129619
     9136.592100       0.132143
     9144.947400       0.134689
     9153.318100       0.137259
     9161.704100       0.139851
     9170.105500       0.142466
     9178.522300       0.145104
     9186.954500       0.147764
     9195.402300       0.150448
     9203.865600       0.153155
     9212.344500       0.155886
     9220.839100       0.158639
     9229.349300       0.161416
     9237.875300       0.164216
     9246.417000       0.167040
     9254.974500       0.169887
     9263.547900       0.172758
     9272.137200       0.175652
     9280.742500       0.178570
     9289.363700       0.181512
     9298.000900       0.184477
     9306.654300       0.187466
     9315.323700       0.190479
     9324.009300       0.193516
     9332.711200       0.196576
     9341.429200       0.199660
     9350.163600       0.202768
     9358.914400       0.205900
     9367.681500       0.209055
     9376.465100       0.212235
     9385.265100       0.215437
     9394.081700       0.218664
     9402.914900       0.221914
     9411.764700       0.225189
     9420.631200       0.228486
     9429.514400       0.231807
     9438.414300       0.235152
     9447.331100       0.238520
     9456.264800       0.241911
     9465.215300       0.245326
     9474.182900       0.248763
     9483.167400       0.252224
     9492.169000       0.255708
     9501.187600       0.259215
     9510.223500       0.262745
     9519.276500       0.266297
     9528.346800       0.269872
     9537.434400       0.273469
     9546.539400       0.277088
     9555.661700       0.280730
     9564.801500       0.284394
     9573.958800       0.288079
     9583.133700       0.291787
     9592.326100       0.295515
     9601.536200       0.299266
     9610.764100       0.303037
     9620.009600       0.306829
     9629.273000       0.310643
     9638.554200       0.314476
     9647.853400       0.318330
     9657.170400       0.322204
     9666.505600       0.326099
     9675.858700       0.330013
     9685.230000       0.333946
     9694.619500       0.337899
     9704.027200       0.341871
     9713.453100       0.345862
     9722.897400       0.349871
     9732.360100       0.353898
     9741.841200       0.357944
     9751.340800       0.362006
     9760.859000       0.366087
     9770.395700       0.370185
     9779.951100       0.374299
     9789.525200       0.378431
     9799.118100       0.382578
     9808.729800       0.386741
     9818.360300       0.390920
     9828.009800       0.395114
     9837.678300       0.399324
     9847.365800       0.403548
     9857.072400       0.407786
     9866.798200       0.412038
     9876.543200       0.416304
     9886.307500       0.420583
     9896.091000       0.424876
     9905.894000       0.429180
     9915.716400       0.433497
     9925.558300       0.437825
     9935.419800       0.442166
     9945.300800       0.446517
     9955.201600       0.450879
     9965.122100       0.455251
     9975.062300       0.459633
     9985.022500       0.464025
     9995.002500       0.468426
    10005.002500       0.472835
    10015.022500       0.477253
    10025.062700       0.481678
    10035.122900       0.486111
    10045.203400       0.490551
    10055.304200       0.494998
    10065.425300       0.499451
    10075.566800       0.503910
    10085.728700       0.508374
    10095.911200       0.512843
    10106.114200       0.517316
    10116.337900       0.521793
    10126.582300       0.526274
    10136.847400       0.530758
    10147.133400       0.535245
    10157.440300       0.539734
    10167.768200       0.544224
    10178.117000       0.548716
    10188.487000       0.553209
    10198.878100       0.557702
    10209.290500       0.562195
    10219.724100       0.566688
    10230.179000       0.571179
    10240.655400       0.575669
    10251.153300       0.580157
    10261.672700       0.584643
    10272.213700       0.589126
    10282.776300       0.593605
    10293.360800       0.598081
    10303.967000       0.602552
    10314.595200       0.607018
    10325.245200       0.611479
    10335.917300       0.615935
    10346.611500       0.620384
    10357.327800       0.624826
    10368.066400       0.629261
    10378.827200       0.633689
    10389.610400       0.638109
    10400.416000       0.642519
    10411.244100       0.646921
    10422.094800       0.651313
    10432.968200       0.655695
    10443.864200       0.660067
    10454.783100       0.664428
    10465.724800       0.668777
    10476.689400       0.673114
    10487.677000       0.677439
    10498.687700       0.681750
    10509.721500       0.686049
    10520.778500       0.690333
    10531.858900       0.694604
    10542.962600       0.698859
    10554.089700       0.703100
    10565.240400       0.707324
    10576.414600       0.711533
    10587.612500       0.715725
    10598.834100       0.719900
    10610.079600       0.724057
    10621.348900       0.728196
    10632.642200       0.732317
    10643.959600       0.736419
    10655.301000       0.740502
    10666.666700       0.744565
    10678.056600       0.748607
    10689.470900       0.752629
    10700.909600       0.756631
    10712.372800       0.760610
    10723.860600       0.764568
    10735.373100       0.768503
    10746.910300       0.772415
    10758.472300       0.776305
    10770.059200       0.780170
    10781.671200       0.784012
    10793.308100       0.787829
    10804.970300       0.791622
    10816.657700       0.795389
    10828.370300       0.799131
    10840.108400       0.802846
    10851.871900       0.806535
    10863.661100       0.810198
    10875.475800       0.813833
    10887.316300       0.817441
    10899.182600       0.821021
    10911.074700       0.824573
    10922.992900       0.828096
    10934.937100       0.831590
    10946.907500       0.835055
    10958.904100       0.838490
    10970.927000       0.841895
    10982.976400       0.845270
    10995.052200       0.848614
    11007.154700       0.851927
    11019.283700       0.855209
    11031.439600       0.858459
    11043.622300       0.861677
    11055.832000       0.864863
    11068.068600       0.868017
    11080.332400       0.871137
    11092.623400       0.874225
    11104.941700       0.877279
    11117.287400       0.880299
    11129.660500       0.883286
    11142.061300       0.886238
    11154.489700       0.889156
    11166.945800       0.892039
    11179.429800       0.894887
    11191.941800       0.897700
    11204.481800       0.900477
    11217.049900       0.903219
    11229.646300       0.905925
    11242.270900       0.908595
    11254.924000       0.911228
    11267.605600       0.913825
    11280.315800       0.916385
    11293.054800       0.918908
    11305.822500       0.921394
    11318.619100       0.923843
    11331.444800       0.926255
    11344.299500       0.928629
    11357.183400       0.930965
    11370.096600       0.933263
    11383.039300       0.935523
    11396.011400       0.937745
    11409.013100       0.939928
    11422.044500       0.942073
    11435.105800       0.944180
    11448.196900       0.946247
    11461.318100       0.948276
    11474.469300       0.950266
    11487.650800       0.952217
    11500.862600       0.954129
    11514.104800       0.956002
    11527.377500       0.957836
    11540.680900       0.959630
    11554.015000       0.961385
    11567.380000       0.963100
    11580.775900       0.964776
    11594.202900       0.966413
    11607.661100       0.968010
    11621.150500       0.969567
    11634.671300       0.971085
    11648.223600       0.972563
    11661.807600       0.974002
    11675.423200       0.975401
    11689.070700       0.976761
    11702.750100       0.978081
    11716.461600       0.979362
    11730.205300       0.980603
    11743.981200       0.981804
    11757.789500       0.982967
    11771.630400       0.984089
    11785.503800       0.985173
    11799.410000       0.986217
    11813.349100       0.987222
    11827.321100       0.988188
    11841.326200       0.989116
    11855.364600       0.990004
    11869.436200       0.990853
    11883.541300       0.991664
    11897.680000       0.992436
    11911.852300       0.993169
    11926.058400       0.993864
    11940.298500       0.994522
    11954.572600       0.995140
    11968.880900       0.995721
    11983.223500       0.996265
    11997.600500       0.996770
    12012.012000       0.997238
    12026.458200       0.997669
    12040.939200       0.998063
    12055.455100       0.998419
    12070.006000       0.998739
    12084.592100       0.999023
    12099.213600       0.999270
    12113.870400       0.999480
    12128.562800       0.999655
    12143.290800       0.999795
    12158.054700       0.999898
    12172.854500       0.999967
    12187.690400       1.000000
    12202.562500       0.999999
    12217.471000       0.999963
    12232.415900       0.999892
    12247.397400       0.999788
    12262.415700       0.999650
    12277.470800       0.999478
    12292.563000       0.999274
    12307.692300       0.999036
    12322.858900       0.998765
    12338.062900       0.998463
    12353.304500       0.998128
    12368.583800       0.997761
    12383.900900       0.997363
    12399.256000       0.996934
    12414.649300       0.996473
    12430.080800       0.995983
    12445.550700       0.995462
    12461.059200       0.994911
    12476.606400       0.994331
    12492.192400       0.993722
    12507.817400       0.993083
    12523.481500       0.992416
    12539.185000       0.991722
    12554.927800       0.990999
    12570.710200       0.990249
    12586.532400       0.989471
    12602.394500       0.988667
    12618.296500       0.987837
    12634.238800       0.986981
    12650.221400       0.986099
    12666.244500       0.985192
    12682.308200       0.984260
    12698.412700       0.983304
    12714.558200       0.982324
    12730.744700       0.981320
    12746.972600       0.980293
    12763.241900       0.979243
    12779.552700       0.978171
    12795.905300       0.977076
    12812.299800       0.975961
    12828.736400       0.974824
    12845.215200       0.973666
    12861.736300       0.972488
    12878.300100       0.971290
    12894.906500       0.970072
    12911.555800       0.968835
    12928.248200       0.967580
    12944.983800       0.966307
    12961.762800       0.965016
    12978.585300       0.963707
    12995.451600       0.962382
    13012.361700       0.961040
    13029.316000       0.959682
    13046.314400       0.958309
    13063.357300       0.956920
    13080.444700       0.955517
    13097.576900       0.954100
    13114.754100       0.952668
    13131.976400       0.951224
    13149.243900       0.949767
    13166.556900       0.948297
    13183.915600       0.946815
    13201.320100       0.945321
    13218.770700       0.943817
    13236.267400       0.942302
    13253.810500       0.940777
    13271.400100       0.939242
    13289.036500       0.937698
    13306.719900       0.936145
    13324.450400       0.934583
    13342.228200       0.933014
    13360.053400       0.931437
    13377.926400       0.929853
    13395.847300       0.928263
    13413.816200       0.926667
    13431.833400       0.925064
    13449.899100       0.923457
    13468.013500       0.921845
    13486.176700       0.920229
    13504.388900       0.918608
    13522.650400       0.916985
    13540.961400       0.915358
    13559.322000       0.913729
    13577.732500       0.912098
    13596.193100       0.910464
    13614.703900       0.908830
    13633.265200       0.907195
    13651.877100       0.905560
    13670.540000       0.903925
    13689.253900       0.902290
    13708.019200       0.900656
    13726.836000       0.899023
    13745.704500       0.897393
    13764.624900       0.895764
    13783.597500       0.894138
    13802.622500       0.892515
    13821.700100       0.890895
    13840.830400       0.889279
    13860.013900       0.887668
    13879.250500       0.886061
    13898.540700       0.884459
    13917.884500       0.882862
    13937.282200       0.881271
    13956.734100       0.879686
    13976.240400       0.878108
    13995.801300       0.876537
    14015.417000       0.874973
    14035.087700       0.873417
    14054.813800       0.871869
    14074.595400       0.870329
    14094.432700       0.868798
    14114.326000       0.867276
    14134.275600       0.865763
    14154.281700       0.864260
    14174.344400       0.862767
    14194.464200       0.861285
    14214.641100       0.859813
    14234.875400       0.858353
    14255.167500       0.856904
    14275.517500       0.855466
    14295.925700       0.854041
    14316.392300       0.852628
    14336.917600       0.851227
    14357.501800       0.849840
    14378.145200       0.848465
    14398.848100       0.847104
    14419.610700       0.845757
    14440.433200       0.844424
    14461.316000       0.843105
    14482.259200       0.841800
    14503.263200       0.840510
    14524.328200       0.839235
    14545.454500       0.837975
    14566.642400       0.836731
    14587.892000       0.835502
    14609.203800       0.834290
    14630.577900       0.833093
    14652.014700       0.831912
    14673.514300       0.830748
    14695.077100       0.829601
    14716.703500       0.828470
    14738.393500       0.827356
    14760.147600       0.826260
    14781.966000       0.825180
    14803.849000       0.824118
    14825.796900       0.823074
    14847.809900       0.822047
    14869.888500       0.821038
    14892.032800       0.820048
    14914.243100       0.819075
    14936.519800       0.818120
    14958.863100       0.817184
    14981.273400       0.816265
    15003.750900       0.815366
    15026.296000       0.814484
    15048.909000       0.813622
    15071.590100       0.812778
    15094.339600       0.811952
    15117.158000       0.811145
    15140.045400       0.810357
    15163.002300       0.809588
    15186.028900       0.808837
    15209.125500       0.808105
    15232.292500       0.807391
    15255.530100       0.806697
    15278.838800       0.806021
    15302.218800       0.805364
    15325.670500       0.804725
    15349.194200       0.804105
    15372.790200       0.803503
    15396.458800       0.802920
    15420.200500       0.802355
    15444.015400       0.801809
    15467.904100       0.801280
    15491.866800       0.800770
    15515.903800       0.800278
    15540.015500       0.799803
    15564.202300       0.799346
    15588.464500       0.798907
    15612.802500       0.798485
    15637.216600       0.798081
    15661.707100       0.797693
    15686.274500       0.797323
    15710.919100       0.796969
    15735.641200       0.796632
    15760.441300       0.796311
    15785.319700       0.796006
    15810.276700       0.795718
    15835.312700       0.795445
    15860.428200       0.795187
    15885.623500       0.794945
    15910.899000       0.794717
    15936.255000       0.794504
    15961.691900       0.794306
    15987.210200       0.794122
    16012.810200       0.793952
    16038.492400       0.793795
    16064.257000       0.793651
    16090.104600       0.793521
    16116.035500       0.793403
    16142.050000       0.793297
    16168.148700       0.793203
    16194.332000       0.793121
    16220.600200       0.793050
    16246.953700       0.792989
    16273.393000       0.792940
    16299.918500       0.792900
    16326.530600       0.792870
    16353.229800       0.792849
    16380.016400       0.792837
    16406.890900       0.792833
    16433.853700       0.792838
    16460.905300       0.792850
    16488.046200       0.792869
    16515.276600       0.792895
    16542.597200       0.792927
    16570.008300       0.792964
    16597.510400       0.793007
    16625.103900       0.793055
    16652.789300       0.793107
    16680.567100       0.793162
    16708.437800       0.793221
    16736.401700       0.793283
    16764.459300       0.793347
    16792.611300       0.793412
    16820.857900       0.793479
    16849.199700       0.793546
    16877.637100       0.793613
    16906.170800       0.793680
    16934.801000       0.793745
    16963.528400       0.793809
    16992.353400       0.793871
    17021.276600       0.793930
    17050.298400       0.793985
    17079.419300       0.794036
    17108.639900       0.794083
    17137.960600       0.794124
    17167.382000       0.794159
    17196.904600       0.794188
    17226.528900       0.794210
    17256.255400       0.794224
    17286.084700       0.794229
    17316.017300       0.794226
    17346.053800       0.794212
    17376.194600       0.794189
    17406.440400       0.794154
    17436.791600       0.794107
    17467.248900       0.794048
    17497.812800       0.793976
    17528.483800       0.793891
    17559.262500       0.793790
    17590.149500       0.793675
    17621.145400       0.793544
    17652.250700       0.793396
    17683.466000       0.793231
    17714.791900       0.793048
    17746.228900       0.792846
    17777.777800       0.792625
    17809.439000       0.792384
    17841.213200       0.792122
    17873.101000       0.791838
    17905.103000       0.791533
    17937.219700       0.791204
    17969.451900       0.790852
    18001.800200       0.790475
    18034.265100       0.790073
    18066.847300       0.789645
    18099.547500       0.789191
    18132.366300       0.788709
    18165.304300       0.788199
    18198.362100       0.787660
    18231.540600       0.787092
    18264.840200       0.786493
    18298.261700       0.785864
    18331.805700       0.785202
    18365.472900       0.784508
    18399.264000       0.783781
    18433.179700       0.783020
    18467.220700       0.782225
    18501.387600       0.781393
    18535.681200       0.780526
    18570.102100       0.779622
    18604.651200       0.778680
    18639.329000       0.777700
    18674.136300       0.776681
    18709.073900       0.775623
    18744.142500       0.774524
    18779.342700       0.773383
    18814.675400       0.772201
    18850.141400       0.770976
    18885.741300       0.769708
    18921.475900       0.768397
    18957.346000       0.767040
    18993.352300       0.765638
    19029.495700       0.764191
    19065.776900       0.762696
    19102.196800       0.761155
    19138.756000       0.759565
    19175.455400       0.757927
    19212.295900       0.756240
    19249.278200       0.754503
    19286.403100       0.752715
    19323.671500       0.750876
    19361.084200       0.748986
    19398.642100       0.747043
    19436.346000       0.745048
    19474.196700       0.742999
    19512.195100       0.740896
    19550.342100       0.738738
    19588.638600       0.736526
    19627.085400       0.734257
    19665.683400       0.731932
    19704.433500       0.729551
    19743.336600       0.727113
    19782.393700       0.724616
    19821.605600       0.722062
    19860.973200       0.719449
    19900.497500       0.716776
    19940.179500       0.714045
    19980.020000       0.711253
    20020.020000       0.708401
    20060.180500       0.705488
    20100.502500       0.702514
    20140.986900       0.699478
    20181.634700       0.696380
    20222.446900       0.693221
    20263.424500       0.689998
    20304.568500       0.686713
    20345.880000       0.683365
    20387.359800       0.679953
    20429.009200       0.676478
    20470.829100       0.672939
    20512.820500       0.669335
    20554.984600       0.665668
    20597.322300       0.661936
    20639.834900       0.658139
    20682.523300       0.654278
    20725.388600       0.650352
    20768.432000       0.646361
    20811.654500       0.642305
    20855.057400       0.638183
    20898.641600       0.633997
    20942.408400       0.629746
    20986.358900       0.625430
    21030.494200       0.621048
    21074.815600       0.616602
    21119.324200       0.612091
    21164.021200       0.607516
    21208.907700       0.602875
    21253.985100       0.598171
    21299.254500       0.593402
    21344.717200       0.588569
    21390.374300       0.583673
    21436.227200       0.578713
    21482.277100       0.573690
    21528.525300       0.568605
    21574.973000       0.563457
    21621.621600       0.558247
    21668.472400       0.552975
    21715.526600       0.547643
    21762.785600       0.542250
    21810.250800       0.536797
    21857.923500       0.531284
    21905.805000       0.525712
    21953.896800       0.520082
    22002.200200       0.514395
    22050.716600       0.508650
    22099.447500       0.502849
    22148.394200       0.496993
    22197.558300       0.491082
    22246.941000       0.485117
    22296.544000       0.479100
    22346.368700       0.473030
    22396.416600       0.466909
    22446.689100       0.460738
    22497.187900       0.454518
    22547.914300       0.448250
    22598.870100       0.441934
    22650.056600       0.435573
    22701.475600       0.429168
    22753.128600       0.422719
    22805.017100       0.416227
    22857.142900       0.409695
    22909.507400       0.403123
    22962.112500       0.396513
    23014.959700       0.389867
    23068.050700       0.383185
    23121.387300       0.376469
    23174.971000       0.369722
    23228.803700       0.362943
    23282.887100       0.356136
    23337.222900       0.349302
    23391.812900       0.342442
    23446.658900       0.335559
    23501.762600       0.328654
    23557.126000       0.321729
    23612.750900       0.314786
    23668.639100       0.307827
    23724.792400       0.300854
    23781.212800       0.293870
    23837.902300       0.286875
    23894.862600       0.279874
    23952.095800       0.272867
    24009.603800       0.265857
    24067.388700       0.258847
    24125.452400       0.251839
    24183.796900       0.244835
    24242.424200       0.237838
    24301.336600       0.230850
    24360.535900       0.223874
    24420.024400       0.216914
    24479.804200       0.209970
    24539.877300       0.203048
    24600.246000       0.196148
    24660.912500       0.189275
    24721.878900       0.182431
    24783.147500       0.175618
    24844.720500       0.168842
    24906.600200       0.162103
    24968.789000       0.155407
    25031.289100       0.148755
    25094.102900       0.142152
    25157.232700       0.135600
    25220.681000       0.129104
    25284.450100       0.122667
    25348.542500       0.116291
    25412.960600       0.109983
    25477.707000       0.103744
