2,   from FY-3C_VIRR_SRF.xlsx (col P) Dr. Prof. SUN Ling (April 2019)
Number of data points:
139
Wavenumber (cm-1)   Filter response
    17543.859600       0.000159
    17574.692400       0.000085
    17605.633800       0.000125
    17636.684300       0.000175
    17667.844500       0.000182
    17699.115000       0.000079
    17730.496500       0.000085
    17761.989300       0.000120
    17793.594300       0.000196
    17825.311900       0.000034
    17857.142900       0.000123
    17889.087700       0.000076
    17921.147000       0.000024
    17953.321400       0.000164
    17985.611500       0.000084
    18018.018000       0.000140
    18050.541500       0.000145
    18083.182600       0.000178
    18115.942000       0.000095
    18148.820300       0.000173
    18181.818200       0.000109
    18214.936200       0.000063
    18248.175200       0.000173
    18281.535600       0.000145
    18315.018300       0.000027
    18348.623900       0.000040
    18382.352900       0.000133
    18416.206300       0.000122
    18450.184500       0.002308
    18484.288400       0.002352
    18518.518500       0.002240
    18552.875700       0.006588
    18587.360600       0.016910
    18621.973900       0.022380
    18656.716400       0.038250
    18691.588800       0.053610
    18726.591800       0.075510
    18761.726100       0.098090
    18796.992500       0.133800
    18832.391700       0.175100
    18867.924500       0.233500
    18903.591700       0.292600
    18939.393900       0.364100
    18975.332100       0.431500
    19011.406800       0.492600
    19047.619000       0.544000
    19083.969500       0.591200
    19120.458900       0.623000
    19157.088100       0.636500
    19193.858000       0.649700
    19230.769200       0.659100
    19267.822700       0.671300
    19305.019300       0.684900
    19342.359800       0.706600
    19379.845000       0.715300
    19417.475700       0.740900
    19455.252900       0.750800
    19493.177400       0.793700
    19531.250000       0.828000
    19569.471600       0.881200
    19607.843100       0.923400
    19646.365400       0.969100
    19685.039400       0.987300
    19723.865900       1.000000
    19762.845800       0.982300
    19801.980200       0.954900
    19841.269800       0.927100
    19880.715700       0.897400
    19920.318700       0.871600
    19960.079800       0.859100
    20000.000000       0.846800
    20040.080200       0.836500
    20080.321300       0.839200
    20120.724300       0.835400
    20161.290300       0.838300
    20202.020200       0.823200
    20242.915000       0.826000
    20283.975700       0.813800
    20325.203300       0.821400
    20366.598800       0.820300
    20408.163300       0.825800
    20449.897800       0.817300
    20491.803300       0.809200
    20533.880900       0.777900
    20576.131700       0.750800
    20618.556700       0.702000
    20661.157000       0.669600
    20703.933700       0.631500
    20746.888000       0.609600
    20790.020800       0.584700
    20833.333300       0.544000
    20876.826700       0.498900
    20920.502100       0.443800
    20964.360600       0.373500
    21008.403400       0.303100
    21052.631600       0.235700
    21097.046400       0.186300
    21141.649000       0.151000
    21186.440700       0.123400
    21231.422500       0.101000
    21276.595700       0.086320
    21321.961600       0.068380
    21367.521400       0.050830
    21413.276200       0.030790
    21459.227500       0.019250
    21505.376300       0.006595
    21551.724100       0.000002
    21598.272100       0.000064
    21645.021600       0.000117
    21691.974000       0.000031
    21739.130400       0.000064
    21786.492400       0.000181
    21834.061100       0.000167
    21881.838100       0.000026
    21929.824600       0.000169
    21978.022000       0.000077
    22026.431700       0.000176
    22075.055200       0.000095
    22123.893800       0.000060
    22172.949000       0.000137
    22222.222200       0.000051
    22271.714900       0.000128
    22321.428600       0.000120
    22371.364700       0.000022
    22421.524700       0.000136
    22471.910100       0.000091
    22522.522500       0.000146
    22573.363400       0.000107
    22624.434400       0.000202
    22675.737000       0.000157
    22727.272700       0.000071
    22779.043300       0.000114
    22831.050200       0.000104
    22883.295200       0.000090
    22935.779800       0.000170
    22988.505700       0.000132
    23041.474700       0.000085
    23094.688200       0.000091
    23148.148100       0.000170
