137,   137, MVIRI VIS channel from srf_MET7_2014258_2014259_1801-Release_S10EE_10.dat
Number of data points:
793
Wavenumber (cm-1)   Filter response
     8442.380800       0.000000
     8449.514200       0.000000
     8456.659600       0.000004
     8463.817200       0.000057
     8470.986900       0.000168
     8478.168700       0.000337
     8485.362700       0.000560
     8492.569000       0.000838
     8499.787500       0.001167
     8507.018300       0.001547
     8514.261400       0.001977
     8521.516800       0.002454
     8528.784600       0.002977
     8536.064900       0.003545
     8543.357500       0.004158
     8550.662700       0.004812
     8557.980300       0.005509
     8565.310500       0.006245
     8572.653200       0.007021
     8580.008600       0.007835
     8587.376600       0.008686
     8594.757200       0.009573
     8602.150500       0.010495
     8609.556600       0.011452
     8616.975400       0.012443
     8624.407100       0.013466
     8631.851500       0.014521
     8639.308900       0.015608
     8646.779100       0.016725
     8654.262200       0.017871
     8661.758300       0.019047
     8669.267400       0.020252
     8676.789600       0.021485
     8684.324800       0.022745
     8691.873100       0.024032
     8699.434500       0.025345
     8707.009100       0.026685
     8714.596900       0.028050
     8722.198000       0.029440
     8729.812300       0.030855
     8737.439900       0.032295
     8745.080900       0.033758
     8752.735200       0.035245
     8760.403000       0.036756
     8768.084200       0.038289
     8775.778900       0.039845
     8783.487000       0.041425
     8791.208800       0.043026
     8798.944100       0.044650
     8806.693100       0.046295
     8814.455700       0.047963
     8822.232000       0.049652
     8830.022100       0.051362
     8837.825900       0.053094
     8845.643500       0.054848
     8853.475000       0.056622
     8861.320300       0.058417
     8869.179600       0.060234
     8877.052800       0.062072
     8884.940000       0.063930
     8892.841300       0.065809
     8900.756600       0.067709
     8908.686000       0.069630
     8916.629500       0.071572
     8924.587200       0.073535
     8932.559200       0.075518
     8940.545400       0.077522
     8948.545900       0.079547
     8956.560700       0.081593
     8964.589900       0.083660
     8972.633500       0.085748
     8980.691500       0.087857
     8988.764000       0.089987
     8996.851100       0.092138
     9004.952700       0.094310
     9013.068900       0.096503
     9021.199800       0.098718
     9029.345400       0.100955
     9037.505600       0.103212
     9045.680700       0.105491
     9053.870500       0.107792
     9062.075200       0.110115
     9070.294800       0.112459
     9078.529300       0.114825
     9086.778700       0.117213
     9095.043200       0.119624
     9103.322700       0.122056
     9111.617300       0.124511
     9119.927000       0.126987
     9128.251900       0.129487
     9136.592100       0.132009
     9144.947400       0.134553
     9153.318100       0.137120
     9161.704100       0.139710
     9170.105500       0.142323
     9178.522300       0.144958
     9186.954500       0.147617
     9195.402300       0.150299
     9203.865600       0.153003
     9212.344500       0.155731
     9220.839100       0.158483
     9229.349300       0.161257
     9237.875300       0.164055
     9246.417000       0.166876
     9254.974500       0.169721
     9263.547900       0.172590
     9272.137200       0.175482
     9280.742500       0.178397
     9289.363700       0.181336
     9298.000900       0.184300
     9306.654300       0.187286
     9315.323700       0.190297
     9324.009300       0.193331
     9332.711200       0.196389
     9341.429200       0.199471
     9350.163600       0.202577
     9358.914400       0.205706
     9367.681500       0.208859
     9376.465100       0.212036
     9385.265100       0.215236
     9394.081700       0.218461
     9402.914900       0.221708
     9411.764700       0.224980
     9420.631200       0.228275
     9429.514400       0.231594
     9438.414300       0.234936
     9447.331100       0.238301
     9456.264800       0.241690
     9465.215300       0.245103
     9474.182900       0.248538
     9483.167400       0.251996
     9492.169000       0.255478
     9501.187600       0.258982
     9510.223500       0.262510
     9519.276500       0.266059
     9528.346800       0.269632
     9537.434400       0.273227
     9546.539400       0.276844
     9555.661700       0.280483
     9564.801500       0.284144
     9573.958800       0.287828
     9583.133700       0.291533
     9592.326100       0.295259
     9601.536200       0.299007
     9610.764100       0.302775
     9620.009600       0.306566
     9629.273000       0.310377
     9638.554200       0.314208
     9647.853400       0.318060
     9657.170400       0.321931
     9666.505600       0.325824
     9675.858700       0.329735
     9685.230000       0.333666
     9694.619500       0.337617
     9704.027200       0.341586
     9713.453100       0.345575
     9722.897400       0.349582
     9732.360100       0.353607
     9741.841200       0.357650
     9751.340800       0.361711
     9760.859000       0.365789
     9770.395700       0.369885
     9779.951100       0.373997
     9789.525200       0.378126
     9799.118100       0.382272
     9808.729800       0.386433
     9818.360300       0.390610
     9828.009800       0.394802
     9837.678300       0.399009
     9847.365800       0.403231
     9857.072400       0.407467
     9866.798200       0.411717
     9876.543200       0.415981
     9886.307500       0.420258
     9896.091000       0.424549
     9905.894000       0.428851
     9915.716400       0.433166
     9925.558300       0.437493
     9935.419800       0.441831
     9945.300800       0.446181
     9955.201600       0.450541
     9965.122100       0.454911
     9975.062300       0.459291
     9985.022500       0.463681
     9995.002500       0.468080
    10005.002500       0.472488
    10015.022500       0.476904
    10025.062700       0.481328
    10035.122900       0.485759
    10045.203400       0.490198
    10055.304200       0.494643
    10065.425300       0.499094
    10075.566800       0.503551
    10085.728700       0.508014
    10095.911200       0.512482
    10106.114200       0.516953
    10116.337900       0.521429
    10126.582300       0.525909
    10136.847400       0.530391
    10147.133400       0.534877
    10157.440300       0.539365
    10167.768200       0.543854
    10178.117000       0.548345
    10188.487000       0.552836
    10198.878100       0.557329
    10209.290500       0.561820
    10219.724100       0.566312
    10230.179000       0.570802
    10240.655400       0.575292
    10251.153300       0.579779
    10261.672700       0.584263
    10272.213700       0.588745
    10282.776300       0.593224
    10293.360800       0.597699
    10303.967000       0.602169
    10314.595200       0.606635
    10325.245200       0.611095
    10335.917300       0.615550
    10346.611500       0.619998
    10357.327800       0.624440
    10368.066400       0.628875
    10378.827200       0.633302
    10389.610400       0.637721
    10400.416000       0.642132
    10411.244100       0.646533
    10422.094800       0.650925
    10432.968200       0.655307
    10443.864200       0.659678
    10454.783100       0.664039
    10465.724800       0.668387
    10476.689400       0.672724
    10487.677000       0.677049
    10498.687700       0.681361
    10509.721500       0.685660
    10520.778500       0.689944
    10531.858900       0.694215
    10542.962600       0.698471
    10554.089700       0.702711
    10565.240400       0.706936
    10576.414600       0.711145
    10587.612500       0.715337
    10598.834100       0.719513
    10610.079600       0.723670
    10621.348900       0.727810
    10632.642200       0.731931
    10643.959600       0.736034
    10655.301000       0.740118
    10666.666700       0.744181
    10678.056600       0.748225
    10689.470900       0.752247
    10700.909600       0.756250
    10712.372800       0.760230
    10723.860600       0.764188
    10735.373100       0.768125
    10746.910300       0.772038
    10758.472300       0.775929
    10770.059200       0.779796
    10781.671200       0.783638
    10793.308100       0.787457
    10804.970300       0.791251
    10816.657700       0.795019
    10828.370300       0.798762
    10840.108400       0.802479
    10851.871900       0.806170
    10863.661100       0.809834
    10875.475800       0.813471
    10887.316300       0.817081
    10899.182600       0.820662
    10911.074700       0.824216
    10922.992900       0.827740
    10934.937100       0.831236
    10946.907500       0.834703
    10958.904100       0.838140
    10970.927000       0.841547
    10982.976400       0.844924
    10995.052200       0.848270
    11007.154700       0.851585
    11019.283700       0.854869
    11031.439600       0.858122
    11043.622300       0.861342
    11055.832000       0.864530
    11068.068600       0.867686
    11080.332400       0.870809
    11092.623400       0.873899
    11104.941700       0.876956
    11117.287400       0.879979
    11129.660500       0.882968
    11142.061300       0.885923
    11154.489700       0.888843
    11166.945800       0.891729
    11179.429800       0.894580
    11191.941800       0.897396
    11204.481800       0.900176
    11217.049900       0.902921
    11229.646300       0.905629
    11242.270900       0.908302
    11254.924000       0.910939
    11267.605600       0.913538
    11280.315800       0.916102
    11293.054800       0.918628
    11305.822500       0.921117
    11318.619100       0.923570
    11331.444800       0.925984
    11344.299500       0.928361
    11357.183400       0.930701
    11370.096600       0.933002
    11383.039300       0.935266
    11396.011400       0.937491
    11409.013100       0.939678
    11422.044500       0.941827
    11435.105800       0.943937
    11448.196900       0.946008
    11461.318100       0.948041
    11474.469300       0.950035
    11487.650800       0.951989
    11500.862600       0.953905
    11514.104800       0.955782
    11527.377500       0.957619
    11540.680900       0.959417
    11554.015000       0.961176
    11567.380000       0.962895
    11580.775900       0.964575
    11594.202900       0.966216
    11607.661100       0.967817
    11621.150500       0.969379
    11634.671300       0.970901
    11648.223600       0.972383
    11661.807600       0.973826
    11675.423200       0.975230
    11689.070700       0.976593
    11702.750100       0.977918
    11716.461600       0.979203
    11730.205300       0.980448
    11743.981200       0.981654
    11757.789500       0.982821
    11771.630400       0.983948
    11785.503800       0.985036
    11799.410000       0.986085
    11813.349100       0.987094
    11827.321100       0.988065
    11841.326200       0.988997
    11855.364600       0.989889
    11869.436200       0.990743
    11883.541300       0.991559
    11897.680000       0.992335
    11911.852300       0.993073
    11926.058400       0.993773
    11940.298500       0.994435
    11954.572600       0.995059
    11968.880900       0.995644
    11983.223500       0.996192
    11997.600500       0.996703
    12012.012000       0.997176
    12026.458200       0.997611
    12040.939200       0.998010
    12055.455100       0.998371
    12070.006000       0.998696
    12084.592100       0.998984
    12099.213600       0.999236
    12113.870400       0.999452
    12128.562800       0.999632
    12143.290800       0.999776
    12158.054700       0.999885
    12172.854500       0.999958
    12187.690400       0.999996
    12202.562500       1.000000
    12217.471000       0.999969
    12232.415900       0.999904
    12247.397400       0.999805
    12262.415700       0.999672
    12277.470800       0.999505
    12292.563000       0.999305
    12307.692300       0.999073
    12322.858900       0.998807
    12338.062900       0.998510
    12353.304500       0.998180
    12368.583800       0.997818
    12383.900900       0.997425
    12399.256000       0.997001
    12414.649300       0.996546
    12430.080800       0.996060
    12445.550700       0.995545
    12461.059200       0.994999
    12476.606400       0.994424
    12492.192400       0.993820
    12507.817400       0.993187
    12523.481500       0.992525
    12539.185000       0.991835
    12554.927800       0.991118
    12570.710200       0.990373
    12586.532400       0.989600
    12602.394500       0.988802
    12618.296500       0.987977
    12634.238800       0.987125
    12650.221400       0.986249
    12666.244500       0.985347
    12682.308200       0.984420
    12698.412700       0.983469
    12714.558200       0.982494
    12730.744700       0.981495
    12746.972600       0.980474
    12763.241900       0.979429
    12779.552700       0.978362
    12795.905300       0.977272
    12812.299800       0.976162
    12828.736400       0.975030
    12845.215200       0.973877
    12861.736300       0.972704
    12878.300100       0.971511
    12894.906500       0.970299
    12911.555800       0.969067
    12928.248200       0.967817
    12944.983800       0.966549
    12961.762800       0.965263
    12978.585300       0.963959
    12995.451600       0.962639
    13012.361700       0.961302
    13029.316000       0.959950
    13046.314400       0.958581
    13063.357300       0.957198
    13080.444700       0.955800
    13097.576900       0.954387
    13114.754100       0.952961
    13131.976400       0.951522
    13149.243900       0.950069
    13166.556900       0.948604
    13183.915600       0.947127
    13201.320100       0.945639
    13218.770700       0.944140
    13236.267400       0.942630
    13253.810500       0.941109
    13271.400100       0.939579
    13289.036500       0.938040
    13306.719900       0.936492
    13324.450400       0.934935
    13342.228200       0.933371
    13360.053400       0.931799
    13377.926400       0.930220
    13395.847300       0.928635
    13413.816200       0.927043
    13431.833400       0.925446
    13449.899100       0.923844
    13468.013500       0.922236
    13486.176700       0.920625
    13504.388900       0.919009
    13522.650400       0.917390
    13540.961400       0.915769
    13559.322000       0.914144
    13577.732500       0.912518
    13596.193100       0.910890
    13614.703900       0.909260
    13633.265200       0.907630
    13651.877100       0.905999
    13670.540000       0.904369
    13689.253900       0.902739
    13708.019200       0.901110
    13726.836000       0.899482
    13745.704500       0.897856
    13764.624900       0.896232
    13783.597500       0.894611
    13802.622500       0.892992
    13821.700100       0.891377
    13840.830400       0.889766
    13860.013900       0.888159
    13879.250500       0.886557
    13898.540700       0.884960
    13917.884500       0.883368
    13937.282200       0.881781
    13956.734100       0.880201
    13976.240400       0.878628
    13995.801300       0.877062
    14015.417000       0.875502
    14035.087700       0.873951
    14054.813800       0.872407
    14074.595400       0.870872
    14094.432700       0.869345
    14114.326000       0.867828
    14134.275600       0.866320
    14154.281700       0.864822
    14174.344400       0.863334
    14194.464200       0.861856
    14214.641100       0.860389
    14234.875400       0.858934
    14255.167500       0.857489
    14275.517500       0.856056
    14295.925700       0.854636
    14316.392300       0.853227
    14336.917600       0.851832
    14357.501800       0.850449
    14378.145200       0.849079
    14398.848100       0.847723
    14419.610700       0.846380
    14440.433200       0.845051
    14461.316000       0.843737
    14482.259200       0.842437
    14503.263200       0.841152
    14524.328200       0.839882
    14545.454500       0.838627
    14566.642400       0.837387
    14587.892000       0.836163
    14609.203800       0.834955
    14630.577900       0.833763
    14652.014700       0.832587
    14673.514300       0.831428
    14695.077100       0.830285
    14716.703500       0.829160
    14738.393500       0.828051
    14760.147600       0.826959
    14781.966000       0.825884
    14803.849000       0.824827
    14825.796900       0.823788
    14847.809900       0.822766
    14869.888500       0.821762
    14892.032800       0.820776
    14914.243100       0.819808
    14936.519800       0.818859
    14958.863100       0.817927
    14981.273400       0.817014
    15003.750900       0.816119
    15026.296000       0.815243
    15048.909000       0.814386
    15071.590100       0.813547
    15094.339600       0.812726
    15117.158000       0.811924
    15140.045400       0.811141
    15163.002300       0.810377
    15186.028900       0.809631
    15209.125500       0.808905
    15232.292500       0.808197
    15255.530100       0.807507
    15278.838800       0.806837
    15302.218800       0.806185
    15325.670500       0.805551
    15349.194200       0.804936
    15372.790200       0.804340
    15396.458800       0.803762
    15420.200500       0.803203
    15444.015400       0.802662
    15467.904100       0.802139
    15491.866800       0.801634
    15515.903800       0.801147
    15540.015500       0.800678
    15564.202300       0.800227
    15588.464500       0.799793
    15612.802500       0.799377
    15637.216600       0.798978
    15661.707100       0.798597
    15686.274500       0.798232
    15710.919100       0.797884
    15735.641200       0.797552
    15760.441300       0.797237
    15785.319700       0.796939
    15810.276700       0.796656
    15835.312700       0.796388
    15860.428200       0.796137
    15885.623500       0.795900
    15910.899000       0.795679
    15936.255000       0.795472
    15961.691900       0.795280
    15987.210200       0.795102
    16012.810200       0.794938
    16038.492400       0.794787
    16064.257000       0.794649
    16090.104600       0.794525
    16116.035500       0.794413
    16142.050000       0.794314
    16168.148700       0.794226
    16194.332000       0.794150
    16220.600200       0.794085
    16246.953700       0.794031
    16273.393000       0.793988
    16299.918500       0.793955
    16326.530600       0.793931
    16353.229800       0.793916
    16380.016400       0.793911
    16406.890900       0.793914
    16433.853700       0.793925
    16460.905300       0.793943
    16488.046200       0.793969
    16515.276600       0.794001
    16542.597200       0.794040
    16570.008300       0.794084
    16597.510400       0.794134
    16625.103900       0.794188
    16652.789300       0.794247
    16680.567100       0.794309
    16708.437800       0.794375
    16736.401700       0.794443
    16764.459300       0.794514
    16792.611300       0.794586
    16820.857900       0.794660
    16849.199700       0.794734
    16877.637100       0.794808
    16906.170800       0.794881
    16934.801000       0.794954
    16963.528400       0.795025
    16992.353400       0.795093
    17021.276600       0.795159
    17050.298400       0.795221
    17079.419300       0.795279
    17108.639900       0.795333
    17137.960600       0.795381
    17167.382000       0.795424
    17196.904600       0.795459
    17226.528900       0.795488
    17256.255400       0.795509
    17286.084700       0.795522
    17316.017300       0.795525
    17346.053800       0.795519
    17376.194600       0.795502
    17406.440400       0.795474
    17436.791600       0.795435
    17467.248900       0.795383
    17497.812800       0.795318
    17528.483800       0.795239
    17559.262500       0.795146
    17590.149500       0.795037
    17621.145400       0.794913
    17652.250700       0.794772
    17683.466000       0.794614
    17714.791900       0.794438
    17746.228900       0.794243
    17777.777800       0.794029
    17809.439000       0.793795
    17841.213200       0.793540
    17873.101000       0.793263
    17905.103000       0.792964
    17937.219700       0.792642
    17969.451900       0.792296
    18001.800200       0.791926
    18034.265100       0.791531
    18066.847300       0.791110
    18099.547500       0.790662
    18132.366300       0.790187
    18165.304300       0.789683
    18198.362100       0.789151
    18231.540600       0.788589
    18264.840200       0.787997
    18298.261700       0.787373
    18331.805700       0.786718
    18365.472900       0.786030
    18399.264000       0.785309
    18433.179700       0.784555
    18467.220700       0.783765
    18501.387600       0.782940
    18535.681200       0.782078
    18570.102100       0.781180
    18604.651200       0.780244
    18639.329000       0.779269
    18674.136300       0.778256
    18709.073900       0.777203
    18744.142500       0.776109
    18779.342700       0.774974
    18814.675400       0.773797
    18850.141400       0.772577
    18885.741300       0.771314
    18921.475900       0.770007
    18957.346000       0.768656
    18993.352300       0.767259
    19029.495700       0.765816
    19065.776900       0.764326
    19102.196800       0.762789
    19138.756000       0.761203
    19175.455400       0.759569
    19212.295900       0.757886
    19249.278200       0.756153
    19286.403100       0.754369
    19323.671500       0.752534
    19361.084200       0.750647
    19398.642100       0.748708
    19436.346000       0.746715
    19474.196700       0.744669
    19512.195100       0.742569
    19550.342100       0.740414
    19588.638600       0.738204
    19627.085400       0.735938
    19665.683400       0.733616
    19704.433500       0.731237
    19743.336600       0.728800
    19782.393700       0.726306
    19821.605600       0.723753
    19860.973200       0.721141
    19900.497500       0.718470
    19940.179500       0.715740
    19980.020000       0.712949
    20020.020000       0.710097
    20060.180500       0.707185
    20100.502500       0.704211
    20140.986900       0.701176
    20181.634700       0.698078
    20222.446900       0.694918
    20263.424500       0.691695
    20304.568500       0.688409
    20345.880000       0.685060
    20387.359800       0.681647
    20429.009200       0.678171
    20470.829100       0.674630
    20512.820500       0.671025
    20554.984600       0.667356
    20597.322300       0.663621
    20639.834900       0.659822
    20682.523300       0.655958
    20725.388600       0.652029
    20768.432000       0.648035
    20811.654500       0.643976
    20855.057400       0.639851
    20898.641600       0.635661
    20942.408400       0.631406
    20986.358900       0.627085
    21030.494200       0.622699
    21074.815600       0.618248
    21119.324200       0.613732
    21164.021200       0.609151
    21208.907700       0.604505
    21253.985100       0.599795
    21299.254500       0.595020
    21344.717200       0.590181
    21390.374300       0.585278
    21436.227200       0.580311
    21482.277100       0.575281
    21528.525300       0.570188
    21574.973000       0.565032
    21621.621600       0.559814
    21668.472400       0.554534
    21715.526600       0.549193
    21762.785600       0.543791
    21810.250800       0.538328
    21857.923500       0.532806
    21905.805000       0.527225
    21953.896800       0.521585
    22002.200200       0.515887
    22050.716600       0.510132
    22099.447500       0.504320
    22148.394200       0.498452
    22197.558300       0.492530
    22246.941000       0.486553
    22296.544000       0.480524
    22346.368700       0.474442
    22396.416600       0.468308
    22446.689100       0.462124
    22497.187900       0.455891
    22547.914300       0.449609
    22598.870100       0.443280
    22650.056600       0.436905
    22701.475600       0.430485
    22753.128600       0.424021
    22805.017100       0.417515
    22857.142900       0.410967
    22909.507400       0.404380
    22962.112500       0.397755
    23014.959700       0.391092
    23068.050700       0.384394
    23121.387300       0.377662
    23174.971000       0.370897
    23228.803700       0.364102
    23282.887100       0.357278
    23337.222900       0.350426
    23391.812900       0.343549
    23446.658900       0.336647
    23501.762600       0.329724
    23557.126000       0.322780
    23612.750900       0.315819
    23668.639100       0.308841
    23724.792400       0.301849
    23781.212800       0.294845
    23837.902300       0.287832
    23894.862600       0.280810
    23952.095800       0.273783
    24009.603800       0.266754
    24067.388700       0.259723
    24125.452400       0.252694
    24183.796900       0.245670
    24242.424200       0.238652
    24301.336600       0.231643
    24360.535900       0.224647
    24420.024400       0.217665
    24479.804200       0.210700
    24539.877300       0.203756
    24600.246000       0.196835
    24660.912500       0.189940
    24721.878900       0.183074
    24783.147500       0.176240
    24844.720500       0.169442
    24906.600200       0.162682
    24968.789000       0.155963
    25031.289100       0.149290
    25094.102900       0.142665
    25157.232700       0.136092
    25220.681000       0.129573
    25284.450100       0.123114
    25348.542500       0.116718
    25412.960600       0.110387
    25477.707000       0.104127
