75,   75, MVIRI VIS channel from srf_MET2_1991168_1991169_1801-Release_S10EL_10.dat
Number of data points:
730
Wavenumber (cm-1)   Filter response
     8916.629500       0.000000
     8924.587200       0.000000
     8932.559200       0.000002
     8940.545400       0.000012
     8948.545900       0.000033
     8956.560700       0.000070
     8964.589900       0.000128
     8972.633500       0.000211
     8980.691500       0.000324
     8988.764000       0.000469
     8996.851100       0.000650
     9004.952700       0.000872
     9013.068900       0.001138
     9021.199800       0.001450
     9029.345400       0.001812
     9037.505600       0.002227
     9045.680700       0.002698
     9053.870500       0.003227
     9062.075200       0.003817
     9070.294800       0.004470
     9078.529300       0.005188
     9086.778700       0.005975
     9095.043200       0.006830
     9103.322700       0.007758
     9111.617300       0.008758
     9119.927000       0.009834
     9128.251900       0.010986
     9136.592100       0.012216
     9144.947400       0.013525
     9153.318100       0.014914
     9161.704100       0.016385
     9170.105500       0.017938
     9178.522300       0.019575
     9186.954500       0.021296
     9195.402300       0.023103
     9203.865600       0.024994
     9212.344500       0.026972
     9220.839100       0.029037
     9229.349300       0.031189
     9237.875300       0.033428
     9246.417000       0.035754
     9254.974500       0.038169
     9263.547900       0.040671
     9272.137200       0.043261
     9280.742500       0.045938
     9289.363700       0.048703
     9298.000900       0.051556
     9306.654300       0.054497
     9315.323700       0.057523
     9324.009300       0.060637
     9332.711200       0.063837
     9341.429200       0.067122
     9350.163600       0.070492
     9358.914400       0.073947
     9367.681500       0.077485
     9376.465100       0.081107
     9385.265100       0.084812
     9394.081700       0.088598
     9402.914900       0.092465
     9411.764700       0.096412
     9420.631200       0.100439
     9429.514400       0.104543
     9438.414300       0.108725
     9447.331100       0.112983
     9456.264800       0.117317
     9465.215300       0.121724
     9474.182900       0.126205
     9483.167400       0.130758
     9492.169000       0.135381
     9501.187600       0.140075
     9510.223500       0.144837
     9519.276500       0.149666
     9528.346800       0.154561
     9537.434400       0.159521
     9546.539400       0.164545
     9555.661700       0.169631
     9564.801500       0.174777
     9573.958800       0.179983
     9583.133700       0.185248
     9592.326100       0.190569
     9601.536200       0.195945
     9610.764100       0.201376
     9620.009600       0.206859
     9629.273000       0.212394
     9638.554200       0.217979
     9647.853400       0.223612
     9657.170400       0.229292
     9666.505600       0.235017
     9675.858700       0.240787
     9685.230000       0.246599
     9694.619500       0.252453
     9704.027200       0.258346
     9713.453100       0.264278
     9722.897400       0.270247
     9732.360100       0.276251
     9741.841200       0.282289
     9751.340800       0.288359
     9760.859000       0.294461
     9770.395700       0.300592
     9779.951100       0.306751
     9789.525200       0.312937
     9799.118100       0.319149
     9808.729800       0.325383
     9818.360300       0.331641
     9828.009800       0.337919
     9837.678300       0.344217
     9847.365800       0.350533
     9857.072400       0.356865
     9866.798200       0.363213
     9876.543200       0.369575
     9886.307500       0.375949
     9896.091000       0.382335
     9905.894000       0.388730
     9915.716400       0.395134
     9925.558300       0.401544
     9935.419800       0.407961
     9945.300800       0.414382
     9955.201600       0.420806
     9965.122100       0.427232
     9975.062300       0.433658
     9985.022500       0.440084
     9995.002500       0.446508
    10005.002500       0.452928
    10015.022500       0.459344
    10025.062700       0.465754
    10035.122900       0.472158
    10045.203400       0.478553
    10055.304200       0.484939
    10065.425300       0.491315
    10075.566800       0.497679
    10085.728700       0.504030
    10095.911200       0.510368
    10106.114200       0.516690
    10116.337900       0.522997
    10126.582300       0.529286
    10136.847400       0.535558
    10147.133400       0.541810
    10157.440300       0.548042
    10167.768200       0.554252
    10178.117000       0.560441
    10188.487000       0.566606
    10198.878100       0.572748
    10209.290500       0.578864
    10219.724100       0.584954
    10230.179000       0.591017
    10240.655400       0.597053
    10251.153300       0.603059
    10261.672700       0.609037
    10272.213700       0.614983
    10282.776300       0.620899
    10293.360800       0.626783
    10303.967000       0.632634
    10314.595200       0.638451
    10325.245200       0.644234
    10335.917300       0.649983
    10346.611500       0.655695
    10357.327800       0.661370
    10368.066400       0.667009
    10378.827200       0.672610
    10389.610400       0.678172
    10400.416000       0.683695
    10411.244100       0.689179
    10422.094800       0.694622
    10432.968200       0.700024
    10443.864200       0.705385
    10454.783100       0.710704
    10465.724800       0.715980
    10476.689400       0.721213
    10487.677000       0.726402
    10498.687700       0.731548
    10509.721500       0.736648
    10520.778500       0.741704
    10531.858900       0.746714
    10542.962600       0.751679
    10554.089700       0.756597
    10565.240400       0.761468
    10576.414600       0.766292
    10587.612500       0.771069
    10598.834100       0.775798
    10610.079600       0.780479
    10621.348900       0.785112
    10632.642200       0.789695
    10643.959600       0.794230
    10655.301000       0.798716
    10666.666700       0.803152
    10678.056600       0.807538
    10689.470900       0.811874
    10700.909600       0.816160
    10712.372800       0.820396
    10723.860600       0.824580
    10735.373100       0.828714
    10746.910300       0.832797
    10758.472300       0.836829
    10770.059200       0.840810
    10781.671200       0.844739
    10793.308100       0.848617
    10804.970300       0.852443
    10816.657700       0.856217
    10828.370300       0.859940
    10840.108400       0.863611
    10851.871900       0.867229
    10863.661100       0.870797
    10875.475800       0.874312
    10887.316300       0.877775
    10899.182600       0.881186
    10911.074700       0.884545
    10922.992900       0.887852
    10934.937100       0.891107
    10946.907500       0.894310
    10958.904100       0.897462
    10970.927000       0.900561
    10982.976400       0.903609
    10995.052200       0.906605
    11007.154700       0.909550
    11019.283700       0.912443
    11031.439600       0.915285
    11043.622300       0.918076
    11055.832000       0.920815
    11068.068600       0.923503
    11080.332400       0.926141
    11092.623400       0.928727
    11104.941700       0.931263
    11117.287400       0.933749
    11129.660500       0.936184
    11142.061300       0.938570
    11154.489700       0.940905
    11166.945800       0.943191
    11179.429800       0.945427
    11191.941800       0.947614
    11204.481800       0.949751
    11217.049900       0.951840
    11229.646300       0.953880
    11242.270900       0.955872
    11254.924000       0.957815
    11267.605600       0.959710
    11280.315800       0.961558
    11293.054800       0.963358
    11305.822500       0.965111
    11318.619100       0.966817
    11331.444800       0.968477
    11344.299500       0.970089
    11357.183400       0.971656
    11370.096600       0.973177
    11383.039300       0.974652
    11396.011400       0.976082
    11409.013100       0.977467
    11422.044500       0.978807
    11435.105800       0.980102
    11448.196900       0.981354
    11461.318100       0.982561
    11474.469300       0.983725
    11487.650800       0.984846
    11500.862600       0.985924
    11514.104800       0.986959
    11527.377500       0.987952
    11540.680900       0.988904
    11554.015000       0.989813
    11567.380000       0.990681
    11580.775900       0.991508
    11594.202900       0.992294
    11607.661100       0.993040
    11621.150500       0.993746
    11634.671300       0.994413
    11648.223600       0.995040
    11661.807600       0.995628
    11675.423200       0.996177
    11689.070700       0.996688
    11702.750100       0.997160
    11716.461600       0.997596
    11730.205300       0.997993
    11743.981200       0.998354
    11757.789500       0.998678
    11771.630400       0.998966
    11785.503800       0.999218
    11799.410000       0.999434
    11813.349100       0.999615
    11827.321100       0.999760
    11841.326200       0.999871
    11855.364600       0.999948
    11869.436200       0.999991
    11883.541300       1.000000
    11897.680000       0.999976
    11911.852300       0.999919
    11926.058400       0.999829
    11940.298500       0.999706
    11954.572600       0.999552
    11968.880900       0.999366
    11983.223500       0.999149
    11997.600500       0.998901
    12012.012000       0.998622
    12026.458200       0.998313
    12040.939200       0.997973
    12055.455100       0.997604
    12070.006000       0.997205
    12084.592100       0.996778
    12099.213600       0.996321
    12113.870400       0.995836
    12128.562800       0.995323
    12143.290800       0.994782
    12158.054700       0.994214
    12172.854500       0.993618
    12187.690400       0.992995
    12202.562500       0.992346
    12217.471000       0.991670
    12232.415900       0.990968
    12247.397400       0.990240
    12262.415700       0.989487
    12277.470800       0.988709
    12292.563000       0.987905
    12307.692300       0.987077
    12322.858900       0.986225
    12338.062900       0.985349
    12353.304500       0.984448
    12368.583800       0.983525
    12383.900900       0.982578
    12399.256000       0.981608
    12414.649300       0.980615
    12430.080800       0.979599
    12445.550700       0.978562
    12461.059200       0.977502
    12476.606400       0.976421
    12492.192400       0.975318
    12507.817400       0.974194
    12523.481500       0.973049
    12539.185000       0.971883
    12554.927800       0.970697
    12570.710200       0.969490
    12586.532400       0.968263
    12602.394500       0.967017
    12618.296500       0.965751
    12634.238800       0.964465
    12650.221400       0.963160
    12666.244500       0.961836
    12682.308200       0.960494
    12698.412700       0.959133
    12714.558200       0.957753
    12730.744700       0.956355
    12746.972600       0.954940
    12763.241900       0.953506
    12779.552700       0.952056
    12795.905300       0.950587
    12812.299800       0.949102
    12828.736400       0.947599
    12845.215200       0.946080
    12861.736300       0.944544
    12878.300100       0.942992
    12894.906500       0.941423
    12911.555800       0.939838
    12928.248200       0.938237
    12944.983800       0.936621
    12961.762800       0.934988
    12978.585300       0.933341
    12995.451600       0.931678
    13012.361700       0.929999
    13029.316000       0.928306
    13046.314400       0.926598
    13063.357300       0.924876
    13080.444700       0.923138
    13097.576900       0.921386
    13114.754100       0.919620
    13131.976400       0.917840
    13149.243900       0.916046
    13166.556900       0.914238
    13183.915600       0.912416
    13201.320100       0.910580
    13218.770700       0.908731
    13236.267400       0.906868
    13253.810500       0.904992
    13271.400100       0.903104
    13289.036500       0.901202
    13306.719900       0.899287
    13324.450400       0.897359
    13342.228200       0.895418
    13360.053400       0.893465
    13377.926400       0.891500
    13395.847300       0.889522
    13413.816200       0.887531
    13431.833400       0.885529
    13449.899100       0.883514
    13468.013500       0.881488
    13486.176700       0.879449
    13504.388900       0.877399
    13522.650400       0.875337
    13540.961400       0.873263
    13559.322000       0.871178
    13577.732500       0.869081
    13596.193100       0.866973
    13614.703900       0.864854
    13633.265200       0.862723
    13651.877100       0.860582
    13670.540000       0.858429
    13689.253900       0.856265
    13708.019200       0.854091
    13726.836000       0.851905
    13745.704500       0.849709
    13764.624900       0.847503
    13783.597500       0.845285
    13802.622500       0.843058
    13821.700100       0.840819
    13840.830400       0.838571
    13860.013900       0.836312
    13879.250500       0.834043
    13898.540700       0.831764
    13917.884500       0.829474
    13937.282200       0.827175
    13956.734100       0.824866
    13976.240400       0.822547
    13995.801300       0.820218
    14015.417000       0.817880
    14035.087700       0.815532
    14054.813800       0.813174
    14074.595400       0.810807
    14094.432700       0.808430
    14114.326000       0.806044
    14134.275600       0.803649
    14154.281700       0.801244
    14174.344400       0.798830
    14194.464200       0.796407
    14214.641100       0.793975
    14234.875400       0.791535
    14255.167500       0.789085
    14275.517500       0.786626
    14295.925700       0.784159
    14316.392300       0.781683
    14336.917600       0.779198
    14357.501800       0.776705
    14378.145200       0.774204
    14398.848100       0.771694
    14419.610700       0.769175
    14440.433200       0.766649
    14461.316000       0.764114
    14482.259200       0.761571
    14503.263200       0.759020
    14524.328200       0.756462
    14545.454500       0.753895
    14566.642400       0.751321
    14587.892000       0.748738
    14609.203800       0.746149
    14630.577900       0.743551
    14652.014700       0.740946
    14673.514300       0.738334
    14695.077100       0.735715
    14716.703500       0.733088
    14738.393500       0.730454
    14760.147600       0.727813
    14781.966000       0.725165
    14803.849000       0.722510
    14825.796900       0.719849
    14847.809900       0.717180
    14869.888500       0.714506
    14892.032800       0.711824
    14914.243100       0.709136
    14936.519800       0.706442
    14958.863100       0.703742
    14981.273400       0.701035
    15003.750900       0.698323
    15026.296000       0.695604
    15048.909000       0.692880
    15071.590100       0.690150
    15094.339600       0.687414
    15117.158000       0.684673
    15140.045400       0.681927
    15163.002300       0.679175
    15186.028900       0.676418
    15209.125500       0.673656
    15232.292500       0.670888
    15255.530100       0.668116
    15278.838800       0.665340
    15302.218800       0.662558
    15325.670500       0.659772
    15349.194200       0.656982
    15372.790200       0.654187
    15396.458800       0.651388
    15420.200500       0.648586
    15444.015400       0.645779
    15467.904100       0.642968
    15491.866800       0.640154
    15515.903800       0.637336
    15540.015500       0.634515
    15564.202300       0.631691
    15588.464500       0.628863
    15612.802500       0.626032
    15637.216600       0.623199
    15661.707100       0.620362
    15686.274500       0.617523
    15710.919100       0.614682
    15735.641200       0.611838
    15760.441300       0.608992
    15785.319700       0.606144
    15810.276700       0.603294
    15835.312700       0.600442
    15860.428200       0.597588
    15885.623500       0.594733
    15910.899000       0.591877
    15936.255000       0.589019
    15961.691900       0.586160
    15987.210200       0.583300
    16012.810200       0.580440
    16038.492400       0.577578
    16064.257000       0.574716
    16090.104600       0.571854
    16116.035500       0.568992
    16142.050000       0.566129
    16168.148700       0.563267
    16194.332000       0.560405
    16220.600200       0.557543
    16246.953700       0.554681
    16273.393000       0.551821
    16299.918500       0.548961
    16326.530600       0.546102
    16353.229800       0.543244
    16380.016400       0.540388
    16406.890900       0.537533
    16433.853700       0.534679
    16460.905300       0.531827
    16488.046200       0.528977
    16515.276600       0.526129
    16542.597200       0.523284
    16570.008300       0.520440
    16597.510400       0.517599
    16625.103900       0.514761
    16652.789300       0.511925
    16680.567100       0.509093
    16708.437800       0.506263
    16736.401700       0.503437
    16764.459300       0.500613
    16792.611300       0.497794
    16820.857900       0.494978
    16849.199700       0.492166
    16877.637100       0.489357
    16906.170800       0.486553
    16934.801000       0.483753
    16963.528400       0.480958
    16992.353400       0.478167
    17021.276600       0.475380
    17050.298400       0.472599
    17079.419300       0.469822
    17108.639900       0.467050
    17137.960600       0.464284
    17167.382000       0.461522
    17196.904600       0.458766
    17226.528900       0.456016
    17256.255400       0.453271
    17286.084700       0.450533
    17316.017300       0.447800
    17346.053800       0.445073
    17376.194600       0.442352
    17406.440400       0.439638
    17436.791600       0.436930
    17467.248900       0.434228
    17497.812800       0.431534
    17528.483800       0.428846
    17559.262500       0.426164
    17590.149500       0.423490
    17621.145400       0.420823
    17652.250700       0.418163
    17683.466000       0.415510
    17714.791900       0.412864
    17746.228900       0.410226
    17777.777800       0.407596
    17809.439000       0.404973
    17841.213200       0.402358
    17873.101000       0.399750
    17905.103000       0.397151
    17937.219700       0.394559
    17969.451900       0.391976
    18001.800200       0.389400
    18034.265100       0.386832
    18066.847300       0.384273
    18099.547500       0.381722
    18132.366300       0.379180
    18165.304300       0.376645
    18198.362100       0.374119
    18231.540600       0.371602
    18264.840200       0.369093
    18298.261700       0.366593
    18331.805700       0.364101
    18365.472900       0.361618
    18399.264000       0.359143
    18433.179700       0.356677
    18467.220700       0.354220
    18501.387600       0.351772
    18535.681200       0.349332
    18570.102100       0.346901
    18604.651200       0.344479
    18639.329000       0.342065
    18674.136300       0.339660
    18709.073900       0.337265
    18744.142500       0.334877
    18779.342700       0.332499
    18814.675400       0.330129
    18850.141400       0.327768
    18885.741300       0.325415
    18921.475900       0.323072
    18957.346000       0.320736
    18993.352300       0.318410
    19029.495700       0.316091
    19065.776900       0.313782
    19102.196800       0.311481
    19138.756000       0.309188
    19175.455400       0.306903
    19212.295900       0.304627
    19249.278200       0.302359
    19286.403100       0.300099
    19323.671500       0.297847
    19361.084200       0.295604
    19398.642100       0.293368
    19436.346000       0.291140
    19474.196700       0.288919
    19512.195100       0.286707
    19550.342100       0.284502
    19588.638600       0.282304
    19627.085400       0.280114
    19665.683400       0.277931
    19704.433500       0.275755
    19743.336600       0.273586
    19782.393700       0.271424
    19821.605600       0.269269
    19860.973200       0.267121
    19900.497500       0.264979
    19940.179500       0.262843
    19980.020000       0.260714
    20020.020000       0.258591
    20060.180500       0.256474
    20100.502500       0.254362
    20140.986900       0.252257
    20181.634700       0.250157
    20222.446900       0.248062
    20263.424500       0.245973
    20304.568500       0.243889
    20345.880000       0.241809
    20387.359800       0.239735
    20429.009200       0.237665
    20470.829100       0.235599
    20512.820500       0.233538
    20554.984600       0.231481
    20597.322300       0.229427
    20639.834900       0.227378
    20682.523300       0.225332
    20725.388600       0.223289
    20768.432000       0.221250
    20811.654500       0.219213
    20855.057400       0.217179
    20898.641600       0.215148
    20942.408400       0.213120
    20986.358900       0.211093
    21030.494200       0.209069
    21074.815600       0.207047
    21119.324200       0.205026
    21164.021200       0.203007
    21208.907700       0.200989
    21253.985100       0.198972
    21299.254500       0.196956
    21344.717200       0.194941
    21390.374300       0.192926
    21436.227200       0.190912
    21482.277100       0.188897
    21528.525300       0.186883
    21574.973000       0.184869
    21621.621600       0.182854
    21668.472400       0.180838
    21715.526600       0.178822
    21762.785600       0.176805
    21810.250800       0.174786
    21857.923500       0.172767
    21905.805000       0.170745
    21953.896800       0.168723
    22002.200200       0.166698
    22050.716600       0.164671
    22099.447500       0.162642
    22148.394200       0.160611
    22197.558300       0.158578
    22246.941000       0.156542
    22296.544000       0.154503
    22346.368700       0.152461
    22396.416600       0.150416
    22446.689100       0.148368
    22497.187900       0.146317
    22547.914300       0.144262
    22598.870100       0.142204
    22650.056600       0.140143
    22701.475600       0.138077
    22753.128600       0.136008
    22805.017100       0.133935
    22857.142900       0.131858
    22909.507400       0.129777
    22962.112500       0.127691
    23014.959700       0.125602
    23068.050700       0.123509
    23121.387300       0.121411
    23174.971000       0.119309
    23228.803700       0.117203
    23282.887100       0.115092
    23337.222900       0.112978
    23391.812900       0.110859
    23446.658900       0.108736
    23501.762600       0.106608
    23557.126000       0.104477
    23612.750900       0.102341
    23668.639100       0.100202
    23724.792400       0.098059
    23781.212800       0.095911
    23837.902300       0.093761
    23894.862600       0.091606
    23952.095800       0.089448
    24009.603800       0.087287
    24067.388700       0.085123
    24125.452400       0.082956
    24183.796900       0.080786
    24242.424200       0.078614
    24301.336600       0.076439
    24360.535900       0.074263
    24420.024400       0.072084
    24479.804200       0.069905
    24539.877300       0.067724
    24600.246000       0.065542
    24660.912500       0.063360
    24721.878900       0.061177
    24783.147500       0.058995
    24844.720500       0.056814
    24906.600200       0.054633
    24968.789000       0.052454
    25031.289100       0.050277
    25094.102900       0.048102
    25157.232700       0.045930
    25220.681000       0.043762
    25284.450100       0.041598
    25348.542500       0.039438
    25412.960600       0.037283
    25477.707000       0.035134
