 2    ,fy2_03_vissr_02.flt
Number of data points:
143
Wavenumber (cm-1)   Filter response
     1173.708900       0.004658
     1176.470600       0.004726
     1179.245300       0.004623
     1182.033100       0.004694
     1184.834100       0.005224
     1187.648500       0.006820
     1190.476200       0.007994
     1193.317400       0.008637
     1196.172200       0.008938
     1199.040800       0.008992
     1201.923100       0.009728
     1204.819300       0.010635
     1207.729500       0.010721
     1210.653800       0.011351
     1213.592200       0.012832
     1216.545000       0.014951
     1219.512200       0.017248
     1222.493900       0.018208
     1225.490200       0.016460
     1228.501200       0.014848
     1231.527100       0.015385
     1234.567900       0.017900
     1237.623800       0.019120
     1240.694800       0.020572
     1243.781100       0.022816
     1246.882800       0.025642
     1250.000000       0.027452
     1253.132800       0.031714
     1256.281400       0.036895
     1259.445800       0.041591
     1262.626300       0.046843
     1265.822800       0.055715
     1269.035500       0.059290
     1272.264600       0.066871
     1275.510200       0.074808
     1278.772400       0.081055
     1282.051300       0.088683
     1285.347000       0.103047
     1288.659800       0.111524
     1291.989700       0.127995
     1295.336800       0.148829
     1298.701300       0.167678
     1302.083300       0.195102
     1305.483000       0.232426
     1308.900500       0.266546
     1312.336000       0.309885
     1315.789500       0.361339
     1319.261200       0.407987
     1322.751300       0.481816
     1326.259900       0.552038
     1329.787200       0.609125
     1333.333300       0.650950
     1336.898400       0.667009
     1340.482600       0.680605
     1344.086000       0.746990
     1347.708900       0.795755
     1351.351400       0.817384
     1355.013600       0.812880
     1358.695700       0.793240
     1362.397800       0.762278
     1366.120200       0.772649
     1369.863000       0.774776
     1373.626400       0.757393
     1377.410500       0.761207
     1381.215500       0.788579
     1385.041600       0.785573
     1388.888900       0.781465
     1392.757700       0.781334
     1396.648000       0.751184
     1400.560200       0.760636
     1404.494400       0.802323
     1408.450700       0.837052
     1412.429400       0.829367
     1416.430600       0.790355
     1420.454500       0.769396
     1424.501400       0.794051
     1428.571400       0.821886
     1432.664800       0.785454
     1436.781600       0.790768
     1440.922200       0.822873
     1445.086700       0.834874
     1449.275400       0.802478
     1453.488400       0.744448
     1457.725900       0.672915
     1461.988300       0.722467
     1466.275700       0.777276
     1470.588200       0.750678
     1474.926300       0.738025
     1479.289900       0.819707
     1483.679500       0.878121
     1488.095200       0.794249
     1492.537300       0.771396
     1497.006000       0.766802
     1501.501500       0.728090
     1506.024100       0.641471
     1510.574000       0.601481
     1515.151500       0.643418
     1519.756800       0.668229
     1524.390200       0.743010
     1529.052000       0.852157
     1533.742300       0.895894
     1538.461500       0.822822
     1543.209900       0.820112
     1547.987600       0.974949
     1552.795000       1.000000
     1557.632400       0.867565
     1562.500000       0.886574
     1567.398100       0.937779
     1572.327000       0.838364
     1577.287100       0.758416
     1582.278500       0.750231
     1587.301600       0.708679
     1592.356700       0.598711
     1597.444100       0.474463
     1602.564100       0.360535
     1607.717000       0.274997
     1612.903200       0.223351
     1618.123000       0.204257
     1623.376600       0.163870
     1628.664500       0.141164
     1633.986900       0.127901
     1639.344300       0.104351
     1644.736800       0.080512
     1650.165000       0.058885
     1655.629100       0.062307
     1661.129600       0.058909
     1666.666700       0.048365
     1672.240800       0.042050
     1677.852300       0.039031
     1683.501700       0.035449
     1689.189200       0.027126
     1694.915300       0.013758
     1700.680300       0.005894
     1706.484600       0.013035
     1712.328800       0.014463
     1718.213100       0.007899
     1724.137900       0.008276
     1730.103800       0.010457
     1736.111100       0.010014
     1742.160300       0.009166
     1748.251700       0.008316
     1754.386000       0.006946
     1760.563400       0.004901
