   4  ,noaa_17_hirs_04.flt
Number of data points:
135
Wavenumber (cm-1)   Filter response
      681.900000       0.000000
      682.200000       0.001486
      682.500000       0.003758
      682.800000       0.004560
      683.100000       0.003843
      683.400000       0.000777
      683.700000       0.000786
      684.000000       0.000795
      684.300000       0.001607
      684.600000       0.001624
      684.900000       0.002463
      685.200000       0.005809
      685.500000       0.007549
      685.800000       0.008478
      686.100000       0.006855
      686.400000       0.005196
      686.700000       0.004376
      687.000000       0.005306
      687.300000       0.006256
      687.600000       0.009031
      687.900000       0.011863
      688.200000       0.017503
      688.500000       0.022307
      688.800000       0.025321
      689.100000       0.027439
      689.400000       0.027681
      689.700000       0.030814
      690.000000       0.036913
      690.300000       0.044080
      690.600000       0.053333
      690.900000       0.062734
      691.200000       0.075297
      691.500000       0.090083
      691.800000       0.104080
      692.100000       0.123450
      692.400000       0.145190
      692.700000       0.170410
      693.000000       0.203400
      693.300000       0.235810
      693.600000       0.269790
      693.900000       0.316150
      694.200000       0.362130
      694.500000       0.407700
      694.800000       0.457260
      695.100000       0.498650
      695.400000       0.549620
      695.700000       0.603590
      696.000000       0.643540
      696.300000       0.688640
      696.600000       0.722820
      696.900000       0.760720
      697.200000       0.788080
      697.500000       0.815770
      697.800000       0.835460
      698.100000       0.851600
      698.400000       0.863940
      698.700000       0.878810
      699.000000       0.888950
      699.300000       0.897950
      699.600000       0.908250
      699.900000       0.917380
      700.200000       0.924090
      700.500000       0.933350
      700.800000       0.942670
      701.100000       0.950790
      701.400000       0.958950
      701.700000       0.968460
      702.000000       0.975440
      702.300000       0.982460
      702.600000       0.989520
      702.900000       0.996610
      703.200000       0.998350
      703.500000       1.000000
      703.800000       0.999760
      704.100000       0.998120
      704.400000       0.991010
      704.700000       0.985160
      705.000000       0.976480
      705.300000       0.963580
      705.600000       0.946380
      705.900000       0.933120
      706.200000       0.915530
      706.500000       0.894930
      706.800000       0.872700
      707.100000       0.851620
      707.400000       0.810440
      707.700000       0.785930
      708.000000       0.761160
      708.300000       0.718200
      708.600000       0.683540
      708.900000       0.651490
      709.200000       0.608940
      709.500000       0.560180
      709.800000       0.521300
      710.100000       0.482090
      710.400000       0.442150
      710.700000       0.407720
      711.000000       0.362700
      711.300000       0.332340
      711.600000       0.298840
      711.900000       0.268150
      712.200000       0.228290
      712.500000       0.209310
      712.800000       0.181170
      713.100000       0.161940
      713.400000       0.141050
      713.700000       0.118560
      714.000000       0.106630
      714.300000       0.096175
      714.600000       0.084141
      714.900000       0.073589
      715.200000       0.064528
      715.500000       0.055427
      715.800000       0.047831
      716.100000       0.041748
      716.400000       0.037188
      716.700000       0.031056
      717.000000       0.027999
      717.300000       0.024912
      717.600000       0.023378
      717.900000       0.020281
      718.200000       0.018739
      718.500000       0.014067
      718.800000       0.010951
      719.100000       0.009395
      719.400000       0.009403
      719.700000       0.009412
      720.000000       0.009420
      720.300000       0.009428
      720.600000       0.009436
      720.900000       0.009444
      721.200000       0.007877
      721.500000       0.004730
      721.800000       0.003156
      722.100000       0.000000
