15,   channel 15 SRF from file SRF_SSH-1_Delivery_220520/SRF_DMSP-F2_SSH_Chan15.asc received June 2022 from SPASCIA
Number of data points:
294
Wavenumber (cm-1)   Filter response
      819.900000       0.000960
      820.000000       0.001060
      820.100000       0.001160
      820.200000       0.001270
      820.300000       0.001400
      820.400000       0.001530
      820.500000       0.001680
      820.600000       0.001830
      820.700000       0.002010
      820.800000       0.002190
      820.900000       0.002400
      821.000000       0.002620
      821.100000       0.002860
      821.200000       0.003120
      821.300000       0.003400
      821.400000       0.003700
      821.500000       0.004020
      821.600000       0.004380
      821.700000       0.004760
      821.800000       0.005170
      821.900000       0.005610
      822.000000       0.006090
      822.100000       0.006600
      822.200000       0.007150
      822.300000       0.007740
      822.400000       0.008380
      822.500000       0.009060
      822.600000       0.009790
      822.700000       0.010580
      822.800000       0.011420
      822.900000       0.012310
      823.000000       0.013270
      823.100000       0.014300
      823.200000       0.015390
      823.300000       0.016560
      823.400000       0.017800
      823.500000       0.019130
      823.600000       0.020540
      823.700000       0.022040
      823.800000       0.023640
      823.900000       0.025330
      824.000000       0.027130
      824.100000       0.029040
      824.200000       0.031060
      824.300000       0.033200
      824.400000       0.035460
      824.500000       0.037860
      824.600000       0.040390
      824.700000       0.043060
      824.800000       0.045880
      824.900000       0.048850
      825.000000       0.051980
      825.100000       0.055270
      825.200000       0.058740
      825.300000       0.062380
      825.400000       0.066210
      825.500000       0.070230
      825.600000       0.074440
      825.700000       0.078850
      825.800000       0.083470
      825.900000       0.088310
      826.000000       0.093360
      826.100000       0.098640
      826.200000       0.103420
      826.300000       0.108120
      826.400000       0.112990
      826.500000       0.118030
      826.600000       0.123260
      826.700000       0.128680
      826.800000       0.134280
      826.900000       0.140080
      827.000000       0.146080
      827.100000       0.152290
      827.200000       0.158720
      827.300000       0.165360
      827.400000       0.172220
      827.500000       0.179310
      827.600000       0.186640
      827.700000       0.194200
      827.800000       0.202010
      827.900000       0.210080
      828.000000       0.218390
      828.100000       0.226970
      828.200000       0.235810
      828.300000       0.244930
      828.400000       0.254310
      828.500000       0.263980
      828.600000       0.273920
      828.700000       0.284150
      828.800000       0.294670
      828.900000       0.305470
      829.000000       0.316570
      829.100000       0.327960
      829.200000       0.339640
      829.300000       0.351610
      829.400000       0.363870
      829.500000       0.376420
      829.600000       0.389260
      829.700000       0.402370
      829.800000       0.415770
      829.900000       0.429430
      830.000000       0.443350
      830.100000       0.457530
      830.200000       0.471960
      830.300000       0.486620
      830.400000       0.501660
      830.500000       0.518330
      830.600000       0.535130
      830.700000       0.552030
      830.800000       0.569020
      830.900000       0.586070
      831.000000       0.603140
      831.100000       0.620220
      831.200000       0.637280
      831.300000       0.654290
      831.400000       0.671230
      831.500000       0.688050
      831.600000       0.704730
      831.700000       0.721250
      831.800000       0.737570
      831.900000       0.753660
      832.000000       0.769490
      832.100000       0.785030
      832.200000       0.800250
      832.300000       0.815120
      832.400000       0.829600
      832.500000       0.843680
      832.600000       0.857310
      832.700000       0.870470
      832.800000       0.883130
      832.900000       0.895260
      833.000000       0.906840
      833.100000       0.917850
      833.200000       0.928250
      833.300000       0.938020
      833.400000       0.947140
      833.500000       0.955600
      833.600000       0.963360
      833.700000       0.970420
      833.800000       0.976750
      833.900000       0.982350
      834.000000       0.987190
      834.100000       0.991270
      834.200000       0.994580
      834.300000       0.997110
      834.400000       0.998850
      834.500000       0.999810
      834.600000       0.999960
      834.700000       0.999330
      834.800000       0.997900
      834.900000       0.995690
      835.000000       0.992690
      835.100000       0.988920
      835.200000       0.984380
      835.300000       0.979080
      835.400000       0.973040
      835.500000       0.966270
      835.600000       0.958790
      835.700000       0.950610
      835.800000       0.941750
      835.900000       0.932230
      836.000000       0.922080
      836.100000       0.911320
      836.200000       0.899960
      836.300000       0.888050
      836.400000       0.875590
      836.500000       0.862630
      836.600000       0.849180
      836.700000       0.835280
      836.800000       0.820960
      836.900000       0.806240
      837.000000       0.791160
      837.100000       0.775750
      837.200000       0.760030
      837.300000       0.744040
      837.400000       0.727810
      837.500000       0.711360
      837.600000       0.694740
      837.700000       0.677970
      837.800000       0.661080
      837.900000       0.644100
      838.000000       0.627050
      838.100000       0.609980
      838.200000       0.592890
      838.300000       0.575830
      838.400000       0.558820
      838.500000       0.541880
      838.600000       0.525030
      838.700000       0.508310
      838.800000       0.492540
      838.900000       0.477790
      839.000000       0.463270
      839.100000       0.448990
      839.200000       0.434970
      839.300000       0.421200
      839.400000       0.407700
      839.500000       0.394470
      839.600000       0.381520
      839.700000       0.368860
      839.800000       0.356480
      839.900000       0.344390
      840.000000       0.332600
      840.100000       0.321090
      840.200000       0.309880
      840.300000       0.298960
      840.400000       0.288320
      840.500000       0.277980
      840.600000       0.267920
      840.700000       0.258140
      840.800000       0.248650
      840.900000       0.239430
      841.000000       0.230480
      841.100000       0.221790
      841.200000       0.213370
      841.300000       0.205210
      841.400000       0.197300
      841.500000       0.189630
      841.600000       0.182210
      841.700000       0.175030
      841.800000       0.168070
      841.900000       0.161340
      842.000000       0.154840
      842.100000       0.148540
      842.200000       0.142460
      842.300000       0.136580
      842.400000       0.130890
      842.500000       0.125410
      842.600000       0.120100
      842.700000       0.114980
      842.800000       0.110040
      842.900000       0.105280
      843.000000       0.100680
      843.100000       0.095450
      843.200000       0.090300
      843.300000       0.085380
      843.400000       0.080680
      843.500000       0.076180
      843.600000       0.071890
      843.700000       0.067790
      843.800000       0.063890
      843.900000       0.060180
      844.000000       0.056640
      844.100000       0.053280
      844.200000       0.050080
      844.300000       0.047050
      844.400000       0.044170
      844.500000       0.041440
      844.600000       0.038850
      844.700000       0.036400
      844.800000       0.034090
      844.900000       0.031900
      845.000000       0.029830
      845.100000       0.027880
      845.200000       0.026040
      845.300000       0.024300
      845.400000       0.022670
      845.500000       0.021130
      845.600000       0.019680
      845.700000       0.018320
      845.800000       0.017050
      845.900000       0.015850
      846.000000       0.014730
      846.100000       0.013680
      846.200000       0.012690
      846.300000       0.011770
      846.400000       0.010910
      846.500000       0.010100
      846.600000       0.009350
      846.700000       0.008650
      846.800000       0.007990
      846.900000       0.007380
      847.000000       0.006820
      847.100000       0.006290
      847.200000       0.005800
      847.300000       0.005340
      847.400000       0.004920
      847.500000       0.004530
      847.600000       0.004160
      847.700000       0.003830
      847.800000       0.003510
      847.900000       0.003220
      848.000000       0.002960
      848.100000       0.002710
      848.200000       0.002480
      848.300000       0.002270
      848.400000       0.002080
      848.500000       0.001900
      848.600000       0.001740
      848.700000       0.001590
      848.800000       0.001450
      848.900000       0.001320
      849.000000       0.001200
      849.100000       0.001100
      849.200000       0.001000
