3,   3, MVIRI VIS channel from srf_MET4_1989303_1989304_1801-Release_S10EL_10.dat
Number of data points:
752
Wavenumber (cm-1)   Filter response
     8745.080900       0.000000
     8752.735200       0.000000
     8760.403000       0.000001
     8768.084200       0.000058
     8775.778900       0.000196
     8783.487000       0.000414
     8791.208800       0.000708
     8798.944100       0.001077
     8806.693100       0.001518
     8814.455700       0.002028
     8822.232000       0.002607
     8830.022100       0.003252
     8837.825900       0.003961
     8845.643500       0.004732
     8853.475000       0.005563
     8861.320300       0.006452
     8869.179600       0.007398
     8877.052800       0.008399
     8884.940000       0.009453
     8892.841300       0.010559
     8900.756600       0.011715
     8908.686000       0.012920
     8916.629500       0.014171
     8924.587200       0.015469
     8932.559200       0.016811
     8940.545400       0.018196
     8948.545900       0.019623
     8956.560700       0.021091
     8964.589900       0.022599
     8972.633500       0.024144
     8980.691500       0.025727
     8988.764000       0.027347
     8996.851100       0.029001
     9004.952700       0.030690
     9013.068900       0.032412
     9021.199800       0.034167
     9029.345400       0.035954
     9037.505600       0.037770
     9045.680700       0.039618
     9053.870500       0.041494
     9062.075200       0.043398
     9070.294800       0.045331
     9078.529300       0.047290
     9086.778700       0.049276
     9095.043200       0.051288
     9103.322700       0.053325
     9111.617300       0.055387
     9119.927000       0.057473
     9128.251900       0.059582
     9136.592100       0.061715
     9144.947400       0.063870
     9153.318100       0.066048
     9161.704100       0.068247
     9170.105500       0.070468
     9178.522300       0.072710
     9186.954500       0.074972
     9195.402300       0.077255
     9203.865600       0.079558
     9212.344500       0.081880
     9220.839100       0.084223
     9229.349300       0.086584
     9237.875300       0.088964
     9246.417000       0.091363
     9254.974500       0.093781
     9263.547900       0.096216
     9272.137200       0.098670
     9280.742500       0.101142
     9289.363700       0.103631
     9298.000900       0.106139
     9306.654300       0.108663
     9315.323700       0.111205
     9324.009300       0.113764
     9332.711200       0.116341
     9341.429200       0.118934
     9350.163600       0.121545
     9358.914400       0.124172
     9367.681500       0.126816
     9376.465100       0.129477
     9385.265100       0.132154
     9394.081700       0.134849
     9402.914900       0.137559
     9411.764700       0.140287
     9420.631200       0.143031
     9429.514400       0.145791
     9438.414300       0.148568
     9447.331100       0.151362
     9456.264800       0.154172
     9465.215300       0.156999
     9474.182900       0.159841
     9483.167400       0.162701
     9492.169000       0.165577
     9501.187600       0.168470
     9510.223500       0.171380
     9519.276500       0.174305
     9528.346800       0.177248
     9537.434400       0.180207
     9546.539400       0.183183
     9555.661700       0.186176
     9564.801500       0.189184
     9573.958800       0.192211
     9583.133700       0.195253
     9592.326100       0.198313
     9601.536200       0.201389
     9610.764100       0.204482
     9620.009600       0.207592
     9629.273000       0.210719
     9638.554200       0.213863
     9647.853400       0.217024
     9657.170400       0.220201
     9666.505600       0.223396
     9675.858700       0.226608
     9685.230000       0.229836
     9694.619500       0.233082
     9704.027200       0.236344
     9713.453100       0.239624
     9722.897400       0.242921
     9732.360100       0.246234
     9741.841200       0.249565
     9751.340800       0.252913
     9760.859000       0.256278
     9770.395700       0.259659
     9779.951100       0.263058
     9789.525200       0.266474
     9799.118100       0.269907
     9808.729800       0.273356
     9818.360300       0.276823
     9828.009800       0.280306
     9837.678300       0.283806
     9847.365800       0.287323
     9857.072400       0.290856
     9866.798200       0.294407
     9876.543200       0.297973
     9886.307500       0.301557
     9896.091000       0.305157
     9905.894000       0.308773
     9915.716400       0.312405
     9925.558300       0.316054
     9935.419800       0.319719
     9945.300800       0.323400
     9955.201600       0.327097
     9965.122100       0.330810
     9975.062300       0.334538
     9985.022500       0.338282
     9995.002500       0.342042
    10005.002500       0.345817
    10015.022500       0.349607
    10025.062700       0.353412
    10035.122900       0.357232
    10045.203400       0.361067
    10055.304200       0.364917
    10065.425300       0.368781
    10075.566800       0.372660
    10085.728700       0.376553
    10095.911200       0.380460
    10106.114200       0.384380
    10116.337900       0.388314
    10126.582300       0.392262
    10136.847400       0.396222
    10147.133400       0.400196
    10157.440300       0.404183
    10167.768200       0.408182
    10178.117000       0.412194
    10188.487000       0.416218
    10198.878100       0.420254
    10209.290500       0.424301
    10219.724100       0.428360
    10230.179000       0.432430
    10240.655400       0.436512
    10251.153300       0.440604
    10261.672700       0.444706
    10272.213700       0.448818
    10282.776300       0.452941
    10293.360800       0.457073
    10303.967000       0.461214
    10314.595200       0.465365
    10325.245200       0.469524
    10335.917300       0.473692
    10346.611500       0.477868
    10357.327800       0.482052
    10368.066400       0.486243
    10378.827200       0.490442
    10389.610400       0.494648
    10400.416000       0.498860
    10411.244100       0.503078
    10422.094800       0.507303
    10432.968200       0.511533
    10443.864200       0.515768
    10454.783100       0.520009
    10465.724800       0.524254
    10476.689400       0.528503
    10487.677000       0.532756
    10498.687700       0.537013
    10509.721500       0.541273
    10520.778500       0.545535
    10531.858900       0.549800
    10542.962600       0.554068
    10554.089700       0.558337
    10565.240400       0.562607
    10576.414600       0.566878
    10587.612500       0.571150
    10598.834100       0.575422
    10610.079600       0.579693
    10621.348900       0.583964
    10632.642200       0.588234
    10643.959600       0.592503
    10655.301000       0.596770
    10666.666700       0.601035
    10678.056600       0.605297
    10689.470900       0.609555
    10700.909600       0.613811
    10712.372800       0.618063
    10723.860600       0.622310
    10735.373100       0.626553
    10746.910300       0.630791
    10758.472300       0.635023
    10770.059200       0.639250
    10781.671200       0.643470
    10793.308100       0.647683
    10804.970300       0.651889
    10816.657700       0.656088
    10828.370300       0.660278
    10840.108400       0.664460
    10851.871900       0.668633
    10863.661100       0.672797
    10875.475800       0.676951
    10887.316300       0.681095
    10899.182600       0.685228
    10911.074700       0.689351
    10922.992900       0.693462
    10934.937100       0.697561
    10946.907500       0.701648
    10958.904100       0.705722
    10970.927000       0.709783
    10982.976400       0.713830
    10995.052200       0.717864
    11007.154700       0.721883
    11019.283700       0.725887
    11031.439600       0.729876
    11043.622300       0.733849
    11055.832000       0.737806
    11068.068600       0.741747
    11080.332400       0.745671
    11092.623400       0.749577
    11104.941700       0.753465
    11117.287400       0.757335
    11129.660500       0.761187
    11142.061300       0.765020
    11154.489700       0.768833
    11166.945800       0.772626
    11179.429800       0.776400
    11191.941800       0.780152
    11204.481800       0.783884
    11217.049900       0.787594
    11229.646300       0.791282
    11242.270900       0.794948
    11254.924000       0.798591
    11267.605600       0.802211
    11280.315800       0.805808
    11293.054800       0.809381
    11305.822500       0.812930
    11318.619100       0.816454
    11331.444800       0.819954
    11344.299500       0.823428
    11357.183400       0.826876
    11370.096600       0.830299
    11383.039300       0.833695
    11396.011400       0.837064
    11409.013100       0.840406
    11422.044500       0.843721
    11435.105800       0.847008
    11448.196900       0.850267
    11461.318100       0.853497
    11474.469300       0.856699
    11487.650800       0.859871
    11500.862600       0.863014
    11514.104800       0.866127
    11527.377500       0.869210
    11540.680900       0.872263
    11554.015000       0.875285
    11567.380000       0.878276
    11580.775900       0.881235
    11594.202900       0.884163
    11607.661100       0.887059
    11621.150500       0.889923
    11634.671300       0.892754
    11648.223600       0.895553
    11661.807600       0.898318
    11675.423200       0.901050
    11689.070700       0.903749
    11702.750100       0.906414
    11716.461600       0.909045
    11730.205300       0.911641
    11743.981200       0.914203
    11757.789500       0.916730
    11771.630400       0.919222
    11785.503800       0.921679
    11799.410000       0.924100
    11813.349100       0.926486
    11827.321100       0.928836
    11841.326200       0.931150
    11855.364600       0.933427
    11869.436200       0.935668
    11883.541300       0.937873
    11897.680000       0.940040
    11911.852300       0.942171
    11926.058400       0.944264
    11940.298500       0.946321
    11954.572600       0.948339
    11968.880900       0.950320
    11983.223500       0.952263
    11997.600500       0.954169
    12012.012000       0.956036
    12026.458200       0.957865
    12040.939200       0.959656
    12055.455100       0.961409
    12070.006000       0.963123
    12084.592100       0.964798
    12099.213600       0.966435
    12113.870400       0.968033
    12128.562800       0.969592
    12143.290800       0.971113
    12158.054700       0.972594
    12172.854500       0.974036
    12187.690400       0.975439
    12202.562500       0.976803
    12217.471000       0.978128
    12232.415900       0.979414
    12247.397400       0.980660
    12262.415700       0.981868
    12277.470800       0.983036
    12292.563000       0.984164
    12307.692300       0.985253
    12322.858900       0.986303
    12338.062900       0.987314
    12353.304500       0.988286
    12368.583800       0.989218
    12383.900900       0.990111
    12399.256000       0.990965
    12414.649300       0.991780
    12430.080800       0.992556
    12445.550700       0.993292
    12461.059200       0.993990
    12476.606400       0.994649
    12492.192400       0.995269
    12507.817400       0.995850
    12523.481500       0.996393
    12539.185000       0.996897
    12554.927800       0.997363
    12570.710200       0.997791
    12586.532400       0.998180
    12602.394500       0.998531
    12618.296500       0.998844
    12634.238800       0.999119
    12650.221400       0.999357
    12666.244500       0.999557
    12682.308200       0.999720
    12698.412700       0.999845
    12714.558200       0.999934
    12730.744700       0.999985
    12746.972600       1.000000
    12763.241900       0.999978
    12779.552700       0.999920
    12795.905300       0.999826
    12812.299800       0.999695
    12828.736400       0.999529
    12845.215200       0.999328
    12861.736300       0.999091
    12878.300100       0.998819
    12894.906500       0.998512
    12911.555800       0.998170
    12928.248200       0.997795
    12944.983800       0.997384
    12961.762800       0.996940
    12978.585300       0.996463
    12995.451600       0.995952
    13012.361700       0.995408
    13029.316000       0.994831
    13046.314400       0.994221
    13063.357300       0.993579
    13080.444700       0.992905
    13097.576900       0.992200
    13114.754100       0.991463
    13131.976400       0.990695
    13149.243900       0.989896
    13166.556900       0.989066
    13183.915600       0.988207
    13201.320100       0.987317
    13218.770700       0.986399
    13236.267400       0.985451
    13253.810500       0.984474
    13271.400100       0.983468
    13289.036500       0.982435
    13306.719900       0.981373
    13324.450400       0.980284
    13342.228200       0.979168
    13360.053400       0.978026
    13377.926400       0.976856
    13395.847300       0.975661
    13413.816200       0.974441
    13431.833400       0.973195
    13449.899100       0.971924
    13468.013500       0.970628
    13486.176700       0.969309
    13504.388900       0.967966
    13522.650400       0.966599
    13540.961400       0.965210
    13559.322000       0.963798
    13577.732500       0.962363
    13596.193100       0.960908
    13614.703900       0.959430
    13633.265200       0.957932
    13651.877100       0.956414
    13670.540000       0.954875
    13689.253900       0.953317
    13708.019200       0.951740
    13726.836000       0.950143
    13745.704500       0.948529
    13764.624900       0.946896
    13783.597500       0.945246
    13802.622500       0.943579
    13821.700100       0.941895
    13840.830400       0.940195
    13860.013900       0.938479
    13879.250500       0.936748
    13898.540700       0.935002
    13917.884500       0.933242
    13937.282200       0.931467
    13956.734100       0.929679
    13976.240400       0.927878
    13995.801300       0.926065
    14015.417000       0.924239
    14035.087700       0.922401
    14054.813800       0.920552
    14074.595400       0.918692
    14094.432700       0.916821
    14114.326000       0.914941
    14134.275600       0.913051
    14154.281700       0.911152
    14174.344400       0.909245
    14194.464200       0.907329
    14214.641100       0.905406
    14234.875400       0.903475
    14255.167500       0.901538
    14275.517500       0.899594
    14295.925700       0.897644
    14316.392300       0.895689
    14336.917600       0.893729
    14357.501800       0.891764
    14378.145200       0.889796
    14398.848100       0.887823
    14419.610700       0.885847
    14440.433200       0.883869
    14461.316000       0.881888
    14482.259200       0.879905
    14503.263200       0.877921
    14524.328200       0.875935
    14545.454500       0.873949
    14566.642400       0.871963
    14587.892000       0.869977
    14609.203800       0.867992
    14630.577900       0.866008
    14652.014700       0.864025
    14673.514300       0.862045
    14695.077100       0.860066
    14716.703500       0.858091
    14738.393500       0.856119
    14760.147600       0.854150
    14781.966000       0.852185
    14803.849000       0.850225
    14825.796900       0.848269
    14847.809900       0.846319
    14869.888500       0.844374
    14892.032800       0.842436
    14914.243100       0.840503
    14936.519800       0.838578
    14958.863100       0.836659
    14981.273400       0.834748
    15003.750900       0.832845
    15026.296000       0.830950
    15048.909000       0.829063
    15071.590100       0.827186
    15094.339600       0.825318
    15117.158000       0.823459
    15140.045400       0.821610
    15163.002300       0.819772
    15186.028900       0.817944
    15209.125500       0.816127
    15232.292500       0.814322
    15255.530100       0.812528
    15278.838800       0.810746
    15302.218800       0.808976
    15325.670500       0.807219
    15349.194200       0.805474
    15372.790200       0.803743
    15396.458800       0.802025
    15420.200500       0.800320
    15444.015400       0.798630
    15467.904100       0.796953
    15491.866800       0.795291
    15515.903800       0.793644
    15540.015500       0.792011
    15564.202300       0.790394
    15588.464500       0.788792
    15612.802500       0.787206
    15637.216600       0.785635
    15661.707100       0.784081
    15686.274500       0.782542
    15710.919100       0.781021
    15735.641200       0.779515
    15760.441300       0.778027
    15785.319700       0.776555
    15810.276700       0.775101
    15835.312700       0.773664
    15860.428200       0.772244
    15885.623500       0.770842
    15910.899000       0.769457
    15936.255000       0.768090
    15961.691900       0.766742
    15987.210200       0.765411
    16012.810200       0.764098
    16038.492400       0.762804
    16064.257000       0.761528
    16090.104600       0.760271
    16116.035500       0.759032
    16142.050000       0.757811
    16168.148700       0.756609
    16194.332000       0.755426
    16220.600200       0.754262
    16246.953700       0.753116
    16273.393000       0.751988
    16299.918500       0.750880
    16326.530600       0.749790
    16353.229800       0.748719
    16380.016400       0.747667
    16406.890900       0.746633
    16433.853700       0.745618
    16460.905300       0.744622
    16488.046200       0.743644
    16515.276600       0.742685
    16542.597200       0.741744
    16570.008300       0.740821
    16597.510400       0.739917
    16625.103900       0.739031
    16652.789300       0.738162
    16680.567100       0.737312
    16708.437800       0.736479
    16736.401700       0.735665
    16764.459300       0.734867
    16792.611300       0.734087
    16820.857900       0.733324
    16849.199700       0.732578
    16877.637100       0.731849
    16906.170800       0.731136
    16934.801000       0.730440
    16963.528400       0.729760
    16992.353400       0.729096
    17021.276600       0.728448
    17050.298400       0.727815
    17079.419300       0.727198
    17108.639900       0.726595
    17137.960600       0.726008
    17167.382000       0.725434
    17196.904600       0.724875
    17226.528900       0.724330
    17256.255400       0.723798
    17286.084700       0.723279
    17316.017300       0.722773
    17346.053800       0.722280
    17376.194600       0.721799
    17406.440400       0.721330
    17436.791600       0.720872
    17467.248900       0.720425
    17497.812800       0.719989
    17528.483800       0.719564
    17559.262500       0.719148
    17590.149500       0.718741
    17621.145400       0.718344
    17652.250700       0.717956
    17683.466000       0.717575
    17714.791900       0.717203
    17746.228900       0.716837
    17777.777800       0.716479
    17809.439000       0.716126
    17841.213200       0.715780
    17873.101000       0.715439
    17905.103000       0.715103
    17937.219700       0.714771
    17969.451900       0.714443
    18001.800200       0.714118
    18034.265100       0.713796
    18066.847300       0.713477
    18099.547500       0.713159
    18132.366300       0.712842
    18165.304300       0.712525
    18198.362100       0.712209
    18231.540600       0.711892
    18264.840200       0.711573
    18298.261700       0.711253
    18331.805700       0.710930
    18365.472900       0.710605
    18399.264000       0.710275
    18433.179700       0.709942
    18467.220700       0.709603
    18501.387600       0.709259
    18535.681200       0.708908
    18570.102100       0.708551
    18604.651200       0.708186
    18639.329000       0.707813
    18674.136300       0.707431
    18709.073900       0.707039
    18744.142500       0.706637
    18779.342700       0.706224
    18814.675400       0.705800
    18850.141400       0.705363
    18885.741300       0.704913
    18921.475900       0.704449
    18957.346000       0.703971
    18993.352300       0.703478
    19029.495700       0.702968
    19065.776900       0.702442
    19102.196800       0.701898
    19138.756000       0.701337
    19175.455400       0.700756
    19212.295900       0.700156
    19249.278200       0.699535
    19286.403100       0.698893
    19323.671500       0.698229
    19361.084200       0.697543
    19398.642100       0.696833
    19436.346000       0.696099
    19474.196700       0.695340
    19512.195100       0.694555
    19550.342100       0.693744
    19588.638600       0.692905
    19627.085400       0.692039
    19665.683400       0.691143
    19704.433500       0.690218
    19743.336600       0.689263
    19782.393700       0.688277
    19821.605600       0.687258
    19860.973200       0.686207
    19900.497500       0.685123
    19940.179500       0.684005
    19980.020000       0.682851
    20020.020000       0.681662
    20060.180500       0.680436
    20100.502500       0.679173
    20140.986900       0.677872
    20181.634700       0.676533
    20222.446900       0.675154
    20263.424500       0.673735
    20304.568500       0.672274
    20345.880000       0.670772
    20387.359800       0.669228
    20429.009200       0.667641
    20470.829100       0.666009
    20512.820500       0.664333
    20554.984600       0.662612
    20597.322300       0.660845
    20639.834900       0.659031
    20682.523300       0.657170
    20725.388600       0.655261
    20768.432000       0.653303
    20811.654500       0.651296
    20855.057400       0.649238
    20898.641600       0.647130
    20942.408400       0.644971
    20986.358900       0.642760
    21030.494200       0.640497
    21074.815600       0.638180
    21119.324200       0.635810
    21164.021200       0.633385
    21208.907700       0.630905
    21253.985100       0.628371
    21299.254500       0.625780
    21344.717200       0.623133
    21390.374300       0.620429
    21436.227200       0.617667
    21482.277100       0.614848
    21528.525300       0.611970
    21574.973000       0.609034
    21621.621600       0.606038
    21668.472400       0.602983
    21715.526600       0.599867
    21762.785600       0.596692
    21810.250800       0.593455
    21857.923500       0.590158
    21905.805000       0.586799
    21953.896800       0.583379
    22002.200200       0.579896
    22050.716600       0.576352
    22099.447500       0.572744
    22148.394200       0.569075
    22197.558300       0.565343
    22246.941000       0.561547
    22296.544000       0.557689
    22346.368700       0.553767
    22396.416600       0.549782
    22446.689100       0.545734
    22497.187900       0.541623
    22547.914300       0.537448
    22598.870100       0.533210
    22650.056600       0.528909
    22701.475600       0.524545
    22753.128600       0.520117
    22805.017100       0.515627
    22857.142900       0.511074
    22909.507400       0.506459
    22962.112500       0.501782
    23014.959700       0.497042
    23068.050700       0.492241
    23121.387300       0.487379
    23174.971000       0.482456
    23228.803700       0.477473
    23282.887100       0.472429
    23337.222900       0.467326
    23391.812900       0.462165
    23446.658900       0.456945
    23501.762600       0.451667
    23557.126000       0.446332
    23612.750900       0.440941
    23668.639100       0.435495
    23724.792400       0.429993
    23781.212800       0.424438
    23837.902300       0.418830
    23894.862600       0.413169
    23952.095800       0.407458
    24009.603800       0.401696
    24067.388700       0.395885
    24125.452400       0.390027
    24183.796900       0.384122
    24242.424200       0.378171
    24301.336600       0.372175
    24360.535900       0.366137
    24420.024400       0.360058
    24479.804200       0.353938
    24539.877300       0.347780
    24600.246000       0.341584
    24660.912500       0.335354
    24721.878900       0.329089
    24783.147500       0.322792
    24844.720500       0.316466
    24906.600200       0.310110
    24968.789000       0.303728
    25031.289100       0.297322
    25094.102900       0.290893
    25157.232700       0.284444
    25220.681000       0.277976
    25284.450100       0.271492
    25348.542500       0.264995
    25412.960600       0.258486
    25477.707000       0.251969
