12,   12, MVIRI VIS channel from srf_MET3_1990123_1990124_1801-Release_S10EE_10.dat
Number of data points:
743
Wavenumber (cm-1)   Filter response
     8814.455700       0.000000
     8822.232000       0.000000
     8830.022100       0.000707
     8837.825900       0.002965
     8845.643500       0.005244
     8853.475000       0.007540
     8861.320300       0.009854
     8869.179600       0.012184
     8877.052800       0.014529
     8884.940000       0.016888
     8892.841300       0.019260
     8900.756600       0.021645
     8908.686000       0.024041
     8916.629500       0.026447
     8924.587200       0.028863
     8932.559200       0.031288
     8940.545400       0.033721
     8948.545900       0.036162
     8956.560700       0.038610
     8964.589900       0.041065
     8972.633500       0.043526
     8980.691500       0.045993
     8988.764000       0.048465
     8996.851100       0.050941
     9004.952700       0.053423
     9013.068900       0.055908
     9021.199800       0.058398
     9029.345400       0.060891
     9037.505600       0.063388
     9045.680700       0.065888
     9053.870500       0.068391
     9062.075200       0.070898
     9070.294800       0.073407
     9078.529300       0.075920
     9086.778700       0.078435
     9095.043200       0.080953
     9103.322700       0.083473
     9111.617300       0.085997
     9119.927000       0.088523
     9128.251900       0.091053
     9136.592100       0.093585
     9144.947400       0.096121
     9153.318100       0.098660
     9161.704100       0.101201
     9170.105500       0.103747
     9178.522300       0.106297
     9186.954500       0.108849
     9195.402300       0.111407
     9203.865600       0.113968
     9212.344500       0.116534
     9220.839100       0.119104
     9229.349300       0.121679
     9237.875300       0.124260
     9246.417000       0.126845
     9254.974500       0.129437
     9263.547900       0.132034
     9272.137200       0.134637
     9280.742500       0.137247
     9289.363700       0.139863
     9298.000900       0.142487
     9306.654300       0.145117
     9315.323700       0.147755
     9324.009300       0.150401
     9332.711200       0.153056
     9341.429200       0.155718
     9350.163600       0.158390
     9358.914400       0.161070
     9367.681500       0.163760
     9376.465100       0.166459
     9385.265100       0.169168
     9394.081700       0.171888
     9402.914900       0.174618
     9411.764700       0.177359
     9420.631200       0.180112
     9429.514400       0.182875
     9438.414300       0.185651
     9447.331100       0.188438
     9456.264800       0.191238
     9465.215300       0.194050
     9474.182900       0.196875
     9483.167400       0.199714
     9492.169000       0.202566
     9501.187600       0.205431
     9510.223500       0.208311
     9519.276500       0.211204
     9528.346800       0.214113
     9537.434400       0.217036
     9546.539400       0.219973
     9555.661700       0.222927
     9564.801500       0.225895
     9573.958800       0.228879
     9583.133700       0.231879
     9592.326100       0.234895
     9601.536200       0.237927
     9610.764100       0.240975
     9620.009600       0.244041
     9629.273000       0.247123
     9638.554200       0.250222
     9647.853400       0.253338
     9657.170400       0.256471
     9666.505600       0.259622
     9675.858700       0.262790
     9685.230000       0.265976
     9694.619500       0.269179
     9704.027200       0.272401
     9713.453100       0.275640
     9722.897400       0.278898
     9732.360100       0.282174
     9741.841200       0.285468
     9751.340800       0.288780
     9760.859000       0.292111
     9770.395700       0.295460
     9779.951100       0.298827
     9789.525200       0.302213
     9799.118100       0.305617
     9808.729800       0.309040
     9818.360300       0.312481
     9828.009800       0.315941
     9837.678300       0.319419
     9847.365800       0.322916
     9857.072400       0.326431
     9866.798200       0.329965
     9876.543200       0.333516
     9886.307500       0.337086
     9896.091000       0.340675
     9905.894000       0.344280
     9915.716400       0.347905
     9925.558300       0.351547
     9935.419800       0.355207
     9945.300800       0.358884
     9955.201600       0.362579
     9965.122100       0.366292
     9975.062300       0.370021
     9985.022500       0.373768
     9995.002500       0.377532
    10005.002500       0.381312
    10015.022500       0.385109
    10025.062700       0.388923
    10035.122900       0.392752
    10045.203400       0.396598
    10055.304200       0.400460
    10065.425300       0.404337
    10075.566800       0.408229
    10085.728700       0.412137
    10095.911200       0.416059
    10106.114200       0.419996
    10116.337900       0.423948
    10126.582300       0.427913
    10136.847400       0.431893
    10147.133400       0.435886
    10157.440300       0.439892
    10167.768200       0.443911
    10178.117000       0.447943
    10188.487000       0.451987
    10198.878100       0.456044
    10209.290500       0.460112
    10219.724100       0.464192
    10230.179000       0.468282
    10240.655400       0.472384
    10251.153300       0.476496
    10261.672700       0.480617
    10272.213700       0.484749
    10282.776300       0.488890
    10293.360800       0.493040
    10303.967000       0.497199
    10314.595200       0.501366
    10325.245200       0.505540
    10335.917300       0.509723
    10346.611500       0.513912
    10357.327800       0.518108
    10368.066400       0.522311
    10378.827200       0.526519
    10389.610400       0.530733
    10400.416000       0.534952
    10411.244100       0.539175
    10422.094800       0.543403
    10432.968200       0.547634
    10443.864200       0.551870
    10454.783100       0.556108
    10465.724800       0.560348
    10476.689400       0.564591
    10487.677000       0.568836
    10498.687700       0.573081
    10509.721500       0.577328
    10520.778500       0.581575
    10531.858900       0.585821
    10542.962600       0.590068
    10554.089700       0.594313
    10565.240400       0.598557
    10576.414600       0.602799
    10587.612500       0.607038
    10598.834100       0.611275
    10610.079600       0.615509
    10621.348900       0.619739
    10632.642200       0.623964
    10643.959600       0.628186
    10655.301000       0.632402
    10666.666700       0.636612
    10678.056600       0.640816
    10689.470900       0.645014
    10700.909600       0.649206
    10712.372800       0.653389
    10723.860600       0.657565
    10735.373100       0.661732
    10746.910300       0.665891
    10758.472300       0.670041
    10770.059200       0.674180
    10781.671200       0.678310
    10793.308100       0.682429
    10804.970300       0.686537
    10816.657700       0.690633
    10828.370300       0.694717
    10840.108400       0.698789
    10851.871900       0.702848
    10863.661100       0.706894
    10875.475800       0.710926
    10887.316300       0.714944
    10899.182600       0.718947
    10911.074700       0.722935
    10922.992900       0.726907
    10934.937100       0.730863
    10946.907500       0.734803
    10958.904100       0.738726
    10970.927000       0.742632
    10982.976400       0.746520
    10995.052200       0.750390
    11007.154700       0.754241
    11019.283700       0.758074
    11031.439600       0.761887
    11043.622300       0.765680
    11055.832000       0.769453
    11068.068600       0.773205
    11080.332400       0.776937
    11092.623400       0.780646
    11104.941700       0.784334
    11117.287400       0.788000
    11129.660500       0.791644
    11142.061300       0.795264
    11154.489700       0.798861
    11166.945800       0.802434
    11179.429800       0.805983
    11191.941800       0.809508
    11204.481800       0.813008
    11217.049900       0.816483
    11229.646300       0.819932
    11242.270900       0.823356
    11254.924000       0.826753
    11267.605600       0.830124
    11280.315800       0.833467
    11293.054800       0.836784
    11305.822500       0.840073
    11318.619100       0.843334
    11331.444800       0.846567
    11344.299500       0.849772
    11357.183400       0.852948
    11370.096600       0.856095
    11383.039300       0.859212
    11396.011400       0.862300
    11409.013100       0.865358
    11422.044500       0.868386
    11435.105800       0.871383
    11448.196900       0.874350
    11461.318100       0.877285
    11474.469300       0.880190
    11487.650800       0.883063
    11500.862600       0.885904
    11514.104800       0.888713
    11527.377500       0.891490
    11540.680900       0.894235
    11554.015000       0.896947
    11567.380000       0.899626
    11580.775900       0.902273
    11594.202900       0.904886
    11607.661100       0.907465
    11621.150500       0.910011
    11634.671300       0.912523
    11648.223600       0.915001
    11661.807600       0.917445
    11675.423200       0.919855
    11689.070700       0.922230
    11702.750100       0.924571
    11716.461600       0.926877
    11730.205300       0.929148
    11743.981200       0.931384
    11757.789500       0.933584
    11771.630400       0.935750
    11785.503800       0.937880
    11799.410000       0.939974
    11813.349100       0.942033
    11827.321100       0.944057
    11841.326200       0.946044
    11855.364600       0.947995
    11869.436200       0.949911
    11883.541300       0.951790
    11897.680000       0.953634
    11911.852300       0.955441
    11926.058400       0.957212
    11940.298500       0.958947
    11954.572600       0.960645
    11968.880900       0.962307
    11983.223500       0.963932
    11997.600500       0.965522
    12012.012000       0.967074
    12026.458200       0.968591
    12040.939200       0.970070
    12055.455100       0.971514
    12070.006000       0.972921
    12084.592100       0.974291
    12099.213600       0.975625
    12113.870400       0.976923
    12128.562800       0.978184
    12143.290800       0.979409
    12158.054700       0.980597
    12172.854500       0.981750
    12187.690400       0.982866
    12202.562500       0.983945
    12217.471000       0.984989
    12232.415900       0.985997
    12247.397400       0.986968
    12262.415700       0.987904
    12277.470800       0.988804
    12292.563000       0.989668
    12307.692300       0.990497
    12322.858900       0.991290
    12338.062900       0.992047
    12353.304500       0.992769
    12368.583800       0.993456
    12383.900900       0.994108
    12399.256000       0.994724
    12414.649300       0.995306
    12430.080800       0.995853
    12445.550700       0.996366
    12461.059200       0.996844
    12476.606400       0.997287
    12492.192400       0.997697
    12507.817400       0.998072
    12523.481500       0.998413
    12539.185000       0.998721
    12554.927800       0.998995
    12570.710200       0.999236
    12586.532400       0.999443
    12602.394500       0.999618
    12618.296500       0.999759
    12634.238800       0.999868
    12650.221400       0.999944
    12666.244500       0.999988
    12682.308200       1.000000
    12698.412700       0.999980
    12714.558200       0.999928
    12730.744700       0.999845
    12746.972600       0.999730
    12763.241900       0.999584
    12779.552700       0.999408
    12795.905300       0.999200
    12812.299800       0.998963
    12828.736400       0.998695
    12845.215200       0.998397
    12861.736300       0.998069
    12878.300100       0.997712
    12894.906500       0.997325
    12911.555800       0.996910
    12928.248200       0.996465
    12944.983800       0.995992
    12961.762800       0.995491
    12978.585300       0.994961
    12995.451600       0.994404
    13012.361700       0.993819
    13029.316000       0.993207
    13046.314400       0.992567
    13063.357300       0.991901
    13080.444700       0.991208
    13097.576900       0.990489
    13114.754100       0.989744
    13131.976400       0.988973
    13149.243900       0.988177
    13166.556900       0.987355
    13183.915600       0.986509
    13201.320100       0.985637
    13218.770700       0.984742
    13236.267400       0.983822
    13253.810500       0.982878
    13271.400100       0.981910
    13289.036500       0.980920
    13306.719900       0.979906
    13324.450400       0.978869
    13342.228200       0.977810
    13360.053400       0.976728
    13377.926400       0.975625
    13395.847300       0.974500
    13413.816200       0.973354
    13431.833400       0.972186
    13449.899100       0.970997
    13468.013500       0.969788
    13486.176700       0.968559
    13504.388900       0.967310
    13522.650400       0.966040
    13540.961400       0.964752
    13559.322000       0.963444
    13577.732500       0.962118
    13596.193100       0.960772
    13614.703900       0.959409
    13633.265200       0.958027
    13651.877100       0.956628
    13670.540000       0.955211
    13689.253900       0.953776
    13708.019200       0.952325
    13726.836000       0.950857
    13745.704500       0.949373
    13764.624900       0.947872
    13783.597500       0.946356
    13802.622500       0.944824
    13821.700100       0.943276
    13840.830400       0.941714
    13860.013900       0.940136
    13879.250500       0.938544
    13898.540700       0.936938
    13917.884500       0.935318
    13937.282200       0.933684
    13956.734100       0.932036
    13976.240400       0.930375
    13995.801300       0.928701
    14015.417000       0.927015
    14035.087700       0.925315
    14054.813800       0.923604
    14074.595400       0.921880
    14094.432700       0.920145
    14114.326000       0.918398
    14134.275600       0.916640
    14154.281700       0.914871
    14174.344400       0.913091
    14194.464200       0.911300
    14214.641100       0.909499
    14234.875400       0.907687
    14255.167500       0.905866
    14275.517500       0.904035
    14295.925700       0.902194
    14316.392300       0.900345
    14336.917600       0.898486
    14357.501800       0.896618
    14378.145200       0.894742
    14398.848100       0.892857
    14419.610700       0.890964
    14440.433200       0.889062
    14461.316000       0.887153
    14482.259200       0.885237
    14503.263200       0.883312
    14524.328200       0.881381
    14545.454500       0.879442
    14566.642400       0.877497
    14587.892000       0.875545
    14609.203800       0.873586
    14630.577900       0.871620
    14652.014700       0.869649
    14673.514300       0.867671
    14695.077100       0.865688
    14716.703500       0.863699
    14738.393500       0.861704
    14760.147600       0.859703
    14781.966000       0.857698
    14803.849000       0.855687
    14825.796900       0.853671
    14847.809900       0.851650
    14869.888500       0.849625
    14892.032800       0.847595
    14914.243100       0.845560
    14936.519800       0.843521
    14958.863100       0.841478
    14981.273400       0.839430
    15003.750900       0.837379
    15026.296000       0.835324
    15048.909000       0.833264
    15071.590100       0.831202
    15094.339600       0.829135
    15117.158000       0.827065
    15140.045400       0.824992
    15163.002300       0.822915
    15186.028900       0.820835
    15209.125500       0.818751
    15232.292500       0.816665
    15255.530100       0.814576
    15278.838800       0.812483
    15302.218800       0.810388
    15325.670500       0.808290
    15349.194200       0.806189
    15372.790200       0.804086
    15396.458800       0.801979
    15420.200500       0.799870
    15444.015400       0.797759
    15467.904100       0.795645
    15491.866800       0.793528
    15515.903800       0.791409
    15540.015500       0.789288
    15564.202300       0.787164
    15588.464500       0.785038
    15612.802500       0.782910
    15637.216600       0.780779
    15661.707100       0.778645
    15686.274500       0.776510
    15710.919100       0.774372
    15735.641200       0.772232
    15760.441300       0.770089
    15785.319700       0.767945
    15810.276700       0.765798
    15835.312700       0.763648
    15860.428200       0.761496
    15885.623500       0.759342
    15910.899000       0.757186
    15936.255000       0.755027
    15961.691900       0.752866
    15987.210200       0.750702
    16012.810200       0.748536
    16038.492400       0.746367
    16064.257000       0.744196
    16090.104600       0.742023
    16116.035500       0.739846
    16142.050000       0.737667
    16168.148700       0.735486
    16194.332000       0.733301
    16220.600200       0.731114
    16246.953700       0.728924
    16273.393000       0.726731
    16299.918500       0.724536
    16326.530600       0.722337
    16353.229800       0.720135
    16380.016400       0.717930
    16406.890900       0.715722
    16433.853700       0.713510
    16460.905300       0.711296
    16488.046200       0.709077
    16515.276600       0.706856
    16542.597200       0.704631
    16570.008300       0.702402
    16597.510400       0.700169
    16625.103900       0.697933
    16652.789300       0.695693
    16680.567100       0.693449
    16708.437800       0.691201
    16736.401700       0.688948
    16764.459300       0.686692
    16792.611300       0.684431
    16820.857900       0.682166
    16849.199700       0.679897
    16877.637100       0.677623
    16906.170800       0.675344
    16934.801000       0.673060
    16963.528400       0.670772
    16992.353400       0.668479
    17021.276600       0.666181
    17050.298400       0.663877
    17079.419300       0.661569
    17108.639900       0.659255
    17137.960600       0.656936
    17167.382000       0.654611
    17196.904600       0.652281
    17226.528900       0.649945
    17256.255400       0.647603
    17286.084700       0.645255
    17316.017300       0.642902
    17346.053800       0.640542
    17376.194600       0.638176
    17406.440400       0.635804
    17436.791600       0.633426
    17467.248900       0.631041
    17497.812800       0.628649
    17528.483800       0.626251
    17559.262500       0.623847
    17590.149500       0.621435
    17621.145400       0.619017
    17652.250700       0.616591
    17683.466000       0.614159
    17714.791900       0.611719
    17746.228900       0.609272
    17777.777800       0.606817
    17809.439000       0.604356
    17841.213200       0.601886
    17873.101000       0.599409
    17905.103000       0.596925
    17937.219700       0.594433
    17969.451900       0.591933
    18001.800200       0.589425
    18034.265100       0.586909
    18066.847300       0.584385
    18099.547500       0.581853
    18132.366300       0.579313
    18165.304300       0.576764
    18198.362100       0.574208
    18231.540600       0.571643
    18264.840200       0.569070
    18298.261700       0.566488
    18331.805700       0.563897
    18365.472900       0.561299
    18399.264000       0.558691
    18433.179700       0.556075
    18467.220700       0.553450
    18501.387600       0.550817
    18535.681200       0.548175
    18570.102100       0.545524
    18604.651200       0.542864
    18639.329000       0.540196
    18674.136300       0.537518
    18709.073900       0.534832
    18744.142500       0.532137
    18779.342700       0.529434
    18814.675400       0.526721
    18850.141400       0.523999
    18885.741300       0.521269
    18921.475900       0.518529
    18957.346000       0.515781
    18993.352300       0.513024
    19029.495700       0.510258
    19065.776900       0.507483
    19102.196800       0.504700
    19138.756000       0.501908
    19175.455400       0.499107
    19212.295900       0.496297
    19249.278200       0.493479
    19286.403100       0.490652
    19323.671500       0.487816
    19361.084200       0.484973
    19398.642100       0.482120
    19436.346000       0.479260
    19474.196700       0.476391
    19512.195100       0.473513
    19550.342100       0.470628
    19588.638600       0.467735
    19627.085400       0.464833
    19665.683400       0.461924
    19704.433500       0.459007
    19743.336600       0.456082
    19782.393700       0.453150
    19821.605600       0.450210
    19860.973200       0.447263
    19900.497500       0.444308
    19940.179500       0.441347
    19980.020000       0.438378
    20020.020000       0.435403
    20060.180500       0.432420
    20100.502500       0.429432
    20140.986900       0.426436
    20181.634700       0.423435
    20222.446900       0.420427
    20263.424500       0.417414
    20304.568500       0.414394
    20345.880000       0.411369
    20387.359800       0.408339
    20429.009200       0.405303
    20470.829100       0.402263
    20512.820500       0.399217
    20554.984600       0.396167
    20597.322300       0.393112
    20639.834900       0.390053
    20682.523300       0.386990
    20725.388600       0.383922
    20768.432000       0.380852
    20811.654500       0.377778
    20855.057400       0.374700
    20898.641600       0.371620
    20942.408400       0.368537
    20986.358900       0.365452
    21030.494200       0.362364
    21074.815600       0.359274
    21119.324200       0.356183
    21164.021200       0.353090
    21208.907700       0.349996
    21253.985100       0.346900
    21299.254500       0.343805
    21344.717200       0.340708
    21390.374300       0.337612
    21436.227200       0.334516
    21482.277100       0.331420
    21528.525300       0.328325
    21574.973000       0.325231
    21621.621600       0.322138
    21668.472400       0.319047
    21715.526600       0.315958
    21762.785600       0.312871
    21810.250800       0.309786
    21857.923500       0.306704
    21905.805000       0.303626
    21953.896800       0.300551
    22002.200200       0.297479
    22050.716600       0.294412
    22099.447500       0.291349
    22148.394200       0.288291
    22197.558300       0.285237
    22246.941000       0.282190
    22296.544000       0.279147
    22346.368700       0.276111
    22396.416600       0.273082
    22446.689100       0.270059
    22497.187900       0.267043
    22547.914300       0.264034
    22598.870100       0.261033
    22650.056600       0.258040
    22701.475600       0.255055
    22753.128600       0.252080
    22805.017100       0.249113
    22857.142900       0.246155
    22909.507400       0.243207
    22962.112500       0.240270
    23014.959700       0.237342
    23068.050700       0.234426
    23121.387300       0.231520
    23174.971000       0.228625
    23228.803700       0.225743
    23282.887100       0.222872
    23337.222900       0.220014
    23391.812900       0.217168
    23446.658900       0.214335
    23501.762600       0.211516
    23557.126000       0.208710
    23612.750900       0.205918
    23668.639100       0.203140
    23724.792400       0.200376
    23781.212800       0.197628
    23837.902300       0.194894
    23894.862600       0.192176
    23952.095800       0.189473
    24009.603800       0.186786
    24067.388700       0.184116
    24125.452400       0.181462
    24183.796900       0.178824
    24242.424200       0.176204
    24301.336600       0.173600
    24360.535900       0.171014
    24420.024400       0.168446
    24479.804200       0.165896
    24539.877300       0.163363
    24600.246000       0.160849
    24660.912500       0.158354
    24721.878900       0.155877
    24783.147500       0.153419
    24844.720500       0.150979
    24906.600200       0.148559
    24968.789000       0.146159
    25031.289100       0.143777
    25094.102900       0.141416
    25157.232700       0.139073
    25220.681000       0.136751
    25284.450100       0.134448
    25348.542500       0.132166
    25412.960600       0.129903
    25477.707000       0.127660
