42,   42, MVIRI VIS channel from srf_MET2_1987123_1987124_1801-Release_S10EL_10.dat
Number of data points:
730
Wavenumber (cm-1)   Filter response
     8916.629500       0.000000
     8924.587200       0.000000
     8932.559200       0.000002
     8940.545400       0.000011
     8948.545900       0.000032
     8956.560700       0.000069
     8964.589900       0.000126
     8972.633500       0.000208
     8980.691500       0.000319
     8988.764000       0.000462
     8996.851100       0.000641
     9004.952700       0.000860
     9013.068900       0.001121
     9021.199800       0.001429
     9029.345400       0.001786
     9037.505600       0.002195
     9045.680700       0.002659
     9053.870500       0.003181
     9062.075200       0.003763
     9070.294800       0.004407
     9078.529300       0.005115
     9086.778700       0.005890
     9095.043200       0.006734
     9103.322700       0.007649
     9111.617300       0.008636
     9119.927000       0.009696
     9128.251900       0.010833
     9136.592100       0.012046
     9144.947400       0.013337
     9153.318100       0.014708
     9161.704100       0.016158
     9170.105500       0.017691
     9178.522300       0.019306
     9186.954500       0.021004
     9195.402300       0.022786
     9203.865600       0.024653
     9212.344500       0.026604
     9220.839100       0.028642
     9229.349300       0.030765
     9237.875300       0.032974
     9246.417000       0.035270
     9254.974500       0.037653
     9263.547900       0.040123
     9272.137200       0.042679
     9280.742500       0.045322
     9289.363700       0.048052
     9298.000900       0.050868
     9306.654300       0.053771
     9315.323700       0.056759
     9324.009300       0.059833
     9332.711200       0.062992
     9341.429200       0.066236
     9350.163600       0.069564
     9358.914400       0.072975
     9367.681500       0.076470
     9376.465100       0.080048
     9385.265100       0.083706
     9394.081700       0.087446
     9402.914900       0.091265
     9411.764700       0.095165
     9420.631200       0.099142
     9429.514400       0.103197
     9438.414300       0.107329
     9447.331100       0.111536
     9456.264800       0.115818
     9465.215300       0.120173
     9474.182900       0.124601
     9483.167400       0.129101
     9492.169000       0.133670
     9501.187600       0.138309
     9510.223500       0.143016
     9519.276500       0.147789
     9528.346800       0.152629
     9537.434400       0.157533
     9546.539400       0.162499
     9555.661700       0.167527
     9564.801500       0.172616
     9573.958800       0.177764
     9583.133700       0.182971
     9592.326100       0.188233
     9601.536200       0.193551
     9610.764100       0.198922
     9620.009600       0.204347
     9629.273000       0.209822
     9638.554200       0.215347
     9647.853400       0.220920
     9657.170400       0.226540
     9666.505600       0.232206
     9675.858700       0.237916
     9685.230000       0.243668
     9694.619500       0.249461
     9704.027200       0.255294
     9713.453100       0.261166
     9722.897400       0.267075
     9732.360100       0.273019
     9741.841200       0.278998
     9751.340800       0.285008
     9760.859000       0.291050
     9770.395700       0.297123
     9779.951100       0.303222
     9789.525200       0.309350
     9799.118100       0.315503
     9808.729800       0.321679
     9818.360300       0.327879
     9828.009800       0.334099
     9837.678300       0.340340
     9847.365800       0.346599
     9857.072400       0.352875
     9866.798200       0.359167
     9876.543200       0.365472
     9886.307500       0.371792
     9896.091000       0.378123
     9905.894000       0.384464
     9915.716400       0.390814
     9925.558300       0.397171
     9935.419800       0.403535
     9945.300800       0.409905
     9955.201600       0.416277
     9965.122100       0.422652
     9975.062300       0.429028
     9985.022500       0.435405
     9995.002500       0.441780
    10005.002500       0.448152
    10015.022500       0.454521
    10025.062700       0.460885
    10035.122900       0.467242
    10045.203400       0.473592
    10055.304200       0.479934
    10065.425300       0.486266
    10075.566800       0.492587
    10085.728700       0.498897
    10095.911200       0.505193
    10106.114200       0.511475
    10116.337900       0.517743
    10126.582300       0.523993
    10136.847400       0.530227
    10147.133400       0.536443
    10157.440300       0.542639
    10167.768200       0.548814
    10178.117000       0.554969
    10188.487000       0.561101
    10198.878100       0.567211
    10209.290500       0.573295
    10219.724100       0.579355
    10230.179000       0.585389
    10240.655400       0.591397
    10251.153300       0.597377
    10261.672700       0.603328
    10272.213700       0.609249
    10282.776300       0.615141
    10293.360800       0.621002
    10303.967000       0.626831
    10314.595200       0.632627
    10325.245200       0.638390
    10335.917300       0.644120
    10346.611500       0.649814
    10357.327800       0.655473
    10368.066400       0.661096
    10378.827200       0.666682
    10389.610400       0.672231
    10400.416000       0.677742
    10411.244100       0.683214
    10422.094800       0.688647
    10432.968200       0.694041
    10443.864200       0.699394
    10454.783100       0.704705
    10465.724800       0.709976
    10476.689400       0.715204
    10487.677000       0.720390
    10498.687700       0.725533
    10509.721500       0.730633
    10520.778500       0.735689
    10531.858900       0.740700
    10542.962600       0.745667
    10554.089700       0.750588
    10565.240400       0.755464
    10576.414600       0.760294
    10587.612500       0.765077
    10598.834100       0.769814
    10610.079600       0.774504
    10621.348900       0.779147
    10632.642200       0.783742
    10643.959600       0.788289
    10655.301000       0.792788
    10666.666700       0.797239
    10678.056600       0.801641
    10689.470900       0.805994
    10700.909600       0.810298
    10712.372800       0.814552
    10723.860600       0.818757
    10735.373100       0.822913
    10746.910300       0.827018
    10758.472300       0.831073
    10770.059200       0.835079
    10781.671200       0.839034
    10793.308100       0.842938
    10804.970300       0.846792
    10816.657700       0.850595
    10828.370300       0.854348
    10840.108400       0.858050
    10851.871900       0.861701
    10863.661100       0.865301
    10875.475800       0.868851
    10887.316300       0.872349
    10899.182600       0.875796
    10911.074700       0.879193
    10922.992900       0.882538
    10934.937100       0.885833
    10946.907500       0.889077
    10958.904100       0.892270
    10970.927000       0.895412
    10982.976400       0.898503
    10995.052200       0.901544
    11007.154700       0.904534
    11019.283700       0.907474
    11031.439600       0.910363
    11043.622300       0.913202
    11055.832000       0.915991
    11068.068600       0.918729
    11080.332400       0.921418
    11092.623400       0.924057
    11104.941700       0.926646
    11117.287400       0.929186
    11129.660500       0.931676
    11142.061300       0.934117
    11154.489700       0.936510
    11166.945800       0.938853
    11179.429800       0.941148
    11191.941800       0.943394
    11204.481800       0.945592
    11217.049900       0.947742
    11229.646300       0.949844
    11242.270900       0.951899
    11254.924000       0.953906
    11267.605600       0.955866
    11280.315800       0.957779
    11293.054800       0.959645
    11305.822500       0.961465
    11318.619100       0.963239
    11331.444800       0.964967
    11344.299500       0.966649
    11357.183400       0.968286
    11370.096600       0.969878
    11383.039300       0.971425
    11396.011400       0.972927
    11409.013100       0.974385
    11422.044500       0.975799
    11435.105800       0.977169
    11448.196900       0.978496
    11461.318100       0.979780
    11474.469300       0.981021
    11487.650800       0.982219
    11500.862600       0.983375
    11514.104800       0.984489
    11527.377500       0.985562
    11540.680900       0.986593
    11554.015000       0.987583
    11567.380000       0.988533
    11580.775900       0.989442
    11594.202900       0.990311
    11607.661100       0.991141
    11621.150500       0.991931
    11634.671300       0.992682
    11648.223600       0.993394
    11661.807600       0.994067
    11675.423200       0.994703
    11689.070700       0.995301
    11702.750100       0.995861
    11716.461600       0.996384
    11730.205300       0.996871
    11743.981200       0.997321
    11757.789500       0.997734
    11771.630400       0.998112
    11785.503800       0.998455
    11799.410000       0.998762
    11813.349100       0.999035
    11827.321100       0.999273
    11841.326200       0.999476
    11855.364600       0.999646
    11869.436200       0.999783
    11883.541300       0.999886
    11897.680000       0.999957
    11911.852300       0.999994
    11926.058400       1.000000
    11940.298500       0.999974
    11954.572600       0.999916
    11968.880900       0.999827
    11983.223500       0.999707
    11997.600500       0.999556
    12012.012000       0.999375
    12026.458200       0.999164
    12040.939200       0.998924
    12055.455100       0.998654
    12070.006000       0.998355
    12084.592100       0.998027
    12099.213600       0.997671
    12113.870400       0.997287
    12128.562800       0.996875
    12143.290800       0.996435
    12158.054700       0.995968
    12172.854500       0.995474
    12187.690400       0.994954
    12202.562500       0.994407
    12217.471000       0.993834
    12232.415900       0.993236
    12247.397400       0.992612
    12262.415700       0.991963
    12277.470800       0.991288
    12292.563000       0.990590
    12307.692300       0.989866
    12322.858900       0.989119
    12338.062900       0.988348
    12353.304500       0.987553
    12368.583800       0.986735
    12383.900900       0.985894
    12399.256000       0.985031
    12414.649300       0.984144
    12430.080800       0.983236
    12445.550700       0.982305
    12461.059200       0.981353
    12476.606400       0.980379
    12492.192400       0.979384
    12507.817400       0.978367
    12523.481500       0.977330
    12539.185000       0.976273
    12554.927800       0.975195
    12570.710200       0.974096
    12586.532400       0.972978
    12602.394500       0.971841
    12618.296500       0.970684
    12634.238800       0.969507
    12650.221400       0.968312
    12666.244500       0.967098
    12682.308200       0.965865
    12698.412700       0.964613
    12714.558200       0.963344
    12730.744700       0.962056
    12746.972600       0.960751
    12763.241900       0.959428
    12779.552700       0.958087
    12795.905300       0.956730
    12812.299800       0.955355
    12828.736400       0.953963
    12845.215200       0.952555
    12861.736300       0.951129
    12878.300100       0.949688
    12894.906500       0.948230
    12911.555800       0.946757
    12928.248200       0.945267
    12944.983800       0.943762
    12961.762800       0.942241
    12978.585300       0.940705
    12995.451600       0.939153
    13012.361700       0.937586
    13029.316000       0.936005
    13046.314400       0.934408
    13063.357300       0.932797
    13080.444700       0.931171
    13097.576900       0.929531
    13114.754100       0.927877
    13131.976400       0.926208
    13149.243900       0.924525
    13166.556900       0.922829
    13183.915600       0.921118
    13201.320100       0.919394
    13218.770700       0.917657
    13236.267400       0.915906
    13253.810500       0.914141
    13271.400100       0.912364
    13289.036500       0.910573
    13306.719900       0.908770
    13324.450400       0.906953
    13342.228200       0.905124
    13360.053400       0.903282
    13377.926400       0.901428
    13395.847300       0.899561
    13413.816200       0.897682
    13431.833400       0.895790
    13449.899100       0.893886
    13468.013500       0.891970
    13486.176700       0.890042
    13504.388900       0.888102
    13522.650400       0.886151
    13540.961400       0.884187
    13559.322000       0.882212
    13577.732500       0.880226
    13596.193100       0.878227
    13614.703900       0.876218
    13633.265200       0.874197
    13651.877100       0.872165
    13670.540000       0.870121
    13689.253900       0.868067
    13708.019200       0.866001
    13726.836000       0.863925
    13745.704500       0.861837
    13764.624900       0.859739
    13783.597500       0.857630
    13802.622500       0.855510
    13821.700100       0.853380
    13840.830400       0.851239
    13860.013900       0.849087
    13879.250500       0.846925
    13898.540700       0.844753
    13917.884500       0.842570
    13937.282200       0.840377
    13956.734100       0.838175
    13976.240400       0.835961
    13995.801300       0.833738
    14015.417000       0.831505
    14035.087700       0.829262
    14054.813800       0.827009
    14074.595400       0.824747
    14094.432700       0.822474
    14114.326000       0.820192
    14134.275600       0.817900
    14154.281700       0.815599
    14174.344400       0.813288
    14194.464200       0.810968
    14214.641100       0.808638
    14234.875400       0.806300
    14255.167500       0.803951
    14275.517500       0.801594
    14295.925700       0.799228
    14316.392300       0.796852
    14336.917600       0.794468
    14357.501800       0.792075
    14378.145200       0.789672
    14398.848100       0.787262
    14419.610700       0.784842
    14440.433200       0.782413
    14461.316000       0.779976
    14482.259200       0.777531
    14503.263200       0.775077
    14524.328200       0.772615
    14545.454500       0.770144
    14566.642400       0.767665
    14587.892000       0.765178
    14609.203800       0.762683
    14630.577900       0.760180
    14652.014700       0.757669
    14673.514300       0.755150
    14695.077100       0.752623
    14716.703500       0.750088
    14738.393500       0.747546
    14760.147600       0.744997
    14781.966000       0.742439
    14803.849000       0.739875
    14825.796900       0.737303
    14847.809900       0.734724
    14869.888500       0.732137
    14892.032800       0.729544
    14914.243100       0.726944
    14936.519800       0.724336
    14958.863100       0.721722
    14981.273400       0.719102
    15003.750900       0.716474
    15026.296000       0.713840
    15048.909000       0.711200
    15071.590100       0.708553
    15094.339600       0.705901
    15117.158000       0.703242
    15140.045400       0.700576
    15163.002300       0.697906
    15186.028900       0.695229
    15209.125500       0.692546
    15232.292500       0.689858
    15255.530100       0.687164
    15278.838800       0.684465
    15302.218800       0.681761
    15325.670500       0.679051
    15349.194200       0.676337
    15372.790200       0.673617
    15396.458800       0.670893
    15420.200500       0.668163
    15444.015400       0.665429
    15467.904100       0.662691
    15491.866800       0.659948
    15515.903800       0.657202
    15540.015500       0.654450
    15564.202300       0.651695
    15588.464500       0.648936
    15612.802500       0.646174
    15637.216600       0.643407
    15661.707100       0.640637
    15686.274500       0.637864
    15710.919100       0.635087
    15735.641200       0.632308
    15760.441300       0.629525
    15785.319700       0.626740
    15810.276700       0.623951
    15835.312700       0.621161
    15860.428200       0.618367
    15885.623500       0.615572
    15910.899000       0.612774
    15936.255000       0.609974
    15961.691900       0.607173
    15987.210200       0.604370
    16012.810200       0.601564
    16038.492400       0.598758
    16064.257000       0.595950
    16090.104600       0.593141
    16116.035500       0.590331
    16142.050000       0.587520
    16168.148700       0.584709
    16194.332000       0.581897
    16220.600200       0.579084
    16246.953700       0.576271
    16273.393000       0.573458
    16299.918500       0.570645
    16326.530600       0.567832
    16353.229800       0.565020
    16380.016400       0.562207
    16406.890900       0.559396
    16433.853700       0.556585
    16460.905300       0.553775
    16488.046200       0.550966
    16515.276600       0.548158
    16542.597200       0.545352
    16570.008300       0.542547
    16597.510400       0.539744
    16625.103900       0.536942
    16652.789300       0.534142
    16680.567100       0.531345
    16708.437800       0.528550
    16736.401700       0.525757
    16764.459300       0.522967
    16792.611300       0.520179
    16820.857900       0.517394
    16849.199700       0.514612
    16877.637100       0.511833
    16906.170800       0.509058
    16934.801000       0.506286
    16963.528400       0.503517
    16992.353400       0.500752
    17021.276600       0.497991
    17050.298400       0.495234
    17079.419300       0.492481
    17108.639900       0.489732
    17137.960600       0.486987
    17167.382000       0.484247
    17196.904600       0.481512
    17226.528900       0.478781
    17256.255400       0.476055
    17286.084700       0.473334
    17316.017300       0.470619
    17346.053800       0.467908
    17376.194600       0.465203
    17406.440400       0.462504
    17436.791600       0.459810
    17467.248900       0.457122
    17497.812800       0.454439
    17528.483800       0.451763
    17559.262500       0.449093
    17590.149500       0.446428
    17621.145400       0.443771
    17652.250700       0.441119
    17683.466000       0.438474
    17714.791900       0.435835
    17746.228900       0.433204
    17777.777800       0.430579
    17809.439000       0.427960
    17841.213200       0.425349
    17873.101000       0.422745
    17905.103000       0.420148
    17937.219700       0.417558
    17969.451900       0.414975
    18001.800200       0.412400
    18034.265100       0.409832
    18066.847300       0.407271
    18099.547500       0.404718
    18132.366300       0.402173
    18165.304300       0.399635
    18198.362100       0.397105
    18231.540600       0.394582
    18264.840200       0.392068
    18298.261700       0.389561
    18331.805700       0.387062
    18365.472900       0.384571
    18399.264000       0.382088
    18433.179700       0.379612
    18467.220700       0.377145
    18501.387600       0.374686
    18535.681200       0.372235
    18570.102100       0.369791
    18604.651200       0.367356
    18639.329000       0.364929
    18674.136300       0.362510
    18709.073900       0.360099
    18744.142500       0.357695
    18779.342700       0.355300
    18814.675400       0.352913
    18850.141400       0.350534
    18885.741300       0.348163
    18921.475900       0.345799
    18957.346000       0.343444
    18993.352300       0.341096
    19029.495700       0.338756
    19065.776900       0.336424
    19102.196800       0.334099
    19138.756000       0.331782
    19175.455400       0.329473
    19212.295900       0.327171
    19249.278200       0.324877
    19286.403100       0.322590
    19323.671500       0.320310
    19361.084200       0.318037
    19398.642100       0.315772
    19436.346000       0.313514
    19474.196700       0.311262
    19512.195100       0.309018
    19550.342100       0.306780
    19588.638600       0.304548
    19627.085400       0.302324
    19665.683400       0.300105
    19704.433500       0.297893
    19743.336600       0.295687
    19782.393700       0.293487
    19821.605600       0.291293
    19860.973200       0.289104
    19900.497500       0.286922
    19940.179500       0.284744
    19980.020000       0.282572
    20020.020000       0.280406
    20060.180500       0.278244
    20100.502500       0.276087
    20140.986900       0.273934
    20181.634700       0.271787
    20222.446900       0.269643
    20263.424500       0.267504
    20304.568500       0.265369
    20345.880000       0.263237
    20387.359800       0.261109
    20429.009200       0.258985
    20470.829100       0.256863
    20512.820500       0.254745
    20554.984600       0.252630
    20597.322300       0.250517
    20639.834900       0.248407
    20682.523300       0.246299
    20725.388600       0.244193
    20768.432000       0.242089
    20811.654500       0.239986
    20855.057400       0.237885
    20898.641600       0.235785
    20942.408400       0.233686
    20986.358900       0.231588
    21030.494200       0.229490
    21074.815600       0.227393
    21119.324200       0.225296
    21164.021200       0.223198
    21208.907700       0.221101
    21253.985100       0.219002
    21299.254500       0.216903
    21344.717200       0.214803
    21390.374300       0.212702
    21436.227200       0.210599
    21482.277100       0.208494
    21528.525300       0.206388
    21574.973000       0.204279
    21621.621600       0.202168
    21668.472400       0.200054
    21715.526600       0.197938
    21762.785600       0.195819
    21810.250800       0.193696
    21857.923500       0.191570
    21905.805000       0.189440
    21953.896800       0.187306
    22002.200200       0.185168
    22050.716600       0.183026
    22099.447500       0.180880
    22148.394200       0.178728
    22197.558300       0.176572
    22246.941000       0.174411
    22296.544000       0.172244
    22346.368700       0.170072
    22396.416600       0.167895
    22446.689100       0.165711
    22497.187900       0.163522
    22547.914300       0.161327
    22598.870100       0.159125
    22650.056600       0.156917
    22701.475600       0.154702
    22753.128600       0.152481
    22805.017100       0.150253
    22857.142900       0.148018
    22909.507400       0.145776
    22962.112500       0.143527
    23014.959700       0.141271
    23068.050700       0.139007
    23121.387300       0.136736
    23174.971000       0.134458
    23228.803700       0.132172
    23282.887100       0.129879
    23337.222900       0.127578
    23391.812900       0.125270
    23446.658900       0.122954
    23501.762600       0.120631
    23557.126000       0.118300
    23612.750900       0.115962
    23668.639100       0.113616
    23724.792400       0.111263
    23781.212800       0.108903
    23837.902300       0.106535
    23894.862600       0.104160
    23952.095800       0.101779
    24009.603800       0.099390
    24067.388700       0.096995
    24125.452400       0.094594
    24183.796900       0.092186
    24242.424200       0.089772
    24301.336600       0.087353
    24360.535900       0.084927
    24420.024400       0.082497
    24479.804200       0.080061
    24539.877300       0.077621
    24600.246000       0.075177
    24660.912500       0.072728
    24721.878900       0.070276
    24783.147500       0.067820
    24844.720500       0.065362
    24906.600200       0.062901
    24968.789000       0.060439
    25031.289100       0.057975
    25094.102900       0.055510
    25157.232700       0.053045
    25220.681000       0.050581
    25284.450100       0.048117
    25348.542500       0.045654
    25412.960600       0.043194
    25477.707000       0.040737
