13,    channel 13 SRF extracted from SRF_FY-3F_MERSI-III.zip(FY3F_MERSI_SRF_CH13_Pub.txt) (received Nov 2023)
Number of data points:
737
Wavenumber (cm-1)   Filter response
    12026.456800       0.001110
    12033.700100       0.001020
    12040.952200       0.001020
    12048.187000       0.001110
    12055.458000       0.001110
    12062.713100       0.001110
    12070.004600       0.001110
    12077.310700       0.001200
    12084.595100       0.001110
    12091.891100       0.001020
    12099.226700       0.000932
    12106.541900       0.000933
    12113.868900       0.000756
    12121.207700       0.000757
    12128.555400       0.000757
    12135.913500       0.000845
    12143.283500       0.000846
    12150.662400       0.000934
    12158.053200       0.001020
    12165.453100       0.001110
    12172.861900       0.001110
    12180.256100       0.001200
    12187.687500       0.001200
    12195.129400       0.001110
    12202.555100       0.001020
    12210.018200       0.001020
    12217.463500       0.001020
    12224.950800       0.001020
    12232.415900       0.001280
    12239.894600       0.001540
    12247.412400       0.001540
    12254.908000       0.001540
    12262.418700       0.001540
    12269.940200       0.001370
    12277.469300       0.001200
    12285.010800       0.001280
    12292.564500       0.001280
    12300.127500       0.001280
    12307.701400       0.001370
    12315.258800       0.001370
    12322.852800       0.001200
    12330.460800       0.001200
    12338.049200       0.001200
    12345.677500       0.001110
    12353.318200       0.001030
    12360.937900       0.001030
    12368.599100       0.000948
    12376.243800       0.000948
    12383.897900       0.000948
    12391.561400       0.000948
    12399.266800       0.001030
    12406.952500       0.001110
    12414.652400       0.001110
    12422.360200       0.001030
    12430.082300       0.001120
    12437.812500       0.001120
    12445.555400       0.001030
    12453.307900       0.000953
    12461.073200       0.000954
    12468.820200       0.000954
    12476.606400       0.000954
    12484.405400       0.000955
    12492.184600       0.001040
    12500.006300       0.001040
    12507.808000       0.001040
    12515.650800       0.001040
    12523.475300       0.001040
    12531.344000       0.000959
    12539.189700       0.000959
    12547.048300       0.000959
    12554.918400       0.000959
    12562.799900       0.000960
    12570.726000       0.001040
    12578.627400       0.001040
    12586.543500       0.001040
    12594.469500       0.000963
    12602.408700       0.000964
    12610.329300       0.000964
    12618.290200       0.001042
    12626.264200       0.001042
    12634.250000       0.001196
    12642.217000       0.001197
    12650.224600       0.001197
    12658.211800       0.001121
    12666.242900       0.001121
    12674.256800       0.001044
    12682.311400       0.001121
    12690.347300       0.001121
    12698.427200       0.001197
    12706.485100       0.001197
    12714.556600       0.001272
    12722.638200       0.001272
    12730.733400       0.001272
    12738.838900       0.001272
    12746.958000       0.001200
    12755.089000       0.001050
    12763.228800       0.000975
    12771.383900       0.000901
    12779.549400       0.000901
    12787.728700       0.000975
    12795.918400       0.000976
    12804.085800       0.001050
    12812.301400       0.001124
    12820.527600       0.001196
    12828.733100       0.001196
    12836.983700       0.001197
    12845.213500       0.001197
    12853.455600       0.001197
    12861.743000       0.001053
    12870.009600       0.001053
    12878.288500       0.001054
    12886.611200       0.001054
    12894.913200       0.001054
    12903.229100       0.001055
    12911.557500       0.000984
    12919.898300       0.001056
    12928.249900       0.001056
    12936.615600       0.000986
    12944.992200       0.001056
    12953.383000       0.001127
    12961.749400       0.001057
    12970.165200       0.001127
    12978.592100       0.001197
    12986.996100       0.001197
    12995.448200       0.001197
    13003.913000       0.001404
    13012.356700       0.001541
    13020.846900       0.001541
    13029.314300       0.001609
    13037.797700       0.001609
    13046.324600       0.001540
    13054.832000       0.001469
    13063.350500       0.001605
    13071.881800       0.001604
    13080.460100       0.001672
    13089.017200       0.001671
    13097.589000       0.001468
    13106.171900       0.001400
    13114.767900       0.001670
    13123.375100       0.001730
    13131.964300       0.001800
    13140.597600       0.002064
    13149.243900       0.002130
    13157.903400       0.001928
    13166.541300       0.001926
    13175.230600       0.001859
    13183.929500       0.001725
    13192.606900       0.001724
    13201.332300       0.001722
    13210.036100       0.001721
    13218.788100       0.001850
    13227.516700       0.001980
    13236.260400       0.001913
    13245.017300       0.002041
    13253.822800       0.002169
    13262.603000       0.002103
    13271.400100       0.001908
    13280.209000       0.001970
    13289.033000       0.001840
    13297.868800       0.001838
    13306.718100       0.001901
    13315.579200       0.002156
    13324.453900       0.002281
    13333.342200       0.002344
    13342.212100       0.002341
    13351.127700       0.002466
    13360.055200       0.002527
    13369.000000       0.002650
    13377.921100       0.002837
    13386.891600       0.002897
    13395.840100       0.002832
    13404.836500       0.002954
    13413.812600       0.002950
    13422.836800       0.002880
    13431.840700       0.003130
    13440.856600       0.003376
    13449.886500       0.003310
    13458.966500       0.003430
    13468.024400       0.003797
    13477.094400       0.003920
    13486.180300       0.004030
    13495.278500       0.004460
    13504.390800       0.004700
    13513.517200       0.004816
    13522.659600       0.005115
    13531.812500       0.005536
    13540.944900       0.005833
    13550.126300       0.006313
    13559.323900       0.006730
    13568.533900       0.007205
    13577.723300       0.007740
    13586.962100       0.008454
    13596.176400       0.009045
    13605.444000       0.009996
    13614.689100       0.010900
    13623.983800       0.011947
    13633.257700       0.013187
    13642.583400       0.014663
    13651.882700       0.016313
    13661.198500       0.018196
    13670.530600       0.020400
    13679.871800       0.023000
    13689.270800       0.026400
    13698.643300       0.030300
    13708.030500       0.035000
    13717.430500       0.040812
    13726.847300       0.047585
    13736.280700       0.055570
    13745.687500       0.065116
    13755.148700       0.076099
    13764.623000       0.088920
    13774.112300       0.104273
    13783.616500       0.121680
    13793.095800       0.141947
    13802.630100       0.165413
    13812.141300       0.191945
    13821.702000       0.220893
    13831.243300       0.252941
    13840.834300       0.287262
    13850.405900       0.322985
    13860.027300       0.360558
    13869.627400       0.400035
    13879.240900       0.440136
    13888.908200       0.481000
    13898.552200       0.522206
    13908.211600       0.563254
    13917.886400       0.603494
    13927.574700       0.642992
    13937.278300       0.681695
    13946.997500       0.719000
    13956.732200       0.754070
    13966.482400       0.787000
    13976.248200       0.818471
    13986.027700       0.847178
    13995.783600       0.872879
    14005.594400       0.896596
    14015.420900       0.917951
    14025.263100       0.936107
    14035.079800       0.951643
    14044.953700       0.965636
    14054.799900       0.976745
    14064.705500       0.984819
    14074.583500       0.991773
    14084.517000       0.995774
    14094.428700       0.998941
    14104.354500       1.000000
    14114.334000       0.999908
    14124.291800       0.998000
    14134.267600       0.995962
    14144.253600       0.991287
    14154.299700       0.985797
    14164.320000       0.979608
    14174.354500       0.970788
    14184.407200       0.961274
    14194.474200       0.949749
    14204.559600       0.935561
    14214.659300       0.918992
    14224.732900       0.901149
    14234.865300       0.880062
    14245.012200       0.856238
    14255.175600       0.831157
    14265.314900       0.803789
    14275.513400       0.773428
    14285.724500       0.742000
    14295.911400       0.709000
    14306.155700       0.674000
    14316.373800       0.637000
    14326.651700       0.601000
    14336.903200       0.562954
    14347.214600       0.525416
    14357.499700       0.487474
    14367.801600       0.449885
    14378.159700       0.413129
    14388.495400       0.377097
    14398.846000       0.342000
    14409.215700       0.308969
    14419.598200       0.277566
    14429.997800       0.248057
    14440.414400       0.221000
    14450.848300       0.195000
    14461.301300       0.172000
    14471.769600       0.150000
    14482.250800       0.131000
    14492.753600       0.114091
    14503.271600       0.099202
    14513.805000       0.085995
    14524.315600       0.074400
    14534.885800       0.064230
    14545.469400       0.055396
    14556.030200       0.047694
    14566.648800       0.041173
    14577.242500       0.035672
    14587.896300       0.030922
    14598.525200       0.026816
    14609.214500       0.023405
    14619.878800       0.020475
    14630.556500       0.017921
    14641.299200       0.015741
    14652.012500       0.013828
    14662.743700       0.012235
    14673.492800       0.010909
    14684.305100       0.009795
    14695.087900       0.008736
    14705.891000       0.008099
    14716.710000       0.007411
    14727.547000       0.006829
    14738.402200       0.006300
    14749.273400       0.005825
    14760.162900       0.005350
    14771.070600       0.005033
    14781.952900       0.004611
    14792.895000       0.004295
    14803.855600       0.004080
    14814.834600       0.003820
    14825.785900       0.003610
    14836.799700       0.003500
    14847.790100       0.003290
    14858.841000       0.003189
    14869.910600       0.002930
    14880.952400       0.002820
    14892.012800       0.002612
    14903.136300       0.002559
    14914.232000       0.002350
    14925.391000       0.002297
    14936.526500       0.002088
    14947.678600       0.002035
    14958.847500       0.001930
    14970.082300       0.001930
    14981.286900       0.001830
    14992.512700       0.001669
    15003.757700       0.001616
    15015.019500       0.001512
    15026.298300       0.001407
    15037.598500       0.001459
    15048.918000       0.001459
    15060.254600       0.001354
    15071.610500       0.001249
    15082.935800       0.001249
    15094.330500       0.001250
    15105.742500       0.001250
    15117.174000       0.001250
    15128.579300       0.001350
    15140.045400       0.001355
    15151.533500       0.001250
    15162.997700       0.001302
    15174.520600       0.001302
    15186.019600       0.001250
    15197.584600       0.001303
    15209.120800       0.001303
    15220.677000       0.001197
    15232.301700       0.001144
    15243.893100       0.001144
    15255.509200       0.001091
    15267.191900       0.001091
    15278.841100       0.001144
    15290.515200       0.001144
    15302.207100       0.001090
    15313.919300       0.001037
    15325.654100       0.001037
    15337.399800       0.001037
    15349.170600       0.001090
    15360.961900       0.001090
    15372.773600       0.001144
    15384.603600       0.001144
    15396.454100       0.001144
    15408.322900       0.001090
    15420.212400       0.001144
    15432.075000       0.001091
    15444.003500       0.001038
    15455.955300       0.001040
    15467.925600       0.001090
    15479.866600       0.001090
    15491.878800       0.001140
    15503.864000       0.001200
    15515.911000       0.001140
    15527.935800       0.001140
    15540.027600       0.001092
    15552.092300       0.001092
    15564.226600       0.001039
    15576.331300       0.001039
    15588.454800       0.000987
    15600.602100       0.000987
    15612.817100       0.000935
    15625.002400       0.000935
    15637.214100       0.000935
    15649.442500       0.000935
    15661.690000       0.000988
    15673.964000       0.000988
    15686.257300       0.001040
    15698.567400       0.001040
    15710.901800       0.001040
    15723.258100       0.001040
    15735.633800       0.001090
    15748.029000       0.001093
    15760.446300       0.001145
    15772.885600       0.001200
    15785.297200       0.001200
    15797.778300       0.001200
    15810.281700       0.001140
    15822.809800       0.001090
    15835.307700       0.001040
    15847.873100       0.000989
    15860.413100       0.001041
    15873.026000       0.001093
    15885.605800       0.001093
    15898.261300       0.001093
    15910.886300       0.001145
    15923.587200       0.001041
    15936.257500       0.000989
    15948.948100       0.000989
    15961.712300       0.001041
    15974.446000       0.000989
    15987.207700       0.001041
    15999.987200       0.001093
    16012.787200       0.001145
    16025.664100       0.001145
    16038.510400       0.001150
    16051.377200       0.001093
    16064.269900       0.001093
    16077.183300       0.001040
    16090.117500       0.000989
    16103.077700       0.001041
    16116.058800       0.001040
    16129.008800       0.000989
    16142.037000       0.000989
    16155.086200       0.001040
    16168.159200       0.001041
    16181.253300       0.001093
    16194.318900       0.001093
    16207.458100       0.001145
    16220.621200       0.001145
    16233.755700       0.001145
    16246.966900       0.001093
    16260.146700       0.001093
    16273.403600       0.001040
    16286.629000       0.000989
    16299.931800       0.000937
    16313.203100       0.000937
    16326.557300       0.000937
    16339.877300       0.000989
    16353.219100       0.001041
    16366.585300       0.001093
    16380.032500       0.001145
    16393.445300       0.001145
    16406.882800       0.001093
    16420.345100       0.001093
    16433.829400       0.001041
    16447.395500       0.000988
    16460.929700       0.000988
    16474.486300       0.000988
    16488.067900       0.000936
    16501.674700       0.000988
    16515.303900       0.000988
    16528.901000       0.000988
    16542.583500       0.000988
    16556.283200       0.001040
    16570.011000       0.000988
    16583.764400       0.000988
    16597.482800       0.001040
    16611.284600       0.001040
    16625.109400       0.000988
    16638.962800       0.001090
    16652.781000       0.001092
    16666.680600       0.001092
    16680.547700       0.001092
    16694.499200       0.001144
    16708.418200       0.001092
    16722.419200       0.001144
    16736.384900       0.001092
    16750.438400       0.001092
    16764.456500       0.001039
    16778.501000       0.001039
    16792.631000       0.001039
    16806.722700       0.001092
    16820.843700       0.001092
    16834.988500       0.001090
    16849.219500       0.001040
    16863.417800       0.000986
    16877.640000       0.000933
    16891.889000       0.000933
    16906.165000       0.000986
    16920.465200       0.000986
    16934.795300       0.001038
    16949.146800       0.001091
    16963.522700       0.001144
    16977.925800       0.001144
    16992.359200       0.001197
    17006.817200       0.001197
    17021.302700       0.001144
    17035.749000       0.001091
    17050.292600       0.001091
    17064.852200       0.001144
    17079.445600       0.001091
    17094.002500       0.001090
    17108.645700       0.001090
    17123.317000       0.001037
    17137.954700       0.000983
    17152.679300       0.001037
    17167.370200       0.001090
    17182.151300       0.001090
    17196.892700       0.001090
    17211.727700       0.001036
    17226.531800       0.000982
    17241.352600       0.000928
    17256.273300       0.000982
    17271.151200       0.000982
    17286.063800       0.001035
    17301.065000       0.001035
    17316.026300       0.001090
    17331.019500       0.001030
    17346.038700       0.001030
    17361.090000       0.000980
    17376.164400       0.000980
    17391.334600       0.000980
    17406.464600       0.000980
    17421.624000       0.001034
    17436.816000       0.001088
    17452.031300       0.001088
    17467.279400       0.001088
    17482.490000       0.001142
    17497.791300       0.001090
    17513.122600       0.001030
    17528.483800       0.001030
    17543.872000       0.000977
    17559.290300       0.000977
    17574.673900       0.001032
    17590.146400       0.001032
    17605.655500       0.001087
    17621.120500       0.001086
    17636.687400       0.001031
    17652.278700       0.001031
    17667.838300       0.001086
    17683.487800       0.001031
    17699.102500       0.001030
    17714.817000       0.001090
    17730.490200       0.001086
    17746.260400       0.001030
    17761.995700       0.001085
    17777.762000       0.001141
    17793.619600       0.001141
    17809.445300       0.001085
    17825.299200       0.001141
    17841.181400       0.001141
    17857.165200       0.001141
    17873.110600       0.001084
    17889.084500       0.001140
    17905.090100       0.001197
    17921.127700       0.001140
    17937.197200       0.001084
    17953.292400       0.001140
    17969.422900       0.001140
    17985.579200       0.001083
    18001.771000       0.001140
    18017.992000       0.001140
    18034.242300       0.001082
    18050.528500       0.001082
    18066.844100       0.001082
    18083.189200       0.001025
    18099.570400       0.001082
    18115.909200       0.001081
    18132.353100       0.001081
    18148.826900       0.001023
    18165.330700       0.001023
    18181.798300       0.001020
    18198.365500       0.001020
    18214.969400       0.000964
    18231.530600       0.001020
    18248.198500       0.001080
    18264.823500       0.001020
    18281.552400       0.001080
    18298.248300       0.001079
    18315.041800       0.001020
    18331.799000       0.000961
    18348.590200       0.001020
    18365.483000       0.001020
    18382.339400       0.001019
    18399.230200       0.001078
    18416.223200       0.001197
    18433.176300       0.001137
    18450.167500       0.001078
    18467.186600       0.001140
    18484.312300       0.001077
    18501.401300       0.000957
    18518.521900       0.000956
    18535.677800       0.000956
    18552.868800       0.000956
    18570.095200       0.001020
    18587.346800       0.001080
    18604.640800       0.001080
    18621.967000       0.001136
    18639.325500       0.001197
    18656.719900       0.001197
    18674.146800       0.001136
    18691.609700       0.001197
    18709.108900       0.001135
    18726.567200       0.001074
    18744.135400       0.001074
    18761.733100       0.001073
    18779.370900       0.001011
    18796.967700       0.001010
    18814.675400       0.000948
    18832.416500       0.000885
    18850.123600       0.000947
    18867.931600       0.000946
    18885.709200       0.000946
    18903.595300       0.000945
    18921.515300       0.001008
    18939.397500       0.000944
    18957.310000       0.000943
    18975.339300       0.000942
    18993.327100       0.000942
    19011.432100       0.000942
    19029.492100       0.000941
    19047.590000       0.000940
    19065.802400       0.000939
    19083.969500       0.000938
    19102.178500       0.000938
    19120.422300       0.000937
    19138.781600       0.001002
    19157.095500       0.001067
    19175.451700       0.001066
    19193.846900       0.001066
    19212.277400       0.001131
    19230.739600       0.001060
    19249.248500       0.001060
    19267.789300       0.001060
    19286.369600       0.000997
    19304.985800       0.000997
    19323.641600       0.000996
    19342.333600       0.000928
    19361.069200       0.000995
    19379.837400       0.001062
    19398.645900       0.001130
    19417.494600       0.001129
    19436.380000       0.001197
    19455.226400       0.001197
    19474.189100       0.001128
    19493.192600       0.000990
    19512.233200       0.001058
    19531.234700       0.000989
    19550.353600       0.000919
    19569.433300       0.000988
    19588.630900       0.001060
    19607.870100       0.001057
    19627.066100       0.001127
    19646.384700       0.001197
    19665.664000       0.001197
    19685.062600       0.001269
    19704.418000       0.001269
    19723.897000       0.001269
    19743.336600       0.001200
    19762.810700       0.001120
    19782.413200       0.000978
    19801.972400       0.000978
    19821.574100       0.000905
    19841.297400       0.000977
    19860.977100       0.000976
    19880.699900       0.001049
    19900.465800       0.001049
    19920.354400       0.001048
    19940.203300       0.001123
    19960.091800       0.001197
    19980.024000       0.001121
    19999.996000       0.001045
    20020.008000       0.001044
    20040.068100       0.000891
    20060.164400       0.000814
    20080.305200       0.000813
    20100.494400       0.000811
    20120.716200       0.000887
    20140.986900       0.000886
    20161.298500       0.000884
    20181.655100       0.000882
    20202.052900       0.000881
    20222.406000       0.000881
    20242.894500       0.000879
    20263.424500       0.000877
    20283.996200       0.000875
    20304.527300       0.000955
    20325.186700       0.000873
    20345.801300       0.000954
    20366.640300       0.001034
    20387.343200       0.001115
    20408.184100       0.001115
    20428.975800       0.001197
    20449.901900       0.001113
    20470.787200       0.001113
    20491.803300       0.001028
    20512.862600       0.000943
    20533.885100       0.000858
    20554.946600       0.000942
    20576.148600       0.001028
    20597.301100       0.001026
    20618.595000       0.001111
    20639.834900       0.001109
    20661.127100       0.001020
    20682.561800       0.000934
    20703.942300       0.001020
    20725.375700       0.001021
    20746.853500       0.001019
    20768.466500       0.001107
    20790.038100       0.001110
    20811.658900       0.001107
    20833.324700       0.001020
    20855.035600       0.001013
    20876.791900       0.001013
    20898.602300       0.001013
    20920.458300       0.001013
    20942.452200       0.001011
    20964.404500       0.001103
    20986.407300       0.001103
    21008.359200       0.001008
    21030.458800       0.001008
    21052.605000       0.001010
    21074.793400       0.000908
    21097.037500       0.000811
    21119.328600       0.000808
    21141.671400       0.000710
    21164.061500       0.000708
    21186.404800       0.000705
    21208.898700       0.000803
    21231.431500       0.000800
    21254.025800       0.000898
    21276.568600       0.001099
    21299.259100       0.001096
    21322.002500       0.001096
    21344.694400       0.001094
    21367.539600       0.000991
    21390.333200       0.000786
    21413.276200       0.000783
    21436.277800       0.000679
    21459.222900       0.000782
    21482.327900       0.000885
    21505.376300       0.000883
    21528.478900       0.000987
    21551.738100       0.000985
    21574.949800       0.000878
