7,    channel 7 SRF extracted from FY-3G_MERSI-RM.zip(FY3G_MERSI-RM_SRF_CH07.txt) (received Nov 2023)
Number of data points:
389
Wavenumber (cm-1)   Filter response
      839.279200       0.000000
      839.631300       0.000000
      839.983900       0.000000
      840.336800       0.000000
      840.689800       0.000000
      841.043400       0.000000
      841.397300       0.000000
      841.751500       0.000000
      842.106000       0.000000
      842.460800       0.000000
      842.816100       0.000000
      843.169300       0.000000
      843.525200       0.000000
      843.881400       0.000000
      844.238000       0.000000
      844.594900       0.000000
      844.952000       0.000000
      845.309700       0.000000
      845.665300       0.000000
      846.023500       0.000000
      846.382200       0.000000
      846.741200       0.000000
      847.098100       0.000000
      847.457700       0.000000
      847.817900       0.000000
      848.175700       0.000000
      848.536400       0.000000
      848.897500       0.000000
      849.256500       0.000000
      849.618200       0.000000
      849.977900       0.000000
      850.340300       0.000000
      850.700700       0.000000
      851.063800       0.000000
      851.427300       0.000000
      851.788800       0.000000
      852.150500       0.000000
      852.515100       0.000000
      852.877500       0.000000
      853.242700       0.000000
      853.606000       0.000000
      853.971700       0.000000
      854.335700       0.000000
      854.699900       0.000000
      855.066900       0.000000
      855.431900       0.000000
      855.797100       0.000000
      856.165200       0.000000
      856.531100       0.000000
      856.897500       0.000000
      857.264200       0.000000
      857.633600       0.000579
      858.001100       0.001112
      858.368900       0.001869
      858.736900       0.002649
      859.105500       0.003702
      859.476700       0.004873
      859.845900       0.006124
      860.215400       0.007321
      860.585300       0.008619
      860.955600       0.010009
      861.326200       0.011498
      861.697200       0.012797
      862.068500       0.014109
      862.440300       0.015473
      862.812300       0.016802
      863.184700       0.018098
      863.557600       0.019321
      863.930600       0.020523
      864.304200       0.021784
      864.678100       0.022976
      865.052200       0.024248
      865.426900       0.025537
      865.801900       0.026866
      866.174700       0.028451
      866.550400       0.030198
      866.926500       0.032042
      867.302900       0.034033
      867.679500       0.036019
      868.056800       0.038208
      868.431900       0.040593
      868.809800       0.043018
      869.188000       0.045526
      869.564200       0.048140
      869.943200       0.050919
      870.322500       0.053884
      870.699900       0.057080
      871.079900       0.060542
      871.460400       0.064259
      871.838800       0.068177
      872.220000       0.072573
      872.599200       0.077364
      872.981100       0.082677
      873.363400       0.088526
      873.743700       0.094987
      874.126700       0.101993
      874.507600       0.109743
      874.891500       0.118101
      875.273200       0.127043
      875.657800       0.136375
      876.040400       0.145966
      876.423200       0.155687
      876.808900       0.165593
      877.192500       0.175549
      877.579000       0.185432
      877.963300       0.195206
      878.348000       0.204953
      878.735700       0.214841
      879.121200       0.224905
      879.506900       0.235170
      879.893300       0.245574
      880.282400       0.256208
      880.669500       0.267224
      881.056900       0.278712
      881.444500       0.290458
      881.835300       0.302455
      882.223700       0.314616
      882.612700       0.327094
      883.002000       0.339840
      883.391700       0.352840
      883.781700       0.365917
      884.172200       0.379053
      884.565600       0.392214
      884.956700       0.405597
      885.348300       0.419026
      885.740400       0.432479
      886.132700       0.445767
      886.525400       0.459076
      886.918700       0.472399
      887.312100       0.485690
      887.706100       0.498800
      888.100400       0.511772
      888.495200       0.524639
      888.887700       0.537409
      889.283300       0.550127
      889.679100       0.562734
      890.075300       0.575171
      890.472000       0.587467
      890.869100       0.599591
      891.266500       0.611610
      891.661800       0.623186
      892.060100       0.634337
      892.458700       0.645058
      892.857800       0.655348
      893.257100       0.665168
      893.654300       0.674559
      894.054600       0.683389
      894.455300       0.692064
      894.853700       0.700412
      895.255100       0.708806
      895.656900       0.717060
      896.056500       0.725000
      896.459100       0.732809
      896.862200       0.740353
      897.263000       0.747536
      897.666900       0.754401
      898.068400       0.760997
      898.473100       0.767326
      898.875500       0.773677
      899.281000       0.779373
      899.684200       0.785387
      900.090400       0.791364
      900.494400       0.797493
      900.901500       0.803346
      901.306300       0.809267
      901.714300       0.814817
      902.119900       0.820458
      902.526000       0.825487
      902.935100       0.830654
      903.342000       0.835189
      903.749200       0.839528
      904.159500       0.843204
      904.567700       0.846785
      904.976200       0.849964
      905.387700       0.852686
      905.797100       0.854877
      906.206800       0.856703
      906.619600       0.858176
      907.030100       0.859774
      907.441200       0.860982
      907.852400       0.862258
      908.264300       0.863602
      908.676500       0.864864
      909.091900       0.866117
      909.505000       0.867228
      909.918400       0.868123
      910.332200       0.868797
      910.746600       0.869239
      911.161300       0.869118
      911.576400       0.868733
      911.992000       0.868211
      912.407900       0.867254
      912.824200       0.866223
      913.241000       0.865222
      913.658200       0.864136
      914.076000       0.863512
      914.494100       0.862766
      914.912500       0.862507
      915.331400       0.862744
      915.750800       0.862983
      916.170500       0.863627
      916.590800       0.864606
      917.011400       0.865535
      917.432400       0.866702
      917.851200       0.867679
      918.273100       0.868500
      918.695500       0.869535
      919.118200       0.870556
      919.541400       0.871717
      919.962200       0.872914
      920.386200       0.874275
      920.810600       0.875779
      921.235600       0.877914
      921.658300       0.880111
      922.083900       0.882690
      922.510200       0.885188
      922.934000       0.887820
      923.361000       0.890506
      923.788600       0.892725
      924.213800       0.894448
      924.642100       0.895771
      925.068300       0.896482
      925.497500       0.896825
      925.927200       0.897000
      926.354500       0.896869
      926.785000       0.896426
      927.213300       0.895550
      927.644800       0.895379
      928.073700       0.895318
      928.506200       0.895841
      928.936200       0.896292
      929.369400       0.897143
      929.800200       0.898597
      930.231500       0.900558
      930.666000       0.902741
      931.098300       0.904829
      931.533700       0.906612
      931.966800       0.908477
      932.400300       0.909941
      932.836900       0.911679
      933.271500       0.913304
      933.706300       0.914301
      934.141600       0.915401
      934.580200       0.916377
      935.016500       0.917837
      935.453000       0.919552
      935.890100       0.921231
      936.330400       0.922949
      936.768500       0.924617
      937.206900       0.926411
      937.645700       0.928271
      938.085100       0.929422
      938.527900       0.930411
      938.968100       0.931568
      939.408800       0.932989
      939.849900       0.934830
      940.291600       0.937071
      940.733600       0.939751
      941.176200       0.943104
      941.619200       0.946973
      942.062600       0.950747
      942.506500       0.954740
      942.950700       0.958132
      943.395700       0.961282
      943.840900       0.964184
      944.286700       0.967057
      944.733000       0.969603
      945.179600       0.971877
      945.626700       0.973736
      946.074300       0.976291
      946.522400       0.978952
      946.970800       0.981934
      947.417000       0.984541
      947.866400       0.986954
      948.316400       0.989458
      948.766700       0.991757
      949.217600       0.993798
      949.668900       0.995587
      950.117900       0.996767
      950.570100       0.997866
      951.022800       0.998854
      951.475900       0.999560
      951.926800       1.000000
      952.380800       0.999767
      952.835600       0.999022
      953.287700       0.997661
      953.743400       0.996062
      954.199500       0.994515
      954.653000       0.992533
      955.109900       0.990431
      955.567500       0.988009
      956.022500       0.985528
      956.480900       0.983144
      956.936900       0.980548
      957.396200       0.977354
      957.853300       0.973729
      958.313500       0.969319
      958.771400       0.964586
      959.232600       0.959153
      959.691500       0.953456
      960.153800       0.946816
      960.613600       0.939277
      961.076900       0.931258
      961.537600       0.923150
      962.002000       0.914363
      962.463600       0.905154
      962.925900       0.894755
      963.391700       0.883256
      963.854900       0.871357
      964.321400       0.858905
      964.785700       0.845824
      965.250200       0.831945
      965.718600       0.817231
      966.184000       0.802321
      966.650300       0.787395
      967.116800       0.772058
      967.587100       0.757094
      968.054700       0.741430
      968.522700       0.726096
      968.991400       0.710687
      969.463400       0.695632
      969.933100       0.680947
      970.403100       0.665996
      970.873800       0.650423
      971.344900       0.635415
      971.816400       0.620153
      972.288400       0.604862
      972.764100       0.588874
      973.237300       0.572401
      973.710800       0.555505
      974.184900       0.537857
      974.659400       0.519495
      975.134500       0.500353
      975.610000       0.480571
      976.086200       0.460030
      976.562700       0.439253
      977.040000       0.418344
      977.517600       0.397188
      977.995700       0.375668
      978.474400       0.354044
      978.953600       0.332310
      979.433100       0.311013
      979.913400       0.289403
      980.391000       0.268021
      980.872100       0.246908
      981.353800       0.226199
      981.836000       0.206291
      982.318700       0.187251
      982.802000       0.168965
      983.282800       0.152084
      983.767000       0.136317
      984.251800       0.121900
      984.737200       0.108675
      985.223000       0.096453
      985.706200       0.085234
      986.193100       0.075010
      986.680500       0.065540
      987.168600       0.056960
      987.653700       0.049067
      988.142700       0.041949
      988.632200       0.035592
      989.119000       0.029967
      989.609600       0.024977
      990.097500       0.020589
      990.589200       0.016712
      991.081400       0.013532
      991.570800       0.010936
      992.064100       0.008807
      992.554500       0.007032
      993.048900       0.005563
      993.543700       0.004443
      994.035800       0.003606
      994.531700       0.002972
      995.024800       0.002465
      995.521900       0.002024
      996.016000       0.001674
      996.510800       0.001431
      997.009400       0.001294
      997.505300       0.001179
      998.004900       0.001024
      998.501900       0.000907
      999.002600       0.000000
      999.500500       0.000000
      999.999100       0.000000
     1000.501400       0.000000
     1001.001100       0.000000
     1001.501400       0.000000
     1002.005300       0.000000
     1002.506600       0.000000
