75,   75, MVIRI VIS channel from srf_MET7_2006348_2006349_1801-Release_S10EE_10.dat
Number of data points:
793
Wavenumber (cm-1)   Filter response
     8442.380800       0.000000
     8449.514200       0.000000
     8456.659600       0.000004
     8463.817200       0.000055
     8470.986900       0.000164
     8478.168700       0.000327
     8485.362700       0.000545
     8492.569000       0.000814
     8499.787500       0.001135
     8507.018300       0.001504
     8514.261400       0.001922
     8521.516800       0.002386
     8528.784600       0.002895
     8536.064900       0.003448
     8543.357500       0.004043
     8550.662700       0.004680
     8557.980300       0.005358
     8565.310500       0.006074
     8572.653200       0.006829
     8580.008600       0.007621
     8587.376600       0.008449
     8594.757200       0.009313
     8602.150500       0.010211
     8609.556600       0.011142
     8616.975400       0.012106
     8624.407100       0.013102
     8631.851500       0.014130
     8639.308900       0.015188
     8646.779100       0.016276
     8654.262200       0.017393
     8661.758300       0.018538
     8669.267400       0.019711
     8676.789600       0.020912
     8684.324800       0.022140
     8691.873100       0.023394
     8699.434500       0.024674
     8707.009100       0.025980
     8714.596900       0.027310
     8722.198000       0.028665
     8729.812300       0.030045
     8737.439900       0.031448
     8745.080900       0.032875
     8752.735200       0.034325
     8760.403000       0.035798
     8768.084200       0.037293
     8775.778900       0.038811
     8783.487000       0.040352
     8791.208800       0.041914
     8798.944100       0.043498
     8806.693100       0.045104
     8814.455700       0.046731
     8822.232000       0.048379
     8830.022100       0.050048
     8837.825900       0.051739
     8845.643500       0.053451
     8853.475000       0.055183
     8861.320300       0.056936
     8869.179600       0.058710
     8877.052800       0.060504
     8884.940000       0.062319
     8892.841300       0.064155
     8900.756600       0.066011
     8908.686000       0.067888
     8916.629500       0.069785
     8924.587200       0.071703
     8932.559200       0.073640
     8940.545400       0.075599
     8948.545900       0.077579
     8956.560700       0.079578
     8964.589900       0.081599
     8972.633500       0.083640
     8980.691500       0.085702
     8988.764000       0.087785
     8996.851100       0.089889
     9004.952700       0.092013
     9013.068900       0.094159
     9021.199800       0.096326
     9029.345400       0.098514
     9037.505600       0.100722
     9045.680700       0.102953
     9053.870500       0.105204
     9062.075200       0.107478
     9070.294800       0.109772
     9078.529300       0.112089
     9086.778700       0.114427
     9095.043200       0.116787
     9103.322700       0.119169
     9111.617300       0.121573
     9119.927000       0.123999
     9128.251900       0.126447
     9136.592100       0.128918
     9144.947400       0.131410
     9153.318100       0.133926
     9161.704100       0.136463
     9170.105500       0.139024
     9178.522300       0.141607
     9186.954500       0.144213
     9195.402300       0.146842
     9203.865600       0.149494
     9212.344500       0.152169
     9220.839100       0.154867
     9229.349300       0.157588
     9237.875300       0.160332
     9246.417000       0.163099
     9254.974500       0.165890
     9263.547900       0.168705
     9272.137200       0.171542
     9280.742500       0.174404
     9289.363700       0.177288
     9298.000900       0.180197
     9306.654300       0.183129
     9315.323700       0.186084
     9324.009300       0.189064
     9332.711200       0.192067
     9341.429200       0.195093
     9350.163600       0.198143
     9358.914400       0.201217
     9367.681500       0.204314
     9376.465100       0.207436
     9385.265100       0.210580
     9394.081700       0.213749
     9402.914900       0.216941
     9411.764700       0.220157
     9420.631200       0.223396
     9429.514400       0.226658
     9438.414300       0.229945
     9447.331100       0.233254
     9456.264800       0.236587
     9465.215300       0.239943
     9474.182900       0.243322
     9483.167400       0.246725
     9492.169000       0.250150
     9501.187600       0.253598
     9510.223500       0.257070
     9519.276500       0.260563
     9528.346800       0.264080
     9537.434400       0.267619
     9546.539400       0.271180
     9555.661700       0.274764
     9564.801500       0.278369
     9573.958800       0.281997
     9583.133700       0.285647
     9592.326100       0.289318
     9601.536200       0.293010
     9610.764100       0.296724
     9620.009600       0.300459
     9629.273000       0.304215
     9638.554200       0.307992
     9647.853400       0.311789
     9657.170400       0.315607
     9666.505600       0.319445
     9675.858700       0.323303
     9685.230000       0.327180
     9694.619500       0.331077
     9704.027200       0.334993
     9713.453100       0.338929
     9722.897400       0.342883
     9732.360100       0.346856
     9741.841200       0.350847
     9751.340800       0.354856
     9760.859000       0.358883
     9770.395700       0.362927
     9779.951100       0.366988
     9789.525200       0.371067
     9799.118100       0.375162
     9808.729800       0.379273
     9818.360300       0.383401
     9828.009800       0.387544
     9837.678300       0.391702
     9847.365800       0.395876
     9857.072400       0.400064
     9866.798200       0.404267
     9876.543200       0.408484
     9886.307500       0.412714
     9896.091000       0.416959
     9905.894000       0.421215
     9915.716400       0.425485
     9925.558300       0.429767
     9935.419800       0.434062
     9945.300800       0.438367
     9955.201600       0.442684
     9965.122100       0.447012
     9975.062300       0.451350
     9985.022500       0.455699
     9995.002500       0.460057
    10005.002500       0.464425
    10015.022500       0.468801
    10025.062700       0.473186
    10035.122900       0.477579
    10045.203400       0.481980
    10055.304200       0.486388
    10065.425300       0.490803
    10075.566800       0.495224
    10085.728700       0.499651
    10095.911200       0.504085
    10106.114200       0.508523
    10116.337900       0.512966
    10126.582300       0.517413
    10136.847400       0.521864
    10147.133400       0.526319
    10157.440300       0.530777
    10167.768200       0.535237
    10178.117000       0.539699
    10188.487000       0.544163
    10198.878100       0.548628
    10209.290500       0.553094
    10219.724100       0.557561
    10230.179000       0.562027
    10240.655400       0.566492
    10251.153300       0.570957
    10261.672700       0.575420
    10272.213700       0.579880
    10282.776300       0.584339
    10293.360800       0.588795
    10303.967000       0.593247
    10314.595200       0.597695
    10325.245200       0.602139
    10335.917300       0.606578
    10346.611500       0.611012
    10357.327800       0.615440
    10368.066400       0.619862
    10378.827200       0.624277
    10389.610400       0.628686
    10400.416000       0.633086
    10411.244100       0.637479
    10422.094800       0.641863
    10432.968200       0.646238
    10443.864200       0.650603
    10454.783100       0.654959
    10465.724800       0.659304
    10476.689400       0.663638
    10487.677000       0.667961
    10498.687700       0.672272
    10509.721500       0.676571
    10520.778500       0.680857
    10531.858900       0.685130
    10542.962600       0.689389
    10554.089700       0.693634
    10565.240400       0.697865
    10576.414600       0.702080
    10587.612500       0.706280
    10598.834100       0.710464
    10610.079600       0.714632
    10621.348900       0.718782
    10632.642200       0.722916
    10643.959600       0.727032
    10655.301000       0.731129
    10666.666700       0.735208
    10678.056600       0.739268
    10689.470900       0.743308
    10700.909600       0.747329
    10712.372800       0.751329
    10723.860600       0.755309
    10735.373100       0.759267
    10746.910300       0.763204
    10758.472300       0.767118
    10770.059200       0.771011
    10781.671200       0.774880
    10793.308100       0.778726
    10804.970300       0.782549
    10816.657700       0.786347
    10828.370300       0.790121
    10840.108400       0.793870
    10851.871900       0.797594
    10863.661100       0.801293
    10875.475800       0.804965
    10887.316300       0.808611
    10899.182600       0.812231
    10911.074700       0.815823
    10922.992900       0.819388
    10934.937100       0.822925
    10946.907500       0.826434
    10958.904100       0.829914
    10970.927000       0.833366
    10982.976400       0.836788
    10995.052200       0.840181
    11007.154700       0.843544
    11019.283700       0.846877
    11031.439600       0.850179
    11043.622300       0.853451
    11055.832000       0.856691
    11068.068600       0.859901
    11080.332400       0.863078
    11092.623400       0.866224
    11104.941700       0.869337
    11117.287400       0.872417
    11129.660500       0.875465
    11142.061300       0.878480
    11154.489700       0.881461
    11166.945800       0.884409
    11179.429800       0.887323
    11191.941800       0.890202
    11204.481800       0.893048
    11217.049900       0.895858
    11229.646300       0.898634
    11242.270900       0.901375
    11254.924000       0.904081
    11267.605600       0.906751
    11280.315800       0.909385
    11293.054800       0.911984
    11305.822500       0.914546
    11318.619100       0.917072
    11331.444800       0.919562
    11344.299500       0.922015
    11357.183400       0.924432
    11370.096600       0.926811
    11383.039300       0.929154
    11396.011400       0.931459
    11409.013100       0.933726
    11422.044500       0.935957
    11435.105800       0.938149
    11448.196900       0.940304
    11461.318100       0.942421
    11474.469300       0.944500
    11487.650800       0.946541
    11500.862600       0.948543
    11514.104800       0.950508
    11527.377500       0.952434
    11540.680900       0.954321
    11554.015000       0.956170
    11567.380000       0.957981
    11580.775900       0.959753
    11594.202900       0.961486
    11607.661100       0.963181
    11621.150500       0.964836
    11634.671300       0.966453
    11648.223600       0.968032
    11661.807600       0.969571
    11675.423200       0.971072
    11689.070700       0.972533
    11702.750100       0.973956
    11716.461600       0.975341
    11730.205300       0.976686
    11743.981200       0.977993
    11757.789500       0.979261
    11771.630400       0.980490
    11785.503800       0.981680
    11799.410000       0.982832
    11813.349100       0.983946
    11827.321100       0.985021
    11841.326200       0.986058
    11855.364600       0.987056
    11869.436200       0.988016
    11883.541300       0.988938
    11897.680000       0.989822
    11911.852300       0.990668
    11926.058400       0.991477
    11940.298500       0.992247
    11954.572600       0.992980
    11968.880900       0.993676
    11983.223500       0.994334
    11997.600500       0.994955
    12012.012000       0.995539
    12026.458200       0.996087
    12040.939200       0.996597
    12055.455100       0.997071
    12070.006000       0.997509
    12084.592100       0.997911
    12099.213600       0.998276
    12113.870400       0.998606
    12128.562800       0.998900
    12143.290800       0.999159
    12158.054700       0.999383
    12172.854500       0.999572
    12187.690400       0.999726
    12202.562500       0.999846
    12217.471000       0.999931
    12232.415900       0.999982
    12247.397400       1.000000
    12262.415700       0.999984
    12277.470800       0.999935
    12292.563000       0.999853
    12307.692300       0.999738
    12322.858900       0.999591
    12338.062900       0.999411
    12353.304500       0.999200
    12368.583800       0.998957
    12383.900900       0.998683
    12399.256000       0.998377
    12414.649300       0.998042
    12430.080800       0.997675
    12445.550700       0.997279
    12461.059200       0.996853
    12476.606400       0.996397
    12492.192400       0.995913
    12507.817400       0.995399
    12523.481500       0.994857
    12539.185000       0.994287
    12554.927800       0.993690
    12570.710200       0.993065
    12586.532400       0.992413
    12602.394500       0.991734
    12618.296500       0.991029
    12634.238800       0.990298
    12650.221400       0.989542
    12666.244500       0.988760
    12682.308200       0.987953
    12698.412700       0.987122
    12714.558200       0.986267
    12730.744700       0.985389
    12746.972600       0.984487
    12763.241900       0.983562
    12779.552700       0.982615
    12795.905300       0.981645
    12812.299800       0.980654
    12828.736400       0.979642
    12845.215200       0.978609
    12861.736300       0.977556
    12878.300100       0.976482
    12894.906500       0.975389
    12911.555800       0.974277
    12928.248200       0.973146
    12944.983800       0.971996
    12961.762800       0.970829
    12978.585300       0.969645
    12995.451600       0.968443
    13012.361700       0.967225
    13029.316000       0.965990
    13046.314400       0.964740
    13063.357300       0.963475
    13080.444700       0.962194
    13097.576900       0.960900
    13114.754100       0.959591
    13131.976400       0.958269
    13149.243900       0.956934
    13166.556900       0.955586
    13183.915600       0.954226
    13201.320100       0.952855
    13218.770700       0.951472
    13236.267400       0.950078
    13253.810500       0.948674
    13271.400100       0.947260
    13289.036500       0.945837
    13306.719900       0.944405
    13324.450400       0.942964
    13342.228200       0.941515
    13360.053400       0.940058
    13377.926400       0.938594
    13395.847300       0.937123
    13413.816200       0.935647
    13431.833400       0.934164
    13449.899100       0.932676
    13468.013500       0.931183
    13486.176700       0.929685
    13504.388900       0.928183
    13522.650400       0.926678
    13540.961400       0.925170
    13559.322000       0.923659
    13577.732500       0.922145
    13596.193100       0.920630
    13614.703900       0.919113
    13633.265200       0.917596
    13651.877100       0.916078
    13670.540000       0.914560
    13689.253900       0.913042
    13708.019200       0.911525
    13726.836000       0.910009
    13745.704500       0.908495
    13764.624900       0.906983
    13783.597500       0.905473
    13802.622500       0.903966
    13821.700100       0.902463
    13840.830400       0.900963
    13860.013900       0.899467
    13879.250500       0.897976
    13898.540700       0.896489
    13917.884500       0.895009
    13937.282200       0.893533
    13956.734100       0.892064
    13976.240400       0.890601
    13995.801300       0.889146
    14015.417000       0.887697
    14035.087700       0.886256
    14054.813800       0.884823
    14074.595400       0.883398
    14094.432700       0.881983
    14114.326000       0.880576
    14134.275600       0.879178
    14154.281700       0.877791
    14174.344400       0.876413
    14194.464200       0.875046
    14214.641100       0.873690
    14234.875400       0.872345
    14255.167500       0.871012
    14275.517500       0.869690
    14295.925700       0.868380
    14316.392300       0.867083
    14336.917600       0.865798
    14357.501800       0.864526
    14378.145200       0.863268
    14398.848100       0.862023
    14419.610700       0.860792
    14440.433200       0.859576
    14461.316000       0.858373
    14482.259200       0.857185
    14503.263200       0.856013
    14524.328200       0.854855
    14545.454500       0.853713
    14566.642400       0.852586
    14587.892000       0.851475
    14609.203800       0.850381
    14630.577900       0.849302
    14652.014700       0.848240
    14673.514300       0.847195
    14695.077100       0.846167
    14716.703500       0.845156
    14738.393500       0.844162
    14760.147600       0.843186
    14781.966000       0.842227
    14803.849000       0.841286
    14825.796900       0.840363
    14847.809900       0.839458
    14869.888500       0.838571
    14892.032800       0.837702
    14914.243100       0.836852
    14936.519800       0.836021
    14958.863100       0.835208
    14981.273400       0.834414
    15003.750900       0.833639
    15026.296000       0.832883
    15048.909000       0.832145
    15071.590100       0.831427
    15094.339600       0.830728
    15117.158000       0.830048
    15140.045400       0.829388
    15163.002300       0.828746
    15186.028900       0.828124
    15209.125500       0.827521
    15232.292500       0.826938
    15255.530100       0.826373
    15278.838800       0.825828
    15302.218800       0.825302
    15325.670500       0.824796
    15349.194200       0.824308
    15372.790200       0.823840
    15396.458800       0.823390
    15420.200500       0.822960
    15444.015400       0.822548
    15467.904100       0.822156
    15491.866800       0.821782
    15515.903800       0.821427
    15540.015500       0.821090
    15564.202300       0.820772
    15588.464500       0.820471
    15612.802500       0.820189
    15637.216600       0.819925
    15661.707100       0.819679
    15686.274500       0.819451
    15710.919100       0.819239
    15735.641200       0.819046
    15760.441300       0.818869
    15785.319700       0.818709
    15810.276700       0.818566
    15835.312700       0.818439
    15860.428200       0.818328
    15885.623500       0.818234
    15910.899000       0.818155
    15936.255000       0.818091
    15961.691900       0.818043
    15987.210200       0.818009
    16012.810200       0.817990
    16038.492400       0.817986
    16064.257000       0.817995
    16090.104600       0.818018
    16116.035500       0.818055
    16142.050000       0.818104
    16168.148700       0.818166
    16194.332000       0.818240
    16220.600200       0.818327
    16246.953700       0.818424
    16273.393000       0.818533
    16299.918500       0.818653
    16326.530600       0.818783
    16353.229800       0.818923
    16380.016400       0.819073
    16406.890900       0.819232
    16433.853700       0.819399
    16460.905300       0.819575
    16488.046200       0.819758
    16515.276600       0.819949
    16542.597200       0.820146
    16570.008300       0.820350
    16597.510400       0.820560
    16625.103900       0.820775
    16652.789300       0.820995
    16680.567100       0.821219
    16708.437800       0.821447
    16736.401700       0.821679
    16764.459300       0.821913
    16792.611300       0.822149
    16820.857900       0.822387
    16849.199700       0.822626
    16877.637100       0.822865
    16906.170800       0.823105
    16934.801000       0.823343
    16963.528400       0.823581
    16992.353400       0.823816
    17021.276600       0.824049
    17050.298400       0.824279
    17079.419300       0.824505
    17108.639900       0.824727
    17137.960600       0.824944
    17167.382000       0.825155
    17196.904600       0.825360
    17226.528900       0.825557
    17256.255400       0.825748
    17286.084700       0.825929
    17316.017300       0.826102
    17346.053800       0.826265
    17376.194600       0.826418
    17406.440400       0.826560
    17436.791600       0.826690
    17467.248900       0.826807
    17497.812800       0.826911
    17528.483800       0.827002
    17559.262500       0.827077
    17590.149500       0.827138
    17621.145400       0.827182
    17652.250700       0.827209
    17683.466000       0.827219
    17714.791900       0.827210
    17746.228900       0.827183
    17777.777800       0.827135
    17809.439000       0.827067
    17841.213200       0.826978
    17873.101000       0.826866
    17905.103000       0.826732
    17937.219700       0.826573
    17969.451900       0.826391
    18001.800200       0.826183
    18034.265100       0.825949
    18066.847300       0.825689
    18099.547500       0.825401
    18132.366300       0.825084
    18165.304300       0.824738
    18198.362100       0.824363
    18231.540600       0.823957
    18264.840200       0.823519
    18298.261700       0.823049
    18331.805700       0.822546
    18365.472900       0.822009
    18399.264000       0.821437
    18433.179700       0.820830
    18467.220700       0.820186
    18501.387600       0.819506
    18535.681200       0.818788
    18570.102100       0.818031
    18604.651200       0.817235
    18639.329000       0.816398
    18674.136300       0.815521
    18709.073900       0.814602
    18744.142500       0.813640
    18779.342700       0.812636
    18814.675400       0.811587
    18850.141400       0.810493
    18885.741300       0.809354
    18921.475900       0.808168
    18957.346000       0.806935
    18993.352300       0.805655
    19029.495700       0.804326
    19065.776900       0.802947
    19102.196800       0.801519
    19138.756000       0.800039
    19175.455400       0.798509
    19212.295900       0.796926
    19249.278200       0.795290
    19286.403100       0.793601
    19323.671500       0.791857
    19361.084200       0.790058
    19398.642100       0.788204
    19436.346000       0.786293
    19474.196700       0.784325
    19512.195100       0.782300
    19550.342100       0.780217
    19588.638600       0.778074
    19627.085400       0.775873
    19665.683400       0.773611
    19704.433500       0.771288
    19743.336600       0.768904
    19782.393700       0.766458
    19821.605600       0.763950
    19860.973200       0.761379
    19900.497500       0.758744
    19940.179500       0.756046
    19980.020000       0.753283
    20020.020000       0.750455
    20060.180500       0.747561
    20100.502500       0.744602
    20140.986900       0.741576
    20181.634700       0.738483
    20222.446900       0.735323
    20263.424500       0.732096
    20304.568500       0.728801
    20345.880000       0.725437
    20387.359800       0.722004
    20429.009200       0.718503
    20470.829100       0.714932
    20512.820500       0.711292
    20554.984600       0.707582
    20597.322300       0.703801
    20639.834900       0.699951
    20682.523300       0.696030
    20725.388600       0.692038
    20768.432000       0.687975
    20811.654500       0.683841
    20855.057400       0.679637
    20898.641600       0.675361
    20942.408400       0.671013
    20986.358900       0.666595
    21030.494200       0.662105
    21074.815600       0.657544
    21119.324200       0.652912
    21164.021200       0.648208
    21208.907700       0.643433
    21253.985100       0.638588
    21299.254500       0.633671
    21344.717200       0.628684
    21390.374300       0.623627
    21436.227200       0.618499
    21482.277100       0.613301
    21528.525300       0.608034
    21574.973000       0.602697
    21621.621600       0.597292
    21668.472400       0.591818
    21715.526600       0.586276
    21762.785600       0.580666
    21810.250800       0.574989
    21857.923500       0.569245
    21905.805000       0.563435
    21953.896800       0.557560
    22002.200200       0.551620
    22050.716600       0.545616
    22099.447500       0.539548
    22148.394200       0.533418
    22197.558300       0.527226
    22246.941000       0.520972
    22296.544000       0.514659
    22346.368700       0.508286
    22396.416600       0.501855
    22446.689100       0.495366
    22497.187900       0.488821
    22547.914300       0.482221
    22598.870100       0.475567
    22650.056600       0.468859
    22701.475600       0.462100
    22753.128600       0.455291
    22805.017100       0.448432
    22857.142900       0.441526
    22909.507400       0.434573
    22962.112500       0.427575
    23014.959700       0.420533
    23068.050700       0.413450
    23121.387300       0.406326
    23174.971000       0.399163
    23228.803700       0.391963
    23282.887100       0.384729
    23337.222900       0.377460
    23391.812900       0.370160
    23446.658900       0.362830
    23501.762600       0.355472
    23557.126000       0.348088
    23612.750900       0.340681
    23668.639100       0.333253
    23724.792400       0.325804
    23781.212800       0.318339
    23837.902300       0.310858
    23894.862600       0.303366
    23952.095800       0.295863
    24009.603800       0.288352
    24067.388700       0.280837
    24125.452400       0.273319
    24183.796900       0.265801
    24242.424200       0.258286
    24301.336600       0.250777
    24360.535900       0.243276
    24420.024400       0.235787
    24479.804200       0.228312
    24539.877300       0.220855
    24600.246000       0.213418
    24660.912500       0.206006
    24721.878900       0.198620
    24783.147500       0.191265
    24844.720500       0.183944
    24906.600200       0.176660
    24968.789000       0.169417
    25031.289100       0.162218
    25094.102900       0.155068
    25157.232700       0.147969
    25220.681000       0.140926
    25284.450100       0.133943
    25348.542500       0.127024
    25412.960600       0.120172
    25477.707000       0.113393
