9,   9, MVIRI VIS channel from srf_MET4_1990213_1990214_1801-Release_S10EL_10.dat
Number of data points:
752
Wavenumber (cm-1)   Filter response
     8745.080900       0.000000
     8752.735200       0.000000
     8760.403000       0.000001
     8768.084200       0.000058
     8775.778900       0.000197
     8783.487000       0.000416
     8791.208800       0.000712
     8798.944100       0.001082
     8806.693100       0.001525
     8814.455700       0.002039
     8822.232000       0.002621
     8830.022100       0.003269
     8837.825900       0.003981
     8845.643500       0.004756
     8853.475000       0.005591
     8861.320300       0.006485
     8869.179600       0.007436
     8877.052800       0.008442
     8884.940000       0.009501
     8892.841300       0.010612
     8900.756600       0.011774
     8908.686000       0.012984
     8916.629500       0.014242
     8924.587200       0.015546
     8932.559200       0.016895
     8940.545400       0.018287
     8948.545900       0.019721
     8956.560700       0.021195
     8964.589900       0.022710
     8972.633500       0.024263
     8980.691500       0.025854
     8988.764000       0.027481
     8996.851100       0.029143
     9004.952700       0.030840
     9013.068900       0.032570
     9021.199800       0.034333
     9029.345400       0.036128
     9037.505600       0.037953
     9045.680700       0.039808
     9053.870500       0.041693
     9062.075200       0.043606
     9070.294800       0.045547
     9078.529300       0.047516
     9086.778700       0.049510
     9095.043200       0.051531
     9103.322700       0.053577
     9111.617300       0.055648
     9119.927000       0.057743
     9128.251900       0.059861
     9136.592100       0.062003
     9144.947400       0.064168
     9153.318100       0.066355
     9161.704100       0.068563
     9170.105500       0.070794
     9178.522300       0.073045
     9186.954500       0.075317
     9195.402300       0.077609
     9203.865600       0.079922
     9212.344500       0.082254
     9220.839100       0.084606
     9229.349300       0.086976
     9237.875300       0.089366
     9246.417000       0.091775
     9254.974500       0.094202
     9263.547900       0.096647
     9272.137200       0.099111
     9280.742500       0.101593
     9289.363700       0.104092
     9298.000900       0.106609
     9306.654300       0.109143
     9315.323700       0.111695
     9324.009300       0.114264
     9332.711200       0.116850
     9341.429200       0.119453
     9350.163600       0.122073
     9358.914400       0.124710
     9367.681500       0.127364
     9376.465100       0.130035
     9385.265100       0.132722
     9394.081700       0.135426
     9402.914900       0.138147
     9411.764700       0.140884
     9420.631200       0.143638
     9429.514400       0.146408
     9438.414300       0.149195
     9447.331100       0.151998
     9456.264800       0.154818
     9465.215300       0.157655
     9474.182900       0.160507
     9483.167400       0.163377
     9492.169000       0.166263
     9501.187600       0.169165
     9510.223500       0.172084
     9519.276500       0.175020
     9528.346800       0.177972
     9537.434400       0.180941
     9546.539400       0.183926
     9555.661700       0.186929
     9564.801500       0.189947
     9573.958800       0.192983
     9583.133700       0.196035
     9592.326100       0.199104
     9601.536200       0.202190
     9610.764100       0.205293
     9620.009600       0.208412
     9629.273000       0.211549
     9638.554200       0.214702
     9647.853400       0.217872
     9657.170400       0.221059
     9666.505600       0.224263
     9675.858700       0.227484
     9685.230000       0.230722
     9694.619500       0.233977
     9704.027200       0.237249
     9713.453100       0.240538
     9722.897400       0.243844
     9732.360100       0.247167
     9741.841200       0.250507
     9751.340800       0.253863
     9760.859000       0.257237
     9770.395700       0.260629
     9779.951100       0.264036
     9789.525200       0.267461
     9799.118100       0.270903
     9808.729800       0.274361
     9818.360300       0.277837
     9828.009800       0.281329
     9837.678300       0.284838
     9847.365800       0.288364
     9857.072400       0.291906
     9866.798200       0.295465
     9876.543200       0.299040
     9886.307500       0.302632
     9896.091000       0.306241
     9905.894000       0.309865
     9915.716400       0.313506
     9925.558300       0.317163
     9935.419800       0.320837
     9945.300800       0.324526
     9955.201600       0.328231
     9965.122100       0.331952
     9975.062300       0.335689
     9985.022500       0.339441
     9995.002500       0.343209
    10005.002500       0.346992
    10015.022500       0.350790
    10025.062700       0.354603
    10035.122900       0.358431
    10045.203400       0.362274
    10055.304200       0.366131
    10065.425300       0.370003
    10075.566800       0.373889
    10085.728700       0.377789
    10095.911200       0.381704
    10106.114200       0.385631
    10116.337900       0.389573
    10126.582300       0.393527
    10136.847400       0.397495
    10147.133400       0.401476
    10157.440300       0.405470
    10167.768200       0.409476
    10178.117000       0.413495
    10188.487000       0.417525
    10198.878100       0.421568
    10209.290500       0.425622
    10219.724100       0.429687
    10230.179000       0.433764
    10240.655400       0.437851
    10251.153300       0.441949
    10261.672700       0.446058
    10272.213700       0.450176
    10282.776300       0.454304
    10293.360800       0.458442
    10303.967000       0.462590
    10314.595200       0.466746
    10325.245200       0.470910
    10335.917300       0.475084
    10346.611500       0.479265
    10357.327800       0.483454
    10368.066400       0.487650
    10378.827200       0.491854
    10389.610400       0.496065
    10400.416000       0.500282
    10411.244100       0.504505
    10422.094800       0.508734
    10432.968200       0.512968
    10443.864200       0.517208
    10454.783100       0.521453
    10465.724800       0.525702
    10476.689400       0.529955
    10487.677000       0.534212
    10498.687700       0.538472
    10509.721500       0.542736
    10520.778500       0.547002
    10531.858900       0.551270
    10542.962600       0.555541
    10554.089700       0.559812
    10565.240400       0.564085
    10576.414600       0.568359
    10587.612500       0.572634
    10598.834100       0.576908
    10610.079600       0.581182
    10621.348900       0.585455
    10632.642200       0.589727
    10643.959600       0.593998
    10655.301000       0.598267
    10666.666700       0.602533
    10678.056600       0.606797
    10689.470900       0.611057
    10700.909600       0.615314
    10712.372800       0.619567
    10723.860600       0.623815
    10735.373100       0.628059
    10746.910300       0.632297
    10758.472300       0.636530
    10770.059200       0.640756
    10781.671200       0.644977
    10793.308100       0.649190
    10804.970300       0.653396
    10816.657700       0.657594
    10828.370300       0.661784
    10840.108400       0.665965
    10851.871900       0.670138
    10863.661100       0.674301
    10875.475800       0.678454
    10887.316300       0.682596
    10899.182600       0.686728
    10911.074700       0.690849
    10922.992900       0.694959
    10934.937100       0.699056
    10946.907500       0.703141
    10958.904100       0.707212
    10970.927000       0.711271
    10982.976400       0.715316
    10995.052200       0.719347
    11007.154700       0.723363
    11019.283700       0.727364
    11031.439600       0.731350
    11043.622300       0.735319
    11055.832000       0.739273
    11068.068600       0.743210
    11080.332400       0.747130
    11092.623400       0.751032
    11104.941700       0.754916
    11117.287400       0.758782
    11129.660500       0.762629
    11142.061300       0.766457
    11154.489700       0.770265
    11166.945800       0.774053
    11179.429800       0.777821
    11191.941800       0.781569
    11204.481800       0.785294
    11217.049900       0.788999
    11229.646300       0.792681
    11242.270900       0.796341
    11254.924000       0.799978
    11267.605600       0.803591
    11280.315800       0.807182
    11293.054800       0.810748
    11305.822500       0.814290
    11318.619100       0.817807
    11331.444800       0.821299
    11344.299500       0.824766
    11357.183400       0.828207
    11370.096600       0.831622
    11383.039300       0.835010
    11396.011400       0.838371
    11409.013100       0.841705
    11422.044500       0.845011
    11435.105800       0.848290
    11448.196900       0.851540
    11461.318100       0.854761
    11474.469300       0.857954
    11487.650800       0.861117
    11500.862600       0.864251
    11514.104800       0.867354
    11527.377500       0.870427
    11540.680900       0.873470
    11554.015000       0.876482
    11567.380000       0.879463
    11580.775900       0.882412
    11594.202900       0.885329
    11607.661100       0.888215
    11621.150500       0.891068
    11634.671300       0.893888
    11648.223600       0.896676
    11661.807600       0.899430
    11675.423200       0.902151
    11689.070700       0.904838
    11702.750100       0.907491
    11716.461600       0.910110
    11730.205300       0.912694
    11743.981200       0.915244
    11757.789500       0.917759
    11771.630400       0.920239
    11785.503800       0.922683
    11799.410000       0.925092
    11813.349100       0.927465
    11827.321100       0.929802
    11841.326200       0.932103
    11855.364600       0.934367
    11869.436200       0.936595
    11883.541300       0.938786
    11897.680000       0.940940
    11911.852300       0.943057
    11926.058400       0.945136
    11940.298500       0.947179
    11954.572600       0.949183
    11968.880900       0.951150
    11983.223500       0.953079
    11997.600500       0.954970
    12012.012000       0.956823
    12026.458200       0.958638
    12040.939200       0.960414
    12055.455100       0.962152
    12070.006000       0.963851
    12084.592100       0.965511
    12099.213600       0.967133
    12113.870400       0.968716
    12128.562800       0.970260
    12143.290800       0.971765
    12158.054700       0.973230
    12172.854500       0.974657
    12187.690400       0.976045
    12202.562500       0.977393
    12217.471000       0.978702
    12232.415900       0.979972
    12247.397400       0.981202
    12262.415700       0.982393
    12277.470800       0.983545
    12292.563000       0.984657
    12307.692300       0.985730
    12322.858900       0.986764
    12338.062900       0.987758
    12353.304500       0.988713
    12368.583800       0.989629
    12383.900900       0.990505
    12399.256000       0.991342
    12414.649300       0.992140
    12430.080800       0.992899
    12445.550700       0.993619
    12461.059200       0.994300
    12476.606400       0.994942
    12492.192400       0.995545
    12507.817400       0.996109
    12523.481500       0.996635
    12539.185000       0.997122
    12554.927800       0.997570
    12570.710200       0.997980
    12586.532400       0.998352
    12602.394500       0.998686
    12618.296500       0.998982
    12634.238800       0.999240
    12650.221400       0.999460
    12666.244500       0.999642
    12682.308200       0.999787
    12698.412700       0.999895
    12714.558200       0.999966
    12730.744700       1.000000
    12746.972600       0.999997
    12763.241900       0.999958
    12779.552700       0.999882
    12795.905300       0.999770
    12812.299800       0.999622
    12828.736400       0.999438
    12845.215200       0.999219
    12861.736300       0.998964
    12878.300100       0.998675
    12894.906500       0.998350
    12911.555800       0.997991
    12928.248200       0.997597
    12944.983800       0.997169
    12961.762800       0.996707
    12978.585300       0.996212
    12995.451600       0.995683
    13012.361700       0.995121
    13029.316000       0.994527
    13046.314400       0.993899
    13063.357300       0.993240
    13080.444700       0.992548
    13097.576900       0.991825
    13114.754100       0.991071
    13131.976400       0.990285
    13149.243900       0.989469
    13166.556900       0.988622
    13183.915600       0.987745
    13201.320100       0.986838
    13218.770700       0.985901
    13236.267400       0.984936
    13253.810500       0.983942
    13271.400100       0.982919
    13289.036500       0.981868
    13306.719900       0.980789
    13324.450400       0.979683
    13342.228200       0.978550
    13360.053400       0.977390
    13377.926400       0.976204
    13395.847300       0.974992
    13413.816200       0.973754
    13431.833400       0.972491
    13449.899100       0.971203
    13468.013500       0.969891
    13486.176700       0.968554
    13504.388900       0.967194
    13522.650400       0.965811
    13540.961400       0.964405
    13559.322000       0.962976
    13577.732500       0.961525
    13596.193100       0.960053
    13614.703900       0.958559
    13633.265200       0.957045
    13651.877100       0.955510
    13670.540000       0.953955
    13689.253900       0.952380
    13708.019200       0.950787
    13726.836000       0.949174
    13745.704500       0.947544
    13764.624900       0.945895
    13783.597500       0.944229
    13802.622500       0.942546
    13821.700100       0.940846
    13840.830400       0.939131
    13860.013900       0.937399
    13879.250500       0.935652
    13898.540700       0.933891
    13917.884500       0.932115
    13937.282200       0.930325
    13956.734100       0.928521
    13976.240400       0.926705
    13995.801300       0.924876
    14015.417000       0.923035
    14035.087700       0.921182
    14054.813800       0.919318
    14074.595400       0.917443
    14094.432700       0.915558
    14114.326000       0.913663
    14134.275600       0.911758
    14154.281700       0.909844
    14174.344400       0.907922
    14194.464200       0.905992
    14214.641100       0.904054
    14234.875400       0.902109
    14255.167500       0.900157
    14275.517500       0.898199
    14295.925700       0.896235
    14316.392300       0.894266
    14336.917600       0.892291
    14357.501800       0.890313
    14378.145200       0.888330
    14398.848100       0.886343
    14419.610700       0.884354
    14440.433200       0.882361
    14461.316000       0.880367
    14482.259200       0.878370
    14503.263200       0.876372
    14524.328200       0.874373
    14545.454500       0.872374
    14566.642400       0.870374
    14587.892000       0.868375
    14609.203800       0.866377
    14630.577900       0.864379
    14652.014700       0.862384
    14673.514300       0.860390
    14695.077100       0.858398
    14716.703500       0.856410
    14738.393500       0.854425
    14760.147600       0.852443
    14781.966000       0.850465
    14803.849000       0.848492
    14825.796900       0.846524
    14847.809900       0.844561
    14869.888500       0.842604
    14892.032800       0.840652
    14914.243100       0.838707
    14936.519800       0.836769
    14958.863100       0.834838
    14981.273400       0.832914
    15003.750900       0.830999
    15026.296000       0.829091
    15048.909000       0.827193
    15071.590100       0.825303
    15094.339600       0.823422
    15117.158000       0.821551
    15140.045400       0.819691
    15163.002300       0.817840
    15186.028900       0.816000
    15209.125500       0.814172
    15232.292500       0.812354
    15255.530100       0.810548
    15278.838800       0.808754
    15302.218800       0.806972
    15325.670500       0.805203
    15349.194200       0.803446
    15372.790200       0.801703
    15396.458800       0.799973
    15420.200500       0.798257
    15444.015400       0.796554
    15467.904100       0.794866
    15491.866800       0.793192
    15515.903800       0.791533
    15540.015500       0.789889
    15564.202300       0.788260
    15588.464500       0.786646
    15612.802500       0.785048
    15637.216600       0.783465
    15661.707100       0.781899
    15686.274500       0.780349
    15710.919100       0.778815
    15735.641200       0.777298
    15760.441300       0.775798
    15785.319700       0.774315
    15810.276700       0.772848
    15835.312700       0.771399
    15860.428200       0.769968
    15885.623500       0.768554
    15910.899000       0.767157
    15936.255000       0.765779
    15961.691900       0.764418
    15987.210200       0.763076
    16012.810200       0.761751
    16038.492400       0.760445
    16064.257000       0.759157
    16090.104600       0.757888
    16116.035500       0.756637
    16142.050000       0.755404
    16168.148700       0.754191
    16194.332000       0.752995
    16220.600200       0.751819
    16246.953700       0.750661
    16273.393000       0.749521
    16299.918500       0.748401
    16326.530600       0.747299
    16353.229800       0.746216
    16380.016400       0.745151
    16406.890900       0.744105
    16433.853700       0.743078
    16460.905300       0.742069
    16488.046200       0.741079
    16515.276600       0.740107
    16542.597200       0.739154
    16570.008300       0.738219
    16597.510400       0.737302
    16625.103900       0.736403
    16652.789300       0.735522
    16680.567100       0.734659
    16708.437800       0.733813
    16736.401700       0.732986
    16764.459300       0.732175
    16792.611300       0.731383
    16820.857900       0.730607
    16849.199700       0.729848
    16877.637100       0.729106
    16906.170800       0.728380
    16934.801000       0.727671
    16963.528400       0.726978
    16992.353400       0.726301
    17021.276600       0.725639
    17050.298400       0.724993
    17079.419300       0.724362
    17108.639900       0.723746
    17137.960600       0.723145
    17167.382000       0.722558
    17196.904600       0.721985
    17226.528900       0.721426
    17256.255400       0.720881
    17286.084700       0.720349
    17316.017300       0.719829
    17346.053800       0.719322
    17376.194600       0.718827
    17406.440400       0.718344
    17436.791600       0.717872
    17467.248900       0.717412
    17497.812800       0.716962
    17528.483800       0.716522
    17559.262500       0.716092
    17590.149500       0.715672
    17621.145400       0.715260
    17652.250700       0.714858
    17683.466000       0.714463
    17714.791900       0.714076
    17746.228900       0.713696
    17777.777800       0.713324
    17809.439000       0.712957
    17841.213200       0.712596
    17873.101000       0.712241
    17905.103000       0.711890
    17937.219700       0.711544
    17969.451900       0.711202
    18001.800200       0.710862
    18034.265100       0.710526
    18066.847300       0.710192
    18099.547500       0.709859
    18132.366300       0.709528
    18165.304300       0.709197
    18198.362100       0.708866
    18231.540600       0.708534
    18264.840200       0.708201
    18298.261700       0.707866
    18331.805700       0.707529
    18365.472900       0.707189
    18399.264000       0.706845
    18433.179700       0.706497
    18467.220700       0.706144
    18501.387600       0.705785
    18535.681200       0.705421
    18570.102100       0.705049
    18604.651200       0.704670
    18639.329000       0.704282
    18674.136300       0.703886
    18709.073900       0.703480
    18744.142500       0.703064
    18779.342700       0.702637
    18814.675400       0.702199
    18850.141400       0.701748
    18885.741300       0.701284
    18921.475900       0.700807
    18957.346000       0.700315
    18993.352300       0.699807
    19029.495700       0.699285
    19065.776900       0.698745
    19102.196800       0.698188
    19138.756000       0.697613
    19175.455400       0.697019
    19212.295900       0.696406
    19249.278200       0.695772
    19286.403100       0.695118
    19323.671500       0.694441
    19361.084200       0.693742
    19398.642100       0.693020
    19436.346000       0.692274
    19474.196700       0.691503
    19512.195100       0.690706
    19550.342100       0.689883
    19588.638600       0.689033
    19627.085400       0.688155
    19665.683400       0.687249
    19704.433500       0.686313
    19743.336600       0.685347
    19782.393700       0.684350
    19821.605600       0.683321
    19860.973200       0.682260
    19900.497500       0.681166
    19940.179500       0.680037
    19980.020000       0.678875
    20020.020000       0.677676
    20060.180500       0.676442
    20100.502500       0.675170
    20140.986900       0.673861
    20181.634700       0.672513
    20222.446900       0.671126
    20263.424500       0.669699
    20304.568500       0.668232
    20345.880000       0.666723
    20387.359800       0.665172
    20429.009200       0.663578
    20470.829100       0.661941
    20512.820500       0.660259
    20554.984600       0.658533
    20597.322300       0.656761
    20639.834900       0.654942
    20682.523300       0.653077
    20725.388600       0.651164
    20768.432000       0.649202
    20811.654500       0.647192
    20855.057400       0.645132
    20898.641600       0.643022
    20942.408400       0.640861
    20986.358900       0.638648
    21030.494200       0.636383
    21074.815600       0.634066
    21119.324200       0.631696
    21164.021200       0.629271
    21208.907700       0.626793
    21253.985100       0.624259
    21299.254500       0.621670
    21344.717200       0.619025
    21390.374300       0.616324
    21436.227200       0.613565
    21482.277100       0.610750
    21528.525300       0.607876
    21574.973000       0.604944
    21621.621600       0.601954
    21668.472400       0.598904
    21715.526600       0.595795
    21762.785600       0.592627
    21810.250800       0.589397
    21857.923500       0.586108
    21905.805000       0.582758
    21953.896800       0.579346
    22002.200200       0.575874
    22050.716600       0.572339
    22099.447500       0.568743
    22148.394200       0.565085
    22197.558300       0.561365
    22246.941000       0.557582
    22296.544000       0.553737
    22346.368700       0.549829
    22396.416600       0.545859
    22446.689100       0.541826
    22497.187900       0.537731
    22547.914300       0.533573
    22598.870100       0.529352
    22650.056600       0.525069
    22701.475600       0.520723
    22753.128600       0.516315
    22805.017100       0.511844
    22857.142900       0.507312
    22909.507400       0.502718
    22962.112500       0.498062
    23014.959700       0.493346
    23068.050700       0.488568
    23121.387300       0.483730
    23174.971000       0.478831
    23228.803700       0.473873
    23282.887100       0.468856
    23337.222900       0.463780
    23391.812900       0.458645
    23446.658900       0.453453
    23501.762600       0.448205
    23557.126000       0.442899
    23612.750900       0.437539
    23668.639100       0.432123
    23724.792400       0.426653
    23781.212800       0.421130
    23837.902300       0.415555
    23894.862600       0.409928
    23952.095800       0.404251
    24009.603800       0.398524
    24067.388700       0.392749
    24125.452400       0.386927
    24183.796900       0.381058
    24242.424200       0.375145
    24301.336600       0.369188
    24360.535900       0.363189
    24420.024400       0.357149
    24479.804200       0.351070
    24539.877300       0.344952
    24600.246000       0.338799
    24660.912500       0.332610
    24721.878900       0.326388
    24783.147500       0.320134
    24844.720500       0.313851
    24906.600200       0.307540
    24968.789000       0.301204
    25031.289100       0.294843
    25094.102900       0.288460
    25157.232700       0.282057
    25220.681000       0.275636
    25284.450100       0.269200
    25348.542500       0.262750
    25412.960600       0.256290
    25477.707000       0.249821
