05  , Filter noaa_14_avhrr_05.flt
Number of data points:
60
Wavenumber (cm-1)   Filter response
      787.401000       0.007004
      789.150800       0.009880
      790.900600       0.017258
      792.650400       0.033093
      794.400200       0.060767
      796.150000       0.122548
      797.899800       0.259504
      799.649600       0.457291
      801.399400       0.660313
      803.149200       0.812633
      804.899000       0.877320
      806.648800       0.900252
      808.398600       0.929613
      810.148400       0.954069
      811.898200       0.963216
      813.648000       0.969380
      815.397800       0.979852
      817.147600       0.991251
      818.897400       0.999271
      820.647200       1.000000
      822.397000       0.993704
      824.146800       0.984425
      825.896600       0.976273
      827.646400       0.973091
      829.396200       0.974152
      831.146000       0.976339
      832.895800       0.976339
      834.645600       0.971302
      836.395400       0.961559
      838.145200       0.949297
      839.895000       0.936638
      841.644800       0.925437
      843.394600       0.915032
      845.144400       0.903632
      846.894200       0.889183
      848.644000       0.870294
      850.393800       0.850875
      852.143600       0.838083
      853.893400       0.839276
      855.643200       0.860618
      857.393000       0.887063
      859.142800       0.885737
      860.892600       0.852267
      862.642400       0.816344
      864.392200       0.794075
      866.142000       0.777108
      867.891800       0.742245
      869.641600       0.637705
      871.391400       0.439111
      873.141200       0.232363
      874.891000       0.109836
      876.640800       0.059767
      878.390600       0.035105
      880.140400       0.017971
      881.890200       0.008383
      883.640000       0.004814
      885.389800       0.003803
      887.139600       0.002931
      888.889400       0.002001
      890.639200       0.000000
