128,   128, MVIRI VIS channel from srf_MET7_2013213_2013214_1801-Release_S10EE_10.dat
Number of data points:
793
Wavenumber (cm-1)   Filter response
     8442.380800       0.000000
     8449.514200       0.000000
     8456.659600       0.000004
     8463.817200       0.000057
     8470.986900       0.000168
     8478.168700       0.000336
     8485.362700       0.000559
     8492.569000       0.000835
     8499.787500       0.001164
     8507.018300       0.001543
     8514.261400       0.001971
     8521.516800       0.002447
     8528.784600       0.002968
     8536.064900       0.003535
     8543.357500       0.004146
     8550.662700       0.004799
     8557.980300       0.005493
     8565.310500       0.006227
     8572.653200       0.007001
     8580.008600       0.007812
     8587.376600       0.008661
     8594.757200       0.009546
     8602.150500       0.010466
     8609.556600       0.011420
     8616.975400       0.012408
     8624.407100       0.013428
     8631.851500       0.014481
     8639.308900       0.015564
     8646.779100       0.016678
     8654.262200       0.017822
     8661.758300       0.018994
     8669.267400       0.020196
     8676.789600       0.021425
     8684.324800       0.022682
     8691.873100       0.023966
     8699.434500       0.025276
     8707.009100       0.026612
     8714.596900       0.027973
     8722.198000       0.029360
     8729.812300       0.030771
     8737.439900       0.032207
     8745.080900       0.033666
     8752.735200       0.035149
     8760.403000       0.036656
     8768.084200       0.038186
     8775.778900       0.039738
     8783.487000       0.041313
     8791.208800       0.042910
     8798.944100       0.044530
     8806.693100       0.046171
     8814.455700       0.047835
     8822.232000       0.049520
     8830.022100       0.051226
     8837.825900       0.052954
     8845.643500       0.054703
     8853.475000       0.056472
     8861.320300       0.058264
     8869.179600       0.060076
     8877.052800       0.061909
     8884.940000       0.063763
     8892.841300       0.065637
     8900.756600       0.067533
     8908.686000       0.069449
     8916.629500       0.071387
     8924.587200       0.073345
     8932.559200       0.075323
     8940.545400       0.077323
     8948.545900       0.079343
     8956.560700       0.081384
     8964.589900       0.083446
     8972.633500       0.085529
     8980.691500       0.087633
     8988.764000       0.089758
     8996.851100       0.091904
     9004.952700       0.094072
     9013.068900       0.096260
     9021.199800       0.098470
     9029.345400       0.100701
     9037.505600       0.102954
     9045.680700       0.105228
     9053.870500       0.107523
     9062.075200       0.109841
     9070.294800       0.112180
     9078.529300       0.114541
     9086.778700       0.116924
     9095.043200       0.119329
     9103.322700       0.121756
     9111.617300       0.124206
     9119.927000       0.126677
     9128.251900       0.129172
     9136.592100       0.131688
     9144.947400       0.134227
     9153.318100       0.136789
     9161.704100       0.139373
     9170.105500       0.141981
     9178.522300       0.144611
     9186.954500       0.147264
     9195.402300       0.149940
     9203.865600       0.152639
     9212.344500       0.155362
     9220.839100       0.158108
     9229.349300       0.160877
     9237.875300       0.163669
     9246.417000       0.166485
     9254.974500       0.169324
     9263.547900       0.172187
     9272.137200       0.175073
     9280.742500       0.177983
     9289.363700       0.180917
     9298.000900       0.183874
     9306.654300       0.186856
     9315.323700       0.189860
     9324.009300       0.192889
     9332.711200       0.195941
     9341.429200       0.199017
     9350.163600       0.202117
     9358.914400       0.205241
     9367.681500       0.208388
     9376.465100       0.211559
     9385.265100       0.214754
     9394.081700       0.217972
     9402.914900       0.221214
     9411.764700       0.224480
     9420.631200       0.227770
     9429.514400       0.231083
     9438.414300       0.234419
     9447.331100       0.237779
     9456.264800       0.241162
     9465.215300       0.244568
     9474.182900       0.247998
     9483.167400       0.251451
     9492.169000       0.254926
     9501.187600       0.258425
     9510.223500       0.261946
     9519.276500       0.265490
     9528.346800       0.269057
     9537.434400       0.272646
     9546.539400       0.276258
     9555.661700       0.279891
     9564.801500       0.283547
     9573.958800       0.287224
     9583.133700       0.290924
     9592.326100       0.294644
     9601.536200       0.298386
     9610.764100       0.302149
     9620.009600       0.305934
     9629.273000       0.309739
     9638.554200       0.313565
     9647.853400       0.317411
     9657.170400       0.321277
     9666.505600       0.325164
     9675.858700       0.329070
     9685.230000       0.332996
     9694.619500       0.336941
     9704.027200       0.340905
     9713.453100       0.344888
     9722.897400       0.348889
     9732.360100       0.352909
     9741.841200       0.356947
     9751.340800       0.361002
     9760.859000       0.365076
     9770.395700       0.369166
     9779.951100       0.373273
     9789.525200       0.377397
     9799.118100       0.381537
     9808.729800       0.385693
     9818.360300       0.389865
     9828.009800       0.394052
     9837.678300       0.398254
     9847.365800       0.402471
     9857.072400       0.406702
     9866.798200       0.410948
     9876.543200       0.415207
     9886.307500       0.419479
     9896.091000       0.423765
     9905.894000       0.428063
     9915.716400       0.432373
     9925.558300       0.436695
     9935.419800       0.441029
     9945.300800       0.445374
     9955.201600       0.449730
     9965.122100       0.454096
     9975.062300       0.458472
     9985.022500       0.462857
     9995.002500       0.467252
    10005.002500       0.471656
    10015.022500       0.476068
    10025.062700       0.480488
    10035.122900       0.484915
    10045.203400       0.489350
    10055.304200       0.493792
    10065.425300       0.498239
    10075.566800       0.502693
    10085.728700       0.507152
    10095.911200       0.511616
    10106.114200       0.516084
    10116.337900       0.520557
    10126.582300       0.525033
    10136.847400       0.529513
    10147.133400       0.533995
    10157.440300       0.538480
    10167.768200       0.542966
    10178.117000       0.547454
    10188.487000       0.551943
    10198.878100       0.556432
    10209.290500       0.560922
    10219.724100       0.565410
    10230.179000       0.569898
    10240.655400       0.574385
    10251.153300       0.578870
    10261.672700       0.583353
    10272.213700       0.587832
    10282.776300       0.592309
    10293.360800       0.596782
    10303.967000       0.601251
    10314.595200       0.605714
    10325.245200       0.610173
    10335.917300       0.614627
    10346.611500       0.619074
    10357.327800       0.623514
    10368.066400       0.627948
    10378.827200       0.632374
    10389.610400       0.636792
    10400.416000       0.641201
    10411.244100       0.645602
    10422.094800       0.649993
    10432.968200       0.654374
    10443.864200       0.658745
    10454.783100       0.663105
    10465.724800       0.667454
    10476.689400       0.671791
    10487.677000       0.676116
    10498.687700       0.680427
    10509.721500       0.684726
    10520.778500       0.689011
    10531.858900       0.693282
    10542.962600       0.697538
    10554.089700       0.701779
    10565.240400       0.706005
    10576.414600       0.710214
    10587.612500       0.714407
    10598.834100       0.718584
    10610.079600       0.722743
    10621.348900       0.726884
    10632.642200       0.731006
    10643.959600       0.735111
    10655.301000       0.739196
    10666.666700       0.743261
    10678.056600       0.747306
    10689.470900       0.751331
    10700.909600       0.755335
    10712.372800       0.759318
    10723.860600       0.763278
    10735.373100       0.767217
    10746.910300       0.771133
    10758.472300       0.775026
    10770.059200       0.778896
    10781.671200       0.782741
    10793.308100       0.786563
    10804.970300       0.790360
    10816.657700       0.794132
    10828.370300       0.797878
    10840.108400       0.801598
    10851.871900       0.805293
    10863.661100       0.808960
    10875.475800       0.812601
    10887.316300       0.816214
    10899.182600       0.819800
    10911.074700       0.823358
    10922.992900       0.826887
    10934.937100       0.830387
    10946.907500       0.833858
    10958.904100       0.837300
    10970.927000       0.840712
    10982.976400       0.844093
    10995.052200       0.847444
    11007.154700       0.850765
    11019.283700       0.854054
    11031.439600       0.857311
    11043.622300       0.860537
    11055.832000       0.863731
    11068.068600       0.866892
    11080.332400       0.870021
    11092.623400       0.873117
    11104.941700       0.876180
    11117.287400       0.879209
    11129.660500       0.882204
    11142.061300       0.885165
    11154.489700       0.888092
    11166.945800       0.890984
    11179.429800       0.893842
    11191.941800       0.896664
    11204.481800       0.899451
    11217.049900       0.902203
    11229.646300       0.904918
    11242.270900       0.907598
    11254.924000       0.910242
    11267.605600       0.912849
    11280.315800       0.915420
    11293.054800       0.917954
    11305.822500       0.920451
    11318.619100       0.922911
    11331.444800       0.925334
    11344.299500       0.927719
    11357.183400       0.930066
    11370.096600       0.932376
    11383.039300       0.934648
    11396.011400       0.936881
    11409.013100       0.939077
    11422.044500       0.941234
    11435.105800       0.943352
    11448.196900       0.945432
    11461.318100       0.947474
    11474.469300       0.949476
    11487.650800       0.951440
    11500.862600       0.953365
    11514.104800       0.955251
    11527.377500       0.957097
    11540.680900       0.958905
    11554.015000       0.960673
    11567.380000       0.962402
    11580.775900       0.964091
    11594.202900       0.965742
    11607.661100       0.967352
    11621.150500       0.968924
    11634.671300       0.970456
    11648.223600       0.971948
    11661.807600       0.973401
    11675.423200       0.974815
    11689.070700       0.976189
    11702.750100       0.977523
    11716.461600       0.978819
    11730.205300       0.980074
    11743.981200       0.981291
    11757.789500       0.982468
    11771.630400       0.983606
    11785.503800       0.984704
    11799.410000       0.985764
    11813.349100       0.986784
    11827.321100       0.987766
    11841.326200       0.988708
    11855.364600       0.989612
    11869.436200       0.990477
    11883.541300       0.991303
    11897.680000       0.992091
    11911.852300       0.992841
    11926.058400       0.993552
    11940.298500       0.994225
    11954.572600       0.994860
    11968.880900       0.995457
    11983.223500       0.996016
    11997.600500       0.996538
    12012.012000       0.997022
    12026.458200       0.997469
    12040.939200       0.997880
    12055.455100       0.998253
    12070.006000       0.998589
    12084.592100       0.998889
    12099.213600       0.999153
    12113.870400       0.999381
    12128.562800       0.999572
    12143.290800       0.999728
    12158.054700       0.999849
    12172.854500       0.999934
    12187.690400       0.999984
    12202.562500       1.000000
    12217.471000       0.999981
    12232.415900       0.999928
    12247.397400       0.999841
    12262.415700       0.999720
    12277.470800       0.999565
    12292.563000       0.999378
    12307.692300       0.999157
    12322.858900       0.998904
    12338.062900       0.998619
    12353.304500       0.998301
    12368.583800       0.997952
    12383.900900       0.997571
    12399.256000       0.997159
    12414.649300       0.996716
    12430.080800       0.996243
    12445.550700       0.995740
    12461.059200       0.995206
    12476.606400       0.994644
    12492.192400       0.994052
    12507.817400       0.993431
    12523.481500       0.992782
    12539.185000       0.992104
    12554.927800       0.991399
    12570.710200       0.990666
    12586.532400       0.989906
    12602.394500       0.989120
    12618.296500       0.988307
    12634.238800       0.987468
    12650.221400       0.986604
    12666.244500       0.985715
    12682.308200       0.984800
    12698.412700       0.983862
    12714.558200       0.982899
    12730.744700       0.981913
    12746.972600       0.980903
    12763.241900       0.979871
    12779.552700       0.978816
    12795.905300       0.977739
    12812.299800       0.976641
    12828.736400       0.975521
    12845.215200       0.974381
    12861.736300       0.973220
    12878.300100       0.972039
    12894.906500       0.970839
    12911.555800       0.969620
    12928.248200       0.968382
    12944.983800       0.967126
    12961.762800       0.965852
    12978.585300       0.964561
    12995.451600       0.963252
    13012.361700       0.961928
    13029.316000       0.960587
    13046.314400       0.959231
    13063.357300       0.957860
    13080.444700       0.956474
    13097.576900       0.955073
    13114.754100       0.953659
    13131.976400       0.952232
    13149.243900       0.950791
    13166.556900       0.949338
    13183.915600       0.947873
    13201.320100       0.946397
    13218.770700       0.944910
    13236.267400       0.943411
    13253.810500       0.941903
    13271.400100       0.940385
    13289.036500       0.938857
    13306.719900       0.937321
    13324.450400       0.935777
    13342.228200       0.934224
    13360.053400       0.932664
    13377.926400       0.931097
    13395.847300       0.929523
    13413.816200       0.927943
    13431.833400       0.926358
    13449.899100       0.924767
    13468.013500       0.923171
    13486.176700       0.921571
    13504.388900       0.919968
    13522.650400       0.918360
    13540.961400       0.916750
    13559.322000       0.915137
    13577.732500       0.913522
    13596.193100       0.911906
    13614.703900       0.910288
    13633.265200       0.908669
    13651.877100       0.907050
    13670.540000       0.905431
    13689.253900       0.903812
    13708.019200       0.902195
    13726.836000       0.900578
    13745.704500       0.898964
    13764.624900       0.897351
    13783.597500       0.895741
    13802.622500       0.894134
    13821.700100       0.892530
    13840.830400       0.890931
    13860.013900       0.889335
    13879.250500       0.887744
    13898.540700       0.886158
    13917.884500       0.884577
    13937.282200       0.883002
    13956.734100       0.881434
    13976.240400       0.879872
    13995.801300       0.878316
    14015.417000       0.876768
    14035.087700       0.875228
    14054.813800       0.873696
    14074.595400       0.872172
    14094.432700       0.870657
    14114.326000       0.869150
    14134.275600       0.867654
    14154.281700       0.866167
    14174.344400       0.864690
    14194.464200       0.863223
    14214.641100       0.861768
    14234.875400       0.860323
    14255.167500       0.858890
    14275.517500       0.857469
    14295.925700       0.856059
    14316.392300       0.854662
    14336.917600       0.853278
    14357.501800       0.851906
    14378.145200       0.850548
    14398.848100       0.849203
    14419.610700       0.847871
    14440.433200       0.846554
    14461.316000       0.845251
    14482.259200       0.843962
    14503.263200       0.842689
    14524.328200       0.841430
    14545.454500       0.840186
    14566.642400       0.838958
    14587.892000       0.837746
    14609.203800       0.836549
    14630.577900       0.835369
    14652.014700       0.834204
    14673.514300       0.833057
    14695.077100       0.831926
    14716.703500       0.830811
    14738.393500       0.829714
    14760.147600       0.828634
    14781.966000       0.827571
    14803.849000       0.826526
    14825.796900       0.825498
    14847.809900       0.824488
    14869.888500       0.823496
    14892.032800       0.822522
    14914.243100       0.821566
    14936.519800       0.820629
    14958.863100       0.819709
    14981.273400       0.818808
    15003.750900       0.817925
    15026.296000       0.817061
    15048.909000       0.816216
    15071.590100       0.815389
    15094.339600       0.814581
    15117.158000       0.813791
    15140.045400       0.813021
    15163.002300       0.812269
    15186.028900       0.811536
    15209.125500       0.810821
    15232.292500       0.810126
    15255.530100       0.809449
    15278.838800       0.808791
    15302.218800       0.808152
    15325.670500       0.807531
    15349.194200       0.806929
    15372.790200       0.806346
    15396.458800       0.805781
    15420.200500       0.805235
    15444.015400       0.804707
    15467.904100       0.804197
    15491.866800       0.803705
    15515.903800       0.803232
    15540.015500       0.802776
    15564.202300       0.802338
    15588.464500       0.801918
    15612.802500       0.801516
    15637.216600       0.801130
    15661.707100       0.800762
    15686.274500       0.800411
    15710.919100       0.800077
    15735.641200       0.799759
    15760.441300       0.799458
    15785.319700       0.799173
    15810.276700       0.798905
    15835.312700       0.798652
    15860.428200       0.798414
    15885.623500       0.798192
    15910.899000       0.797985
    15936.255000       0.797792
    15961.691900       0.797615
    15987.210200       0.797451
    16012.810200       0.797302
    16038.492400       0.797166
    16064.257000       0.797043
    16090.104600       0.796933
    16116.035500       0.796836
    16142.050000       0.796752
    16168.148700       0.796679
    16194.332000       0.796618
    16220.600200       0.796569
    16246.953700       0.796530
    16273.393000       0.796502
    16299.918500       0.796484
    16326.530600       0.796476
    16353.229800       0.796477
    16380.016400       0.796487
    16406.890900       0.796506
    16433.853700       0.796532
    16460.905300       0.796567
    16488.046200       0.796608
    16515.276600       0.796656
    16542.597200       0.796711
    16570.008300       0.796771
    16597.510400       0.796837
    16625.103900       0.796907
    16652.789300       0.796982
    16680.567100       0.797061
    16708.437800       0.797143
    16736.401700       0.797227
    16764.459300       0.797314
    16792.611300       0.797403
    16820.857900       0.797493
    16849.199700       0.797584
    16877.637100       0.797674
    16906.170800       0.797765
    16934.801000       0.797854
    16963.528400       0.797941
    16992.353400       0.798026
    17021.276600       0.798109
    17050.298400       0.798188
    17079.419300       0.798263
    17108.639900       0.798333
    17137.960600       0.798398
    17167.382000       0.798458
    17196.904600       0.798510
    17226.528900       0.798556
    17256.255400       0.798594
    17286.084700       0.798623
    17316.017300       0.798644
    17346.053800       0.798654
    17376.194600       0.798655
    17406.440400       0.798644
    17436.791600       0.798621
    17467.248900       0.798586
    17497.812800       0.798538
    17528.483800       0.798476
    17559.262500       0.798399
    17590.149500       0.798308
    17621.145400       0.798200
    17652.250700       0.798076
    17683.466000       0.797935
    17714.791900       0.797775
    17746.228900       0.797597
    17777.777800       0.797400
    17809.439000       0.797182
    17841.213200       0.796943
    17873.101000       0.796683
    17905.103000       0.796401
    17937.219700       0.796095
    17969.451900       0.795765
    18001.800200       0.795411
    18034.265100       0.795032
    18066.847300       0.794627
    18099.547500       0.794195
    18132.366300       0.793735
    18165.304300       0.793247
    18198.362100       0.792731
    18231.540600       0.792184
    18264.840200       0.791607
    18298.261700       0.790999
    18331.805700       0.790359
    18365.472900       0.789686
    18399.264000       0.788980
    18433.179700       0.788239
    18467.220700       0.787464
    18501.387600       0.786653
    18535.681200       0.785806
    18570.102100       0.784921
    18604.651200       0.783999
    18639.329000       0.783038
    18674.136300       0.782038
    18709.073900       0.780998
    18744.142500       0.779917
    18779.342700       0.778795
    18814.675400       0.777631
    18850.141400       0.776423
    18885.741300       0.775172
    18921.475900       0.773877
    18957.346000       0.772537
    18993.352300       0.771152
    19029.495700       0.769720
    19065.776900       0.768241
    19102.196800       0.766714
    19138.756000       0.765139
    19175.455400       0.763515
    19212.295900       0.761841
    19249.278200       0.760117
    19286.403100       0.758343
    19323.671500       0.756516
    19361.084200       0.754638
    19398.642100       0.752707
    19436.346000       0.750722
    19474.196700       0.748684
    19512.195100       0.746591
    19550.342100       0.744443
    19588.638600       0.742239
    19627.085400       0.739979
    19665.683400       0.737662
    19704.433500       0.735288
    19743.336600       0.732856
    19782.393700       0.730366
    19821.605600       0.727817
    19860.973200       0.725209
    19900.497500       0.722542
    19940.179500       0.719814
    19980.020000       0.717025
    20020.020000       0.714176
    20060.180500       0.711265
    20100.502500       0.708292
    20140.986900       0.705257
    20181.634700       0.702159
    20222.446900       0.698999
    20263.424500       0.695775
    20304.568500       0.692488
    20345.880000       0.689136
    20387.359800       0.685721
    20429.009200       0.682241
    20470.829100       0.678697
    20512.820500       0.675088
    20554.984600       0.671414
    20597.322300       0.667675
    20639.834900       0.663870
    20682.523300       0.660000
    20725.388600       0.656064
    20768.432000       0.652062
    20811.654500       0.647995
    20855.057400       0.643861
    20898.641600       0.639662
    20942.408400       0.635397
    20986.358900       0.631066
    21030.494200       0.626669
    21074.815600       0.622207
    21119.324200       0.617678
    21164.021200       0.613084
    21208.907700       0.608425
    21253.985100       0.603700
    21299.254500       0.598911
    21344.717200       0.594056
    21390.374300       0.589137
    21436.227200       0.584154
    21482.277100       0.579106
    21528.525300       0.573995
    21574.973000       0.568821
    21621.621600       0.563583
    21668.472400       0.558283
    21715.526600       0.552921
    21762.785600       0.547498
    21810.250800       0.542014
    21857.923500       0.536469
    21905.805000       0.530864
    21953.896800       0.525200
    22002.200200       0.519477
    22050.716600       0.513696
    22099.447500       0.507858
    22148.394200       0.501964
    22197.558300       0.496014
    22246.941000       0.490009
    22296.544000       0.483951
    22346.368700       0.477839
    22396.416600       0.471675
    22446.689100       0.465460
    22497.187900       0.459195
    22547.914300       0.452881
    22598.870100       0.446519
    22650.056600       0.440110
    22701.475600       0.433655
    22753.128600       0.427156
    22805.017100       0.420614
    22857.142900       0.414031
    22909.507400       0.407406
    22962.112500       0.400743
    23014.959700       0.394042
    23068.050700       0.387305
    23121.387300       0.380533
    23174.971000       0.373728
    23228.803700       0.366892
    23282.887100       0.360027
    23337.222900       0.353133
    23391.812900       0.346213
    23446.658900       0.339268
    23501.762600       0.332301
    23557.126000       0.325313
    23612.750900       0.318306
    23668.639100       0.311283
    23724.792400       0.304245
    23781.212800       0.297195
    23837.902300       0.290134
    23894.862600       0.283065
    23952.095800       0.275990
    24009.603800       0.268912
    24067.388700       0.261833
    24125.452400       0.254755
    24183.796900       0.247681
    24242.424200       0.240613
    24301.336600       0.233554
    24360.535900       0.226507
    24420.024400       0.219474
    24479.804200       0.212458
    24539.877300       0.205463
    24600.246000       0.198490
    24660.912500       0.191543
    24721.878900       0.184625
    24783.147500       0.177739
    24844.720500       0.170888
    24906.600200       0.164076
    24968.789000       0.157305
    25031.289100       0.150579
    25094.102900       0.143901
    25157.232700       0.137275
    25220.681000       0.130705
    25284.450100       0.124193
    25348.542500       0.117744
    25412.960600       0.111362
    25477.707000       0.105049
