04  , Filter noaa_13_avhrr_04.flt
Number of data points:
60
Wavenumber (cm-1)   Filter response
      847.457000       0.009975
      850.261200       0.011742
      853.065400       0.014091
      855.869600       0.017606
      858.673800       0.022943
      861.478000       0.030853
      864.282200       0.042447
      867.086400       0.061557
      869.890600       0.093276
      872.694800       0.143012
      875.499000       0.217083
      878.303200       0.321590
      881.107400       0.448655
      883.911600       0.572046
      886.715800       0.665954
      889.520000       0.727113
      892.324200       0.768396
      895.128400       0.801793
      897.932600       0.830451
      900.736800       0.853666
      903.541000       0.871037
      906.345200       0.882965
      909.149400       0.889930
      911.953600       0.893052
      914.757800       0.895373
      917.562000       0.900096
      920.366200       0.909462
      923.170400       0.922430
      925.974600       0.936920
      928.778800       0.951249
      931.583000       0.964537
      934.387200       0.975905
      937.191400       0.984790
      939.995600       0.991515
      942.799800       0.996558
      945.604000       1.000000
      948.408200       0.996638
      951.212400       0.978947
      954.016600       0.939721
      956.820800       0.874880
      959.625000       0.783061
      962.429200       0.663056
      965.233400       0.521830
      968.037600       0.379539
      970.841800       0.257541
      973.646000       0.171966
      976.450200       0.117363
      979.254400       0.082717
      982.058600       0.057372
      984.862800       0.036797
      987.667000       0.021202
      990.471200       0.010922
      993.275400       0.005797
      996.079600       0.004304
      998.883800       0.004696
     1001.688000       0.005295
     1004.492200       0.005450
     1007.296400       0.005296
     1010.100600       0.004988
     1012.904800       0.000000
