2,    channel 2 SRF extracted from SRF_FY-4A_AGRI.zip (0.55.txt) (received April 2018)
Number of data points:
553
Wavenumber (cm-1)   Filter response
    10559.662100       0.002723
    10570.824500       0.002713
    10582.010600       0.002703
    10593.220300       0.002695
    10604.453900       0.002689
    10615.711300       0.002687
    10626.992600       0.002687
    10638.297900       0.002692
    10649.627300       0.002703
    10660.980800       0.002722
    10672.358600       0.002747
    10683.760700       0.002781
    10695.187200       0.002824
    10706.638100       0.002879
    10718.113600       0.002941
    10729.613700       0.003011
    10741.138600       0.003085
    10752.688200       0.003165
    10764.262600       0.003249
    10775.862100       0.003336
    10787.486500       0.003426
    10799.136100       0.003519
    10810.810800       0.003614
    10822.510800       0.003708
    10834.236200       0.003802
    10845.987000       0.003893
    10857.763300       0.003980
    10869.565200       0.004062
    10881.392800       0.004138
    10893.246200       0.004208
    10905.125400       0.004268
    10917.030600       0.004319
    10928.961700       0.004356
    10940.919000       0.004380
    10952.902500       0.004391
    10964.912300       0.004390
    10976.948400       0.004380
    10989.011000       0.004361
    11001.100100       0.004336
    11013.215900       0.004305
    11025.358300       0.004270
    11037.527600       0.004233
    11049.723800       0.004196
    11061.946900       0.004160
    11074.197100       0.004129
    11086.474500       0.004104
    11098.779100       0.004089
    11111.111100       0.004082
    11123.470500       0.004088
    11135.857500       0.004107
    11148.272000       0.004140
    11160.714300       0.004191
    11173.184400       0.004266
    11185.682300       0.004363
    11198.208300       0.004482
    11210.762300       0.004620
    11223.344600       0.004776
    11235.955100       0.004948
    11248.593900       0.005136
    11261.261300       0.005339
    11273.957200       0.005557
    11286.681700       0.005790
    11299.435000       0.006036
    11312.217200       0.006297
    11325.028300       0.006571
    11337.868500       0.006858
    11350.737800       0.007158
    11363.636400       0.007470
    11376.564300       0.007795
    11389.521600       0.008131
    11402.508600       0.008478
    11415.525100       0.008832
    11428.571400       0.009194
    11441.647600       0.009560
    11454.753700       0.009929
    11467.889900       0.010300
    11481.056300       0.010672
    11494.252900       0.011042
    11507.479900       0.011407
    11520.737300       0.011764
    11534.025400       0.012108
    11547.344100       0.012436
    11560.693600       0.012749
    11574.074100       0.013045
    11587.485500       0.013327
    11600.928100       0.013594
    11614.401900       0.013840
    11627.907000       0.014059
    11641.443500       0.014246
    11655.011700       0.014398
    11668.611400       0.014537
    11682.243000       0.014691
    11695.906400       0.014888
    11709.601900       0.015150
    11723.329400       0.015459
    11737.089200       0.015786
    11750.881300       0.016100
    11764.705900       0.016376
    11778.563000       0.016608
    11792.452800       0.016797
    11806.375400       0.016945
    11820.331000       0.017052
    11834.319500       0.017133
    11848.341200       0.017199
    11862.396200       0.017264
    11876.484600       0.017340
    11890.606400       0.017425
    11904.761900       0.017516
    11918.951100       0.017610
    11933.174200       0.017701
    11947.431300       0.017790
    11961.722500       0.017872
    11976.047900       0.017946
    11990.407700       0.018011
    12004.801900       0.018068
    12019.230800       0.018121
    12033.694300       0.018171
    12048.192800       0.018220
    12062.726200       0.018270
    12077.294700       0.018325
    12091.898400       0.018385
    12106.537500       0.018451
    12121.212100       0.018528
    12135.922300       0.018616
    12150.668300       0.018719
    12165.450100       0.018841
    12180.268000       0.018983
    12195.122000       0.019155
    12210.012200       0.019359
    12224.938900       0.019602
    12239.902100       0.019887
    12254.902000       0.020216
    12269.938700       0.020593
    12285.012300       0.021020
    12300.123000       0.021489
    12315.270900       0.021993
    12330.456200       0.022523
    12345.679000       0.023070
    12360.939400       0.023628
    12376.237600       0.024192
    12391.573700       0.024754
    12406.947900       0.025312
    12422.360200       0.025867
    12437.810900       0.026425
    12453.300100       0.026991
    12468.827900       0.027569
    12484.394500       0.028150
    12500.000000       0.028722
    12515.644600       0.029270
    12531.328300       0.029783
    12547.051400       0.030261
    12562.814100       0.030708
    12578.616400       0.031127
    12594.458400       0.031530
    12610.340500       0.031963
    12626.262600       0.032480
    12642.225000       0.033137
    12658.227800       0.033988
    12674.271200       0.035094
    12690.355300       0.036515
    12706.480300       0.038310
    12722.646300       0.040538
    12738.853500       0.043256
    12755.102000       0.046520
    12771.392100       0.050381
    12787.723800       0.054888
    12804.097300       0.060085
    12820.512800       0.066013
    12836.970500       0.072705
    12853.470400       0.080196
    12870.012900       0.088529
    12886.597900       0.097758
    12903.225800       0.107944
    12919.896600       0.119134
    12936.610600       0.131300
    12953.367900       0.144397
    12970.168600       0.158384
    12987.013000       0.173231
    13003.901200       0.188950
    13020.833300       0.205580
    13037.809600       0.223186
    13054.830300       0.241830
    13071.895400       0.261460
    13089.005200       0.281965
    13106.159900       0.303198
    13123.359600       0.324993
    13140.604500       0.347233
    13157.894700       0.369802
    13175.230600       0.392579
    13192.612100       0.415459
    13210.039600       0.438487
    13227.513200       0.461773
    13245.033100       0.485471
    13262.599500       0.509700
    13280.212500       0.534300
    13297.872300       0.559015
    13315.579200       0.583565
    13333.333300       0.607717
    13351.134800       0.631517
    13368.984000       0.655122
    13386.880900       0.678736
    13404.825700       0.702509
    13422.818800       0.726249
    13440.860200       0.749657
    13458.950200       0.772454
    13477.088900       0.794390
    13495.276700       0.815388
    13513.513500       0.835416
    13531.799700       0.854442
    13550.135500       0.872341
    13568.521000       0.888620
    13586.956500       0.902668
    13605.442200       0.913852
    13623.978200       0.921711
    13642.564800       0.926496
    13661.202200       0.928668
    13679.890600       0.928706
    13698.630100       0.926985
    13717.421100       0.923409
    13736.263700       0.917762
    13755.158200       0.909834
    13774.104700       0.899594
    13793.103400       0.887692
    13812.154700       0.874972
    13831.258600       0.862387
    13850.415500       0.850755
    13869.625500       0.840320
    13888.888900       0.831187
    13908.205800       0.823459
    13927.576600       0.817233
    13947.001400       0.812560
    13966.480400       0.809495
    13986.014000       0.808100
    14005.602200       0.808390
    14025.245400       0.810153
    14044.943800       0.813116
    14064.697600       0.817006
    14084.507000       0.821562
    14104.372400       0.826595
    14124.293800       0.831934
    14144.271600       0.837405
    14164.305900       0.842823
    14184.397200       0.847974
    14204.545500       0.852638
    14224.751100       0.856630
    14245.014200       0.859804
    14265.335200       0.862149
    14285.714300       0.863690
    14306.151600       0.864447
    14326.647600       0.864349
    14347.202300       0.862959
    14367.816100       0.859746
    14388.489200       0.854191
    14409.221900       0.845972
    14430.014400       0.835518
    14450.867100       0.823446
    14471.780000       0.810371
    14492.753600       0.796896
    14513.788100       0.783601
    14534.883700       0.771049
    14556.040800       0.759795
    14577.259500       0.750389
    14598.540100       0.743412
    14619.883000       0.739334
    14641.288400       0.738195
    14662.756600       0.739845
    14684.287800       0.743787
    14705.882400       0.749438
    14727.540500       0.756219
    14749.262500       0.763561
    14771.048700       0.770956
    14792.899400       0.777907
    14814.814800       0.783916
    14836.795300       0.788564
    14858.841000       0.791760
    14880.952400       0.793500
    14903.129700       0.793778
    14925.373100       0.792671
    14947.683100       0.790560
    14970.059900       0.787908
    14992.503700       0.785172
    15015.015000       0.782756
    15037.594000       0.780855
    15060.241000       0.779612
    15082.956300       0.779174
    15105.740200       0.779607
    15128.593000       0.780659
    15151.515200       0.782005
    15174.506800       0.783332
    15197.568400       0.784334
    15220.700200       0.784716
    15243.902400       0.784192
    15267.175600       0.782483
    15290.519900       0.779387
    15313.935700       0.774975
    15337.423300       0.769380
    15360.983100       0.762729
    15384.615400       0.755265
    15408.320500       0.747751
    15432.098800       0.741064
    15455.950500       0.736082
    15479.876200       0.733573
    15503.876000       0.733873
    15527.950300       0.737182
    15552.099500       0.743559
    15576.324000       0.752958
    15600.624000       0.764993
    15625.000000       0.779192
    15649.452300       0.795060
    15673.981200       0.812050
    15698.587100       0.829437
    15723.270400       0.846430
    15748.031500       0.862206
    15772.870700       0.876058
    15797.788300       0.887828
    15822.784800       0.897506
    15847.860500       0.905098
    15873.015900       0.910667
    15898.251200       0.914463
    15923.566900       0.916790
    15948.963300       0.917954
    15974.440900       0.918282
    16000.000000       0.918161
    16025.641000       0.917969
    16051.364400       0.917987
    16077.170400       0.918420
    16103.059600       0.919266
    16129.032300       0.920470
    16155.088900       0.921979
    16181.229800       0.923808
    16207.455400       0.926255
    16233.766200       0.929696
    16260.162600       0.934508
    16286.645000       0.940951
    16313.213700       0.948798
    16339.869300       0.957692
    16366.612100       0.967272
    16393.442600       0.977073
    16420.361200       0.986217
    16447.368400       0.993719
    16474.464600       0.998579
    16501.650200       1.000000
    16528.925600       0.998003
    16556.291400       0.992896
    16583.747900       0.985278
    16611.295700       0.975872
    16638.935100       0.965610
    16666.666700       0.955457
    16694.490800       0.946358
    16722.408000       0.939091
    16750.418800       0.933858
    16778.523500       0.930727
    16806.722700       0.929780
    16835.016800       0.930910
    16863.406400       0.933189
    16891.891900       0.935485
    16920.473800       0.936659
    16949.152500       0.935753
    16977.928700       0.932555
    17006.802700       0.927050
    17035.775100       0.919237
    17064.846400       0.909226
    17094.017100       0.897527
    17123.287700       0.884831
    17152.658700       0.872132
    17182.130600       0.860305
    17211.704000       0.849514
    17241.379300       0.839755
    17271.157200       0.831022
    17301.038100       0.823284
    17331.022500       0.816362
    17361.111100       0.810063
    17391.304300       0.804211
    17421.602800       0.798660
    17452.007000       0.793355
    17482.517500       0.788255
    17513.134900       0.783311
    17543.859600       0.778436
    17574.692400       0.773385
    17605.633800       0.767879
    17636.684300       0.761644
    17667.844500       0.754425
    17699.115000       0.746020
    17730.496500       0.736304
    17761.989300       0.725404
    17793.594300       0.713572
    17825.311900       0.701335
    17857.142900       0.689272
    17889.087700       0.677938
    17921.147000       0.667719
    17953.321400       0.658415
    17985.611500       0.649699
    18018.018000       0.641262
    18050.541500       0.632767
    18083.182600       0.623688
    18115.942000       0.613465
    18148.820300       0.601555
    18181.818200       0.587636
    18214.936200       0.572165
    18248.175200       0.555778
    18281.535600       0.539063
    18315.018300       0.522379
    18348.623900       0.505375
    18382.352900       0.487611
    18416.206300       0.469016
    18450.184500       0.449486
    18484.288400       0.428488
    18518.518500       0.405547
    18552.875700       0.380400
    18587.360600       0.353232
    18621.973900       0.325204
    18656.716400       0.297538
    18691.588800       0.271256
    18726.591800       0.247070
    18761.726100       0.225086
    18796.992500       0.205236
    18832.391700       0.187422
    18867.924500       0.171432
    18903.591700       0.156761
    18939.393900       0.142963
    18975.332100       0.129728
    19011.406800       0.116926
    19047.619000       0.104722
    19083.969500       0.093288
    19120.458900       0.082731
    19157.088100       0.073098
    19193.858000       0.064368
    19230.769200       0.056499
    19267.822700       0.049437
    19305.019300       0.043117
    19342.359800       0.037430
    19379.845000       0.032288
    19417.475700       0.027627
    19455.252900       0.023411
    19493.177400       0.019649
    19531.250000       0.016414
    19569.471600       0.013917
    19607.843100       0.011918
    19646.365400       0.010288
    19685.039400       0.008873
    19723.865900       0.007642
    19762.845800       0.006581
    19801.980200       0.005677
    19841.269800       0.004919
    19880.715700       0.004294
    19920.318700       0.003787
    19960.079800       0.003379
    20000.000000       0.003054
    20040.080200       0.002811
    20080.321300       0.002750
    20120.724300       0.002889
    20161.290300       0.003049
    20202.020200       0.003187
    20242.915000       0.003330
    20283.975700       0.003448
    20325.203300       0.003539
    20366.598800       0.003590
    20408.163300       0.003592
    20449.897800       0.003547
    20491.803300       0.003449
    20533.880900       0.003301
    20576.131700       0.003107
    20618.556700       0.002887
    20661.157000       0.002662
    20703.933700       0.002448
    20746.888000       0.002253
    20790.020800       0.002074
    20833.333300       0.001908
    20876.826700       0.001749
    20920.502100       0.001596
    20964.360600       0.001452
    21008.403400       0.001324
    21052.631600       0.001215
    21097.046400       0.001173
    21141.649000       0.001145
    21186.440700       0.001126
    21231.422500       0.001118
    21276.595700       0.001118
    21321.961600       0.001123
    21367.521400       0.001133
    21413.276200       0.001149
    21459.227500       0.001178
    21505.376300       0.001216
    21551.724100       0.001261
    21598.272100       0.001311
    21645.021600       0.001365
    21691.974000       0.001422
    21739.130400       0.001481
    21786.492400       0.001546
    21834.061100       0.001618
    21881.838100       0.001693
    21929.824600       0.001762
    21978.022000       0.001815
    22026.431700       0.001848
    22075.055200       0.001866
    22123.893800       0.001880
    22172.949000       0.001901
    22222.222200       0.001937
    22271.714900       0.001978
    22321.428600       0.002011
    22371.364700       0.002021
    22421.524700       0.001999
    22471.910100       0.001956
    22522.522500       0.001908
    22573.363400       0.001872
    22624.434400       0.001858
    22675.737000       0.001860
    22727.272700       0.001865
    22779.043300       0.001862
    22831.050200       0.001844
    22883.295200       0.001812
    22935.779800       0.001772
    22988.505700       0.001729
    23041.474700       0.001686
    23094.688200       0.001644
    23148.148100       0.001600
    23201.856100       0.001553
    23255.814000       0.001504
    23310.023300       0.001452
    23364.486000       0.001399
    23419.203700       0.001349
    23474.178400       0.001301
    23529.411800       0.001253
    23584.905700       0.001204
    23640.661900       0.001149
    23696.682500       0.001088
    23752.969100       0.001025
    23809.523800       0.000965
    23866.348400       0.000915
    23923.445000       0.000877
    23980.815300       0.000849
    24038.461500       0.000825
    24096.385500       0.000802
    24154.589400       0.000778
    24213.075100       0.000750
    24271.844700       0.000721
    24330.900200       0.000692
    24390.243900       0.000664
    24449.877800       0.000639
    24509.803900       0.000613
    24570.024600       0.000590
    24630.541900       0.000567
    24691.358000       0.000543
    24752.475200       0.000515
    24813.895800       0.000482
    24875.621900       0.000442
    24937.655900       0.000395
    25000.000000       0.000345
    25062.656600       0.000294
    25125.628100       0.000243
    25188.916900       0.000196
    25252.525300       0.000155
    25316.455700       0.000124
