 5    , ATSR modified 12 micron filter. Detector temperature 97.5K
Number of data points:
4096
Wavenumber (cm-1)   Filter response
      760.000000       0.000000
      760.040000       0.000000
      760.080000       0.000000
      760.120000       0.000000
      760.160000       0.000000
      760.200000       0.000000
      760.240000       0.000000
      760.280000       0.000000
      760.320000       0.000000
      760.360000       0.000000
      760.400000       0.000000
      760.440000       0.000000
      760.480000       0.000000
      760.520000       0.000000
      760.560000       0.000000
      760.600000       0.000000
      760.640000       0.000000
      760.680000       0.000000
      760.720000       0.000000
      760.760000       0.000000
      760.800000       0.000000
      760.840000       0.000000
      760.880000       0.000000
      760.920000       0.000000
      760.960000       0.000000
      761.000000       0.000000
      761.040000       0.000000
      761.080000       0.000000
      761.120000       0.000000
      761.160000       0.000000
      761.200000       0.000000
      761.240000       0.000000
      761.280000       0.000000
      761.320000       0.000000
      761.360000       0.000000
      761.400000       0.000000
      761.440000       0.000000
      761.480000       0.000000
      761.520000       0.000000
      761.560000       0.000000
      761.600000       0.000000
      761.640000       0.000000
      761.680000       0.000000
      761.720000       0.000000
      761.760000       0.000000
      761.800000       0.000000
      761.840000       0.000000
      761.880000       0.000000
      761.920000       0.000000
      761.960000       0.000000
      762.000000       0.000000
      762.040000       0.000000
      762.080000       0.000000
      762.120000       0.000000
      762.160000       0.000000
      762.200000       0.000000
      762.240000       0.000000
      762.280000       0.000000
      762.320000       0.000000
      762.360000       0.000000
      762.400000       0.000000
      762.440000       0.000000
      762.480000       0.000000
      762.520000       0.000000
      762.560000       0.000000
      762.600000       0.000000
      762.640000       0.000000
      762.680000       0.000000
      762.720000       0.000000
      762.760000       0.000000
      762.800000       0.000000
      762.840000       0.000000
      762.880000       0.000000
      762.920000       0.000000
      762.960000       0.000000
      763.000000       0.000000
      763.040000       0.000000
      763.080000       0.000000
      763.120000       0.000000
      763.160000       0.000021
      763.200000       0.000046
      763.240000       0.000072
      763.280000       0.000099
      763.320000       0.000127
      763.360000       0.000155
      763.400000       0.000185
      763.440000       0.000215
      763.480000       0.000246
      763.520000       0.000278
      763.560000       0.000310
      763.600000       0.000344
      763.640000       0.000378
      763.680000       0.000413
      763.720000       0.000448
      763.760000       0.000485
      763.800000       0.000522
      763.840000       0.000560
      763.880000       0.000599
      763.920000       0.000639
      763.960000       0.000679
      764.000000       0.000720
      764.040000       0.000762
      764.080000       0.000805
      764.120000       0.000848
      764.160000       0.000892
      764.200000       0.000937
      764.240000       0.000983
      764.280000       0.001029
      764.320000       0.001076
      764.360000       0.001124
      764.400000       0.001172
      764.440000       0.001221
      764.480000       0.001271
      764.520000       0.001322
      764.560000       0.001373
      764.600000       0.001424
      764.640000       0.001477
      764.680000       0.001530
      764.720000       0.001583
      764.760000       0.001638
      764.800000       0.001692
      764.840000       0.001748
      764.880000       0.001804
      764.920000       0.001860
      764.960000       0.001917
      765.000000       0.001975
      765.040000       0.002033
      765.080000       0.002092
      765.120000       0.002151
      765.160000       0.002211
      765.200000       0.002271
      765.240000       0.002331
      765.280000       0.002392
      765.320000       0.002454
      765.360000       0.002516
      765.400000       0.002578
      765.440000       0.002641
      765.480000       0.002704
      765.520000       0.002767
      765.560000       0.002831
      765.600000       0.002895
      765.640000       0.002959
      765.680000       0.003024
      765.720000       0.003089
      765.760000       0.003154
      765.800000       0.003220
      765.840000       0.003285
      765.880000       0.003351
      765.920000       0.003417
      765.960000       0.003472
      766.000000       0.003522
      766.040000       0.003573
      766.080000       0.003623
      766.120000       0.003673
      766.160000       0.003723
      766.200000       0.003773
      766.240000       0.003823
      766.280000       0.003873
      766.320000       0.003922
      766.360000       0.003972
      766.400000       0.004022
      766.440000       0.004072
      766.480000       0.004121
      766.520000       0.004171
      766.560000       0.004220
      766.600000       0.004270
      766.640000       0.004320
      766.680000       0.004369
      766.720000       0.004419
      766.760000       0.004468
      766.800000       0.004518
      766.840000       0.004567
      766.880000       0.004617
      766.920000       0.004667
      766.960000       0.004716
      767.000000       0.004766
      767.040000       0.004816
      767.080000       0.004865
      767.120000       0.004915
      767.160000       0.004965
      767.200000       0.005015
      767.240000       0.005065
      767.280000       0.005115
      767.320000       0.005165
      767.360000       0.005216
      767.400000       0.005266
      767.440000       0.005317
      767.480000       0.005367
      767.520000       0.005418
      767.560000       0.005469
      767.600000       0.005521
      767.640000       0.005572
      767.680000       0.005624
      767.720000       0.005676
      767.760000       0.005728
      767.800000       0.005780
      767.840000       0.005833
      767.880000       0.005886
      767.920000       0.005939
      767.960000       0.005992
      768.000000       0.006046
      768.040000       0.006100
      768.080000       0.006154
      768.120000       0.006209
      768.160000       0.006264
      768.200000       0.006320
      768.240000       0.006375
      768.280000       0.006432
      768.320000       0.006489
      768.360000       0.006546
      768.400000       0.006603
      768.440000       0.006661
      768.480000       0.006720
      768.520000       0.006779
      768.560000       0.006839
      768.600000       0.006899
      768.640000       0.006960
      768.680000       0.007021
      768.720000       0.007083
      768.760000       0.007147
      768.800000       0.007231
      768.840000       0.007316
      768.880000       0.007402
      768.920000       0.007488
      768.960000       0.007576
      769.000000       0.007665
      769.040000       0.007754
      769.080000       0.007845
      769.120000       0.007936
      769.160000       0.008028
      769.200000       0.008121
      769.240000       0.008215
      769.280000       0.008309
      769.320000       0.008404
      769.360000       0.008498
      769.400000       0.008594
      769.440000       0.008690
      769.480000       0.008786
      769.520000       0.008884
      769.560000       0.008982
      769.600000       0.009081
      769.640000       0.009181
      769.680000       0.009281
      769.720000       0.009382
      769.760000       0.009484
      769.800000       0.009586
      769.840000       0.009689
      769.880000       0.009793
      769.920000       0.009897
      769.960000       0.010001
      770.000000       0.010106
      770.040000       0.010212
      770.080000       0.010318
      770.120000       0.010425
      770.160000       0.010532
      770.200000       0.010640
      770.240000       0.010748
      770.280000       0.010856
      770.320000       0.010965
      770.360000       0.011074
      770.400000       0.011184
      770.440000       0.011293
      770.480000       0.011403
      770.520000       0.011514
      770.560000       0.011624
      770.600000       0.011735
      770.640000       0.011846
      770.680000       0.011957
      770.720000       0.012068
      770.760000       0.012179
      770.800000       0.012291
      770.840000       0.012403
      770.880000       0.012514
      770.920000       0.012626
      770.960000       0.012738
      771.000000       0.012849
      771.040000       0.012960
      771.080000       0.013072
      771.120000       0.013183
      771.160000       0.013294
      771.200000       0.013405
      771.240000       0.013516
      771.280000       0.013626
      771.320000       0.013736
      771.360000       0.013846
      771.400000       0.013956
      771.440000       0.014065
      771.480000       0.014173
      771.520000       0.014282
      771.560000       0.014389
      771.600000       0.014497
      771.640000       0.014581
      771.680000       0.014661
      771.720000       0.014740
      771.760000       0.014819
      771.800000       0.014896
      771.840000       0.014973
      771.880000       0.015048
      771.920000       0.015123
      771.960000       0.015196
      772.000000       0.015269
      772.040000       0.015341
      772.080000       0.015412
      772.120000       0.015482
      772.160000       0.015552
      772.200000       0.015620
      772.240000       0.015687
      772.280000       0.015754
      772.320000       0.015819
      772.360000       0.015884
      772.400000       0.015948
      772.440000       0.016011
      772.480000       0.016072
      772.520000       0.016133
      772.560000       0.016194
      772.600000       0.016253
      772.640000       0.016311
      772.680000       0.016369
      772.720000       0.016426
      772.760000       0.016482
      772.800000       0.016537
      772.840000       0.016591
      772.880000       0.016644
      772.920000       0.016697
      772.960000       0.016749
      773.000000       0.016800
      773.040000       0.016850
      773.080000       0.016900
      773.120000       0.016948
      773.160000       0.016996
      773.200000       0.017044
      773.240000       0.017090
      773.280000       0.017136
      773.320000       0.017181
      773.360000       0.017226
      773.400000       0.017269
      773.440000       0.017312
      773.480000       0.017355
      773.520000       0.017396
      773.560000       0.017438
      773.600000       0.017478
      773.640000       0.017518
      773.680000       0.017558
      773.720000       0.017597
      773.760000       0.017635
      773.800000       0.017673
      773.840000       0.017711
      773.880000       0.017748
      773.920000       0.017784
      773.960000       0.017820
      774.000000       0.017856
      774.040000       0.017891
      774.080000       0.017926
      774.120000       0.017961
      774.160000       0.017995
      774.200000       0.018029
      774.240000       0.018063
      774.280000       0.018096
      774.320000       0.018129
      774.360000       0.018162
      774.400000       0.018195
      774.440000       0.018228
      774.480000       0.018264
      774.520000       0.018318
      774.560000       0.018373
      774.600000       0.018428
      774.640000       0.018483
      774.680000       0.018538
      774.720000       0.018594
      774.760000       0.018649
      774.800000       0.018705
      774.840000       0.018761
      774.880000       0.018817
      774.920000       0.018873
      774.960000       0.018930
      775.000000       0.018986
      775.040000       0.019043
      775.080000       0.019100
      775.120000       0.019157
      775.160000       0.019214
      775.200000       0.019272
      775.240000       0.019329
      775.280000       0.019392
      775.320000       0.019458
      775.360000       0.019524
      775.400000       0.019590
      775.440000       0.019657
      775.480000       0.019723
      775.520000       0.019790
      775.560000       0.019856
      775.600000       0.019923
      775.640000       0.019990
      775.680000       0.020057
      775.720000       0.020124
      775.760000       0.020192
      775.800000       0.020259
      775.840000       0.020326
      775.880000       0.020394
      775.920000       0.020461
      775.960000       0.020529
      776.000000       0.020596
      776.040000       0.020664
      776.080000       0.020731
      776.120000       0.020798
      776.160000       0.020866
      776.200000       0.020933
      776.240000       0.021000
      776.280000       0.021068
      776.320000       0.021135
      776.360000       0.021202
      776.400000       0.021269
      776.440000       0.021336
      776.480000       0.021403
      776.520000       0.021469
      776.560000       0.021535
      776.600000       0.021602
      776.640000       0.021668
      776.680000       0.021733
      776.720000       0.021799
      776.760000       0.021864
      776.800000       0.021929
      776.840000       0.021994
      776.880000       0.022059
      776.920000       0.022123
      776.960000       0.022187
      777.000000       0.022250
      777.040000       0.022313
      777.080000       0.022376
      777.120000       0.022438
      777.160000       0.022500
      777.200000       0.022561
      777.240000       0.022622
      777.280000       0.022682
      777.320000       0.022742
      777.360000       0.022801
      777.400000       0.022840
      777.440000       0.022876
      777.480000       0.022911
      777.520000       0.022946
      777.560000       0.022979
      777.600000       0.023012
      777.640000       0.023044
      777.680000       0.023075
      777.720000       0.023105
      777.760000       0.023134
      777.800000       0.023162
      777.840000       0.023190
      777.880000       0.023217
      777.920000       0.023243
      777.960000       0.023268
      778.000000       0.023292
      778.040000       0.023316
      778.080000       0.023339
      778.120000       0.023361
      778.160000       0.023382
      778.200000       0.023403
      778.240000       0.023423
      778.280000       0.023442
      778.320000       0.023460
      778.360000       0.023478
      778.400000       0.023495
      778.440000       0.023512
      778.480000       0.023528
      778.520000       0.023543
      778.560000       0.023557
      778.600000       0.023571
      778.640000       0.023585
      778.680000       0.023597
      778.720000       0.023610
      778.760000       0.023621
      778.800000       0.023632
      778.840000       0.023643
      778.880000       0.023653
      778.920000       0.023663
      778.960000       0.023672
      779.000000       0.023681
      779.040000       0.023689
      779.080000       0.023697
      779.120000       0.023704
      779.160000       0.023711
      779.200000       0.023718
      779.240000       0.023724
      779.280000       0.023731
      779.320000       0.023737
      779.360000       0.023742
      779.400000       0.023748
      779.440000       0.023753
      779.480000       0.023758
      779.520000       0.023762
      779.560000       0.023767
      779.600000       0.023772
      779.640000       0.023776
      779.680000       0.023780
      779.720000       0.023785
      779.760000       0.023789
      779.800000       0.023793
      779.840000       0.023798
      779.880000       0.023802
      779.920000       0.023807
      779.960000       0.023811
      780.000000       0.023816
      780.040000       0.023821
      780.080000       0.023826
      780.120000       0.023832
      780.160000       0.023838
      780.200000       0.023844
      780.240000       0.023850
      780.280000       0.023859
      780.320000       0.023883
      780.360000       0.023908
      780.400000       0.023934
      780.440000       0.023960
      780.480000       0.023987
      780.520000       0.024015
      780.560000       0.024043
      780.600000       0.024072
      780.640000       0.024102
      780.680000       0.024133
      780.720000       0.024164
      780.760000       0.024196
      780.800000       0.024229
      780.840000       0.024263
      780.880000       0.024298
      780.920000       0.024333
      780.960000       0.024369
      781.000000       0.024406
      781.040000       0.024444
      781.080000       0.024483
      781.120000       0.024522
      781.160000       0.024563
      781.200000       0.024604
      781.240000       0.024646
      781.280000       0.024689
      781.320000       0.024733
      781.360000       0.024778
      781.400000       0.024820
      781.440000       0.024860
      781.480000       0.024902
      781.520000       0.024945
      781.560000       0.024988
      781.600000       0.025033
      781.640000       0.025078
      781.680000       0.025125
      781.720000       0.025172
      781.760000       0.025221
      781.800000       0.025270
      781.840000       0.025320
      781.880000       0.025372
      781.920000       0.025424
      781.960000       0.025478
      782.000000       0.025532
      782.040000       0.025588
      782.080000       0.025644
      782.120000       0.025702
      782.160000       0.025760
      782.200000       0.025820
      782.240000       0.025881
      782.280000       0.025943
      782.320000       0.026006
      782.360000       0.026070
      782.400000       0.026135
      782.440000       0.026201
      782.480000       0.026268
      782.520000       0.026337
      782.560000       0.026406
      782.600000       0.026477
      782.640000       0.026549
      782.680000       0.026622
      782.720000       0.026696
      782.760000       0.026771
      782.800000       0.026847
      782.840000       0.026925
      782.880000       0.027003
      782.920000       0.027083
      782.960000       0.027164
      783.000000       0.027245
      783.040000       0.027329
      783.080000       0.027413
      783.120000       0.027498
      783.160000       0.027585
      783.200000       0.027673
      783.240000       0.027763
      783.280000       0.027855
      783.320000       0.027948
      783.360000       0.028042
      783.400000       0.028138
      783.440000       0.028234
      783.480000       0.028332
      783.520000       0.028431
      783.560000       0.028531
      783.600000       0.028633
      783.640000       0.028736
      783.680000       0.028839
      783.720000       0.028944
      783.760000       0.029050
      783.800000       0.029158
      783.840000       0.029266
      783.880000       0.029376
      783.920000       0.029487
      783.960000       0.029599
      784.000000       0.029712
      784.040000       0.029826
      784.080000       0.029942
      784.120000       0.030058
      784.160000       0.030176
      784.200000       0.030295
      784.240000       0.030415
      784.280000       0.030536
      784.320000       0.030659
      784.360000       0.030782
      784.400000       0.030907
      784.440000       0.031032
      784.480000       0.031159
      784.520000       0.031287
      784.560000       0.031416
      784.600000       0.031546
      784.640000       0.031677
      784.680000       0.031810
      784.720000       0.031943
      784.760000       0.032078
      784.800000       0.032213
      784.840000       0.032350
      784.880000       0.032487
      784.920000       0.032626
      784.960000       0.032765
      785.000000       0.032906
      785.040000       0.033048
      785.080000       0.033190
      785.120000       0.033334
      785.160000       0.033479
      785.200000       0.033625
      785.240000       0.033772
      785.280000       0.033919
      785.320000       0.034068
      785.360000       0.034217
      785.400000       0.034368
      785.440000       0.034519
      785.480000       0.034672
      785.520000       0.034825
      785.560000       0.034979
      785.600000       0.035134
      785.640000       0.035290
      785.680000       0.035447
      785.720000       0.035604
      785.760000       0.035763
      785.800000       0.035922
      785.840000       0.036082
      785.880000       0.036243
      785.920000       0.036405
      785.960000       0.036567
      786.000000       0.036731
      786.040000       0.036895
      786.080000       0.037060
      786.120000       0.037226
      786.160000       0.037391
      786.200000       0.037551
      786.240000       0.037710
      786.280000       0.037869
      786.320000       0.038030
      786.360000       0.038190
      786.400000       0.038352
      786.440000       0.038514
      786.480000       0.038676
      786.520000       0.038839
      786.560000       0.039003
      786.600000       0.039167
      786.640000       0.039332
      786.680000       0.039497
      786.720000       0.039663
      786.760000       0.039829
      786.800000       0.039996
      786.840000       0.040164
      786.880000       0.040332
      786.920000       0.040500
      786.960000       0.040669
      787.000000       0.040839
      787.040000       0.041009
      787.080000       0.041180
      787.120000       0.041351
      787.160000       0.041523
      787.200000       0.041695
      787.240000       0.041868
      787.280000       0.042041
      787.320000       0.042215
      787.360000       0.042389
      787.400000       0.042564
      787.440000       0.042739
      787.480000       0.042915
      787.520000       0.043091
      787.560000       0.043272
      787.600000       0.043454
      787.640000       0.043636
      787.680000       0.043819
      787.720000       0.044002
      787.760000       0.044186
      787.800000       0.044371
      787.840000       0.044556
      787.880000       0.044742
      787.920000       0.044928
      787.960000       0.045115
      788.000000       0.045302
      788.040000       0.045489
      788.080000       0.045678
      788.120000       0.045866
      788.160000       0.046055
      788.200000       0.046245
      788.240000       0.046435
      788.280000       0.046626
      788.320000       0.046818
      788.360000       0.047009
      788.400000       0.047202
      788.440000       0.047395
      788.480000       0.047588
      788.520000       0.047782
      788.560000       0.047977
      788.600000       0.048172
      788.640000       0.048367
      788.680000       0.048563
      788.720000       0.048760
      788.760000       0.048957
      788.800000       0.049154
      788.840000       0.049353
      788.880000       0.049551
      788.920000       0.049750
      788.960000       0.049950
      789.000000       0.050150
      789.040000       0.050351
      789.080000       0.050552
      789.120000       0.050754
      789.160000       0.050957
      789.200000       0.051161
      789.240000       0.051365
      789.280000       0.051569
      789.320000       0.051775
      789.360000       0.051980
      789.400000       0.052187
      789.440000       0.052393
      789.480000       0.052601
      789.520000       0.052809
      789.560000       0.053017
      789.600000       0.053226
      789.640000       0.053436
      789.680000       0.053646
      789.720000       0.053857
      789.760000       0.054068
      789.800000       0.054280
      789.840000       0.054492
      789.880000       0.054705
      789.920000       0.054919
      789.960000       0.055133
      790.000000       0.055347
      790.040000       0.055563
      790.080000       0.055778
      790.120000       0.055994
      790.160000       0.056211
      790.200000       0.056429
      790.240000       0.056647
      790.280000       0.056865
      790.320000       0.057085
      790.360000       0.057304
      790.400000       0.057524
      790.440000       0.057745
      790.480000       0.057967
      790.520000       0.058189
      790.560000       0.058411
      790.600000       0.058635
      790.640000       0.058859
      790.680000       0.059083
      790.720000       0.059308
      790.760000       0.059533
      790.800000       0.059760
      790.840000       0.059987
      790.880000       0.060214
      790.920000       0.060442
      790.960000       0.060670
      791.000000       0.060899
      791.040000       0.061129
      791.080000       0.061359
      791.120000       0.061591
      791.160000       0.061822
      791.200000       0.062055
      791.240000       0.062287
      791.280000       0.062521
      791.320000       0.062755
      791.360000       0.062990
      791.400000       0.063226
      791.440000       0.063462
      791.480000       0.063699
      791.520000       0.063936
      791.560000       0.064173
      791.600000       0.064412
      791.640000       0.064652
      791.680000       0.064892
      791.720000       0.065132
      791.760000       0.065374
      791.800000       0.065615
      791.840000       0.065858
      791.880000       0.066101
      791.920000       0.066346
      791.960000       0.066590
      792.000000       0.066836
      792.040000       0.067082
      792.080000       0.067328
      792.120000       0.067576
      792.160000       0.067824
      792.200000       0.068073
      792.240000       0.068322
      792.280000       0.068572
      792.320000       0.068823
      792.360000       0.069074
      792.400000       0.069326
      792.440000       0.069579
      792.480000       0.069833
      792.520000       0.070087
      792.560000       0.070342
      792.600000       0.070598
      792.640000       0.070854
      792.680000       0.071112
      792.720000       0.071370
      792.760000       0.071629
      792.800000       0.071889
      792.840000       0.072149
      792.880000       0.072410
      792.920000       0.072672
      792.960000       0.072935
      793.000000       0.073198
      793.040000       0.073462
      793.080000       0.073728
      793.120000       0.073994
      793.160000       0.074260
      793.200000       0.074528
      793.240000       0.074797
      793.280000       0.075065
      793.320000       0.075336
      793.360000       0.075607
      793.400000       0.075879
      793.440000       0.076151
      793.480000       0.076424
      793.520000       0.076699
      793.560000       0.076975
      793.600000       0.077250
      793.640000       0.077527
      793.680000       0.077806
      793.720000       0.078084
      793.760000       0.078364
      793.800000       0.078645
      793.840000       0.078926
      793.880000       0.079241
      793.920000       0.079557
      793.960000       0.079873
      794.000000       0.080191
      794.040000       0.080510
      794.080000       0.080830
      794.120000       0.081153
      794.160000       0.081475
      794.200000       0.081798
      794.240000       0.082124
      794.280000       0.082450
      794.320000       0.082778
      794.360000       0.083106
      794.400000       0.083436
      794.440000       0.083768
      794.480000       0.084100
      794.520000       0.084434
      794.560000       0.084769
      794.600000       0.085105
      794.640000       0.085443
      794.680000       0.085782
      794.720000       0.086122
      794.760000       0.086463
      794.800000       0.086806
      794.840000       0.087151
      794.880000       0.087496
      794.920000       0.087843
      794.960000       0.088191
      795.000000       0.088541
      795.040000       0.088892
      795.080000       0.089244
      795.120000       0.089598
      795.160000       0.089953
      795.200000       0.090308
      795.240000       0.090664
      795.280000       0.091022
      795.320000       0.091382
      795.360000       0.091743
      795.400000       0.092105
      795.440000       0.092468
      795.480000       0.092833
      795.520000       0.093200
      795.560000       0.093568
      795.600000       0.093938
      795.640000       0.094309
      795.680000       0.094681
      795.720000       0.095056
      795.760000       0.095432
      795.800000       0.095809
      795.840000       0.096188
      795.880000       0.096568
      795.920000       0.096951
      795.960000       0.097334
      796.000000       0.097720
      796.040000       0.098107
      796.080000       0.098496
      796.120000       0.098885
      796.160000       0.099277
      796.200000       0.099671
      796.240000       0.100067
      796.280000       0.100464
      796.320000       0.100863
      796.360000       0.101264
      796.400000       0.101666
      796.440000       0.102070
      796.480000       0.102476
      796.520000       0.102884
      796.560000       0.103294
      796.600000       0.103705
      796.640000       0.104119
      796.680000       0.104534
      796.720000       0.104951
      796.760000       0.105370
      796.800000       0.105791
      796.840000       0.106214
      796.880000       0.106638
      796.920000       0.107066
      796.960000       0.107495
      797.000000       0.107925
      797.040000       0.108358
      797.080000       0.108793
      797.120000       0.109230
      797.160000       0.109669
      797.200000       0.110109
      797.240000       0.110553
      797.280000       0.110998
      797.320000       0.111445
      797.360000       0.111895
      797.400000       0.112346
      797.440000       0.112800
      797.480000       0.113256
      797.520000       0.113714
      797.560000       0.114175
      797.600000       0.114638
      797.640000       0.115102
      797.680000       0.115569
      797.720000       0.116040
      797.760000       0.116511
      797.800000       0.116986
      797.840000       0.117462
      797.880000       0.117940
      797.920000       0.118422
      797.960000       0.118906
      798.000000       0.119392
      798.040000       0.119881
      798.080000       0.120371
      798.120000       0.120865
      798.160000       0.121362
      798.200000       0.121860
      798.240000       0.122358
      798.280000       0.122857
      798.320000       0.123357
      798.360000       0.123862
      798.400000       0.124368
      798.440000       0.124876
      798.480000       0.125388
      798.520000       0.125902
      798.560000       0.126419
      798.600000       0.126939
      798.640000       0.127460
      798.680000       0.127986
      798.720000       0.128512
      798.760000       0.129044
      798.800000       0.129578
      798.840000       0.130113
      798.880000       0.130652
      798.920000       0.131195
      798.960000       0.131740
      799.000000       0.132288
      799.040000       0.132840
      799.080000       0.133393
      799.120000       0.133951
      799.160000       0.134511
      799.200000       0.135075
      799.240000       0.135642
      799.280000       0.136211
      799.320000       0.136784
      799.360000       0.137361
      799.400000       0.137940
      799.440000       0.138523
      799.480000       0.139110
      799.520000       0.139700
      799.560000       0.140293
      799.600000       0.140889
      799.640000       0.141490
      799.680000       0.142093
      799.720000       0.142701
      799.760000       0.143312
      799.800000       0.143926
      799.840000       0.144545
      799.880000       0.145167
      799.920000       0.145792
      799.960000       0.146422
      800.000000       0.147055
      800.040000       0.147692
      800.080000       0.148333
      800.120000       0.148979
      800.160000       0.149627
      800.200000       0.150268
      800.240000       0.150860
      800.280000       0.151455
      800.320000       0.152056
      800.360000       0.152659
      800.400000       0.153265
      800.440000       0.153877
      800.480000       0.154491
      800.520000       0.155109
      800.560000       0.155731
      800.600000       0.156357
      800.640000       0.156987
      800.680000       0.157621
      800.720000       0.158259
      800.760000       0.158900
      800.800000       0.159545
      800.840000       0.160195
      800.880000       0.160850
      800.920000       0.161508
      800.960000       0.162171
      801.000000       0.162837
      801.040000       0.163508
      801.080000       0.164182
      801.120000       0.164863
      801.160000       0.165546
      801.200000       0.166235
      801.240000       0.166927
      801.280000       0.167624
      801.320000       0.168364
      801.360000       0.169110
      801.400000       0.169860
      801.440000       0.170616
      801.480000       0.171377
      801.520000       0.172144
      801.560000       0.172915
      801.600000       0.173690
      801.640000       0.174473
      801.680000       0.175257
      801.720000       0.176049
      801.760000       0.176845
      801.800000       0.177647
      801.840000       0.178454
      801.880000       0.179264
      801.920000       0.180080
      801.960000       0.180902
      802.000000       0.181727
      802.040000       0.182557
      802.080000       0.183394
      802.120000       0.184234
      802.160000       0.185081
      802.200000       0.185931
      802.240000       0.186786
      802.280000       0.187648
      802.320000       0.188513
      802.360000       0.189382
      802.400000       0.190257
      802.440000       0.191136
      802.480000       0.192021
      802.520000       0.192912
      802.560000       0.193803
      802.600000       0.194702
      802.640000       0.195605
      802.680000       0.196513
      802.720000       0.197426
      802.760000       0.198343
      802.800000       0.199263
      802.840000       0.200190
      802.880000       0.201119
      802.920000       0.202055
      802.960000       0.202995
      803.000000       0.203938
      803.040000       0.204887
      803.080000       0.205839
      803.120000       0.206794
      803.160000       0.207757
      803.200000       0.208721
      803.240000       0.209690
      803.280000       0.210666
      803.320000       0.211643
      803.360000       0.212624
      803.400000       0.213610
      803.440000       0.214600
      803.480000       0.215594
      803.520000       0.216591
      803.560000       0.217593
      803.600000       0.218599
      803.640000       0.219606
      803.680000       0.220619
      803.720000       0.221637
      803.760000       0.222658
      803.800000       0.223682
      803.840000       0.224708
      803.880000       0.225740
      803.920000       0.226774
      803.960000       0.227813
      804.000000       0.228853
      804.040000       0.229899
      804.080000       0.230946
      804.120000       0.231996
      804.160000       0.233052
      804.200000       0.234109
      804.240000       0.235169
      804.280000       0.236231
      804.320000       0.237297
      804.360000       0.238369
      804.400000       0.239404
      804.440000       0.240415
      804.480000       0.241432
      804.520000       0.242447
      804.560000       0.243467
      804.600000       0.244489
      804.640000       0.245512
      804.680000       0.246538
      804.720000       0.247564
      804.760000       0.248594
      804.800000       0.249627
      804.840000       0.250659
      804.880000       0.251696
      804.920000       0.252732
      804.960000       0.253771
      805.000000       0.254815
      805.040000       0.255858
      805.080000       0.256903
      805.120000       0.257953
      805.160000       0.259004
      805.200000       0.260056
      805.240000       0.261113
      805.280000       0.262168
      805.320000       0.263229
      805.360000       0.264291
      805.400000       0.265353
      805.440000       0.266422
      805.480000       0.267491
      805.520000       0.268560
      805.560000       0.269633
      805.600000       0.270710
      805.640000       0.271789
      805.680000       0.272870
      805.720000       0.273952
      805.760000       0.275039
      805.800000       0.276126
      805.840000       0.277218
      805.880000       0.278310
      805.920000       0.279407
      805.960000       0.280505
      806.000000       0.281608
      806.040000       0.282712
      806.080000       0.283818
      806.120000       0.284927
      806.160000       0.286039
      806.200000       0.287157
      806.240000       0.288275
      806.280000       0.289396
      806.320000       0.290520
      806.360000       0.291647
      806.400000       0.292778
      806.440000       0.293912
      806.480000       0.295046
      806.520000       0.296186
      806.560000       0.297330
      806.600000       0.298477
      806.640000       0.299627
      806.680000       0.300829
      806.720000       0.302047
      806.760000       0.303266
      806.800000       0.304493
      806.840000       0.305720
      806.880000       0.306955
      806.920000       0.308191
      806.960000       0.309434
      807.000000       0.310679
      807.040000       0.311928
      807.080000       0.313181
      807.120000       0.314442
      807.160000       0.315705
      807.200000       0.316972
      807.240000       0.318244
      807.280000       0.319520
      807.320000       0.320802
      807.360000       0.322088
      807.400000       0.323379
      807.440000       0.324675
      807.480000       0.325974
      807.520000       0.327334
      807.560000       0.328729
      807.600000       0.330130
      807.640000       0.331535
      807.680000       0.332948
      807.720000       0.334364
      807.760000       0.335790
      807.800000       0.337219
      807.840000       0.338657
      807.880000       0.340101
      807.920000       0.341548
      807.960000       0.343000
      808.000000       0.344462
      808.040000       0.345924
      808.080000       0.347398
      808.120000       0.348874
      808.160000       0.350357
      808.200000       0.351845
      808.240000       0.353339
      808.280000       0.354838
      808.320000       0.356344
      808.360000       0.357855
      808.400000       0.359371
      808.440000       0.360893
      808.480000       0.362418
      808.520000       0.363951
      808.560000       0.365490
      808.600000       0.367033
      808.640000       0.368579
      808.680000       0.370134
      808.720000       0.371690
      808.760000       0.373255
      808.800000       0.374822
      808.840000       0.376397
      808.880000       0.377974
      808.920000       0.379556
      808.960000       0.381146
      809.000000       0.382737
      809.040000       0.384333
      809.080000       0.385934
      809.120000       0.387539
      809.160000       0.389149
      809.200000       0.390767
      809.240000       0.392383
      809.280000       0.394010
      809.320000       0.395633
      809.360000       0.397265
      809.400000       0.398901
      809.440000       0.400541
      809.480000       0.402185
      809.520000       0.403833
      809.560000       0.405480
      809.600000       0.407136
      809.640000       0.408791
      809.680000       0.410454
      809.720000       0.412116
      809.760000       0.413786
      809.800000       0.415455
      809.840000       0.417131
      809.880000       0.418806
      809.920000       0.420484
      809.960000       0.422170
      810.000000       0.423854
      810.040000       0.425541
      810.080000       0.427230
      810.120000       0.428922
      810.160000       0.430617
      810.200000       0.432314
      810.240000       0.434013
      810.280000       0.435715
      810.320000       0.437418
      810.360000       0.439123
      810.400000       0.440830
      810.440000       0.442535
      810.480000       0.444246
      810.520000       0.445958
      810.560000       0.447667
      810.600000       0.449382
      810.640000       0.451084
      810.680000       0.452710
      810.720000       0.454336
      810.760000       0.455958
      810.800000       0.457579
      810.840000       0.459204
      810.880000       0.460825
      810.920000       0.462446
      810.960000       0.464067
      811.000000       0.465690
      811.040000       0.467310
      811.080000       0.468929
      811.120000       0.470548
      811.160000       0.472166
      811.200000       0.473784
      811.240000       0.475401
      811.280000       0.477018
      811.320000       0.478634
      811.360000       0.480250
      811.400000       0.481861
      811.440000       0.483476
      811.480000       0.485090
      811.520000       0.486699
      811.560000       0.488312
      811.600000       0.489924
      811.640000       0.491532
      811.680000       0.493142
      811.720000       0.494749
      811.760000       0.496358
      811.800000       0.497963
      811.840000       0.499567
      811.880000       0.501174
      811.920000       0.502777
      811.960000       0.504380
      812.000000       0.505981
      812.040000       0.507585
      812.080000       0.509182
      812.120000       0.510785
      812.160000       0.512380
      812.200000       0.513978
      812.240000       0.515579
      812.280000       0.517172
      812.320000       0.518768
      812.360000       0.520363
      812.400000       0.521958
      812.440000       0.523548
      812.480000       0.525141
      812.520000       0.526734
      812.560000       0.528322
      812.600000       0.529913
      812.640000       0.531500
      812.680000       0.533090
      812.720000       0.534676
      812.760000       0.536265
      812.800000       0.537850
      812.840000       0.539434
      812.880000       0.541022
      812.920000       0.542605
      812.960000       0.544188
      813.000000       0.545770
      813.040000       0.547352
      813.080000       0.548934
      813.120000       0.550518
      813.160000       0.552095
      813.200000       0.553676
      813.240000       0.555256
      813.280000       0.556831
      813.320000       0.558384
      813.360000       0.559937
      813.400000       0.561487
      813.440000       0.563039
      813.480000       0.564591
      813.520000       0.566140
      813.560000       0.567691
      813.600000       0.569239
      813.640000       0.570791
      813.680000       0.572342
      813.720000       0.573890
      813.760000       0.575438
      813.800000       0.576986
      813.840000       0.578594
      813.880000       0.580203
      813.920000       0.581816
      813.960000       0.583425
      814.000000       0.585036
      814.040000       0.586652
      814.080000       0.588263
      814.120000       0.589875
      814.160000       0.591492
      814.200000       0.593106
      814.240000       0.594720
      814.280000       0.596338
      814.320000       0.597953
      814.360000       0.599569
      814.400000       0.601185
      814.440000       0.602806
      814.480000       0.604421
      814.520000       0.606039
      814.560000       0.607660
      814.600000       0.609279
      814.640000       0.610897
      814.680000       0.612518
      814.720000       0.614138
      814.760000       0.615758
      814.800000       0.617380
      814.840000       0.619000
      814.880000       0.620620
      814.920000       0.622242
      814.960000       0.623863
      815.000000       0.625483
      815.040000       0.627106
      815.080000       0.628727
      815.120000       0.630346
      815.160000       0.631965
      815.200000       0.633591
      815.240000       0.635210
      815.280000       0.636830
      815.320000       0.638453
      815.360000       0.640072
      815.400000       0.641690
      815.440000       0.643312
      815.480000       0.644931
      815.520000       0.646548
      815.560000       0.648170
      815.600000       0.649787
      815.640000       0.651405
      815.680000       0.653024
      815.720000       0.654639
      815.760000       0.656254
      815.800000       0.657872
      815.840000       0.659486
      815.880000       0.661100
      815.920000       0.662716
      815.960000       0.664326
      816.000000       0.665938
      816.040000       0.667547
      816.080000       0.669160
      816.120000       0.670768
      816.160000       0.672376
      816.200000       0.673985
      816.240000       0.675590
      816.280000       0.677193
      816.320000       0.678800
      816.360000       0.680401
      816.400000       0.682002
      816.440000       0.683602
      816.480000       0.685200
      816.520000       0.686795
      816.560000       0.688394
      816.600000       0.689986
      816.640000       0.691579
      816.680000       0.693172
      816.720000       0.694759
      816.760000       0.696346
      816.800000       0.697930
      816.840000       0.699517
      816.880000       0.701098
      816.920000       0.702677
      816.960000       0.704257
      817.000000       0.705831
      817.040000       0.707398
      817.080000       0.708968
      817.120000       0.710530
      817.160000       0.712092
      817.200000       0.713654
      817.240000       0.715209
      817.280000       0.716763
      817.320000       0.718317
      817.360000       0.719866
      817.400000       0.721412
      817.440000       0.722957
      817.480000       0.724498
      817.520000       0.726034
      817.560000       0.727573
      817.600000       0.729104
      817.640000       0.730634
      817.680000       0.732159
      817.720000       0.733685
      817.760000       0.735204
      817.800000       0.736720
      817.840000       0.738237
      817.880000       0.739747
      817.920000       0.741253
      817.960000       0.742759
      818.000000       0.744259
      818.040000       0.745754
      818.080000       0.747250
      818.120000       0.748738
      818.160000       0.750222
      818.200000       0.751708
      818.240000       0.753184
      818.280000       0.754658
      818.320000       0.756130
      818.360000       0.757595
      818.400000       0.759055
      818.440000       0.760512
      818.480000       0.761968
      818.520000       0.763416
      818.560000       0.764861
      818.600000       0.766302
      818.640000       0.767739
      818.680000       0.769168
      818.720000       0.770597
      818.760000       0.772018
      818.800000       0.773434
      818.840000       0.774849
      818.880000       0.776255
      818.920000       0.777657
      818.960000       0.779055
      819.000000       0.780447
      819.040000       0.781832
      819.080000       0.783217
      819.120000       0.784592
      819.160000       0.785963
      819.200000       0.787327
      819.240000       0.788689
      819.280000       0.790043
      819.320000       0.791390
      819.360000       0.792735
      819.400000       0.794072
      819.440000       0.795401
      819.480000       0.796728
      819.520000       0.798047
      819.560000       0.799358
      819.600000       0.800666
      819.640000       0.801967
      819.680000       0.803259
      819.720000       0.804548
      819.760000       0.805829
      819.800000       0.807102
      819.840000       0.808372
      819.880000       0.809632
      819.920000       0.810885
      819.960000       0.812093
      820.000000       0.813243
      820.040000       0.814387
      820.080000       0.815523
      820.120000       0.816655
      820.160000       0.817775
      820.200000       0.818889
      820.240000       0.819917
      820.280000       0.820908
      820.320000       0.821890
      820.360000       0.822865
      820.400000       0.823829
      820.440000       0.824784
      820.480000       0.825732
      820.520000       0.826669
      820.560000       0.827598
      820.600000       0.828519
      820.640000       0.829430
      820.680000       0.830332
      820.720000       0.831227
      820.760000       0.832112
      820.800000       0.832988
      820.840000       0.833856
      820.880000       0.834716
      820.920000       0.835567
      820.960000       0.836409
      821.000000       0.837245
      821.040000       0.838071
      821.080000       0.838887
      821.120000       0.839698
      821.160000       0.840499
      821.200000       0.841292
      821.240000       0.842079
      821.280000       0.842856
      821.320000       0.843625
      821.360000       0.844388
      821.400000       0.845142
      821.440000       0.845888
      821.480000       0.846629
      821.520000       0.847359
      821.560000       0.848083
      821.600000       0.848801
      821.640000       0.849511
      821.680000       0.850213
      821.720000       0.850908
      821.760000       0.851597
      821.800000       0.852278
      821.840000       0.852953
      821.880000       0.853623
      821.920000       0.854284
      821.960000       0.854940
      822.000000       0.855589
      822.040000       0.856232
      822.080000       0.856869
      822.120000       0.857500
      822.160000       0.858124
      822.200000       0.858743
      822.240000       0.859357
      822.280000       0.859965
      822.320000       0.860567
      822.360000       0.861165
      822.400000       0.861757
      822.440000       0.862344
      822.480000       0.862925
      822.520000       0.863503
      822.560000       0.864076
      822.600000       0.864643
      822.640000       0.865208
      822.680000       0.865767
      822.720000       0.866322
      822.760000       0.866874
      822.800000       0.867421
      822.840000       0.867965
      822.880000       0.868506
      822.920000       0.869043
      822.960000       0.869576
      823.000000       0.870108
      823.040000       0.870635
      823.080000       0.871160
      823.120000       0.871683
      823.160000       0.872203
      823.200000       0.872721
      823.240000       0.873237
      823.280000       0.873751
      823.320000       0.874263
      823.360000       0.874773
      823.400000       0.875283
      823.440000       0.875790
      823.480000       0.876427
      823.520000       0.877122
      823.560000       0.877816
      823.600000       0.878512
      823.640000       0.879210
      823.680000       0.879908
      823.720000       0.880608
      823.760000       0.881310
      823.800000       0.882012
      823.840000       0.882717
      823.880000       0.883423
      823.920000       0.884129
      823.960000       0.884836
      824.000000       0.885547
      824.040000       0.886257
      824.080000       0.886968
      824.120000       0.887681
      824.160000       0.888396
      824.200000       0.889112
      824.240000       0.889828
      824.280000       0.890546
      824.320000       0.891265
      824.360000       0.891984
      824.400000       0.892706
      824.440000       0.893428
      824.480000       0.894150
      824.520000       0.894876
      824.560000       0.895599
      824.600000       0.896325
      824.640000       0.897052
      824.680000       0.897779
      824.720000       0.898506
      824.760000       0.899236
      824.800000       0.899965
      824.840000       0.900694
      824.880000       0.901423
      824.920000       0.902155
      824.960000       0.902885
      825.000000       0.903616
      825.040000       0.904348
      825.080000       0.905079
      825.120000       0.905810
      825.160000       0.906542
      825.200000       0.907273
      825.240000       0.908004
      825.280000       0.908736
      825.320000       0.909466
      825.360000       0.910196
      825.400000       0.910927
      825.440000       0.911655
      825.480000       0.912383
      825.520000       0.913112
      825.560000       0.913839
      825.600000       0.914564
      825.640000       0.915290
      825.680000       0.916013
      825.720000       0.916735
      825.760000       0.917455
      825.800000       0.918176
      825.840000       0.918893
      825.880000       0.919610
      825.920000       0.920325
      825.960000       0.921037
      826.000000       0.921747
      826.040000       0.922456
      826.080000       0.923162
      826.120000       0.923865
      826.160000       0.924567
      826.200000       0.925265
      826.240000       0.925960
      826.280000       0.926654
      826.320000       0.927343
      826.360000       0.928029
      826.400000       0.928713
      826.440000       0.929393
      826.480000       0.930068
      826.520000       0.930740
      826.560000       0.931409
      826.600000       0.932073
      826.640000       0.932733
      826.680000       0.933389
      826.720000       0.934038
      826.760000       0.934508
      826.800000       0.934958
      826.840000       0.935371
      826.880000       0.935776
      826.920000       0.936176
      826.960000       0.936568
      827.000000       0.936953
      827.040000       0.937331
      827.080000       0.937703
      827.120000       0.938067
      827.160000       0.938426
      827.200000       0.938777
      827.240000       0.939121
      827.280000       0.939460
      827.320000       0.939790
      827.360000       0.940115
      827.400000       0.940432
      827.440000       0.940744
      827.480000       0.941048
      827.520000       0.941346
      827.560000       0.941638
      827.600000       0.941922
      827.640000       0.942201
      827.680000       0.942474
      827.720000       0.942739
      827.760000       0.942998
      827.800000       0.943252
      827.840000       0.943498
      827.880000       0.943739
      827.920000       0.943974
      827.960000       0.944202
      828.000000       0.944425
      828.040000       0.944641
      828.080000       0.944852
      828.120000       0.945056
      828.160000       0.945255
      828.200000       0.945448
      828.240000       0.945635
      828.280000       0.945817
      828.320000       0.945993
      828.360000       0.946164
      828.400000       0.946329
      828.440000       0.946489
      828.480000       0.946644
      828.520000       0.946793
      828.560000       0.946938
      828.600000       0.947077
      828.640000       0.947211
      828.680000       0.947341
      828.720000       0.947465
      828.760000       0.947585
      828.800000       0.947700
      828.840000       0.947811
      828.880000       0.947917
      828.920000       0.948019
      828.960000       0.948117
      829.000000       0.948210
      829.040000       0.948299
      829.080000       0.948385
      829.120000       0.948466
      829.160000       0.948544
      829.200000       0.948618
      829.240000       0.948688
      829.280000       0.948755
      829.320000       0.948819
      829.360000       0.948879
      829.400000       0.948936
      829.440000       0.948990
      829.480000       0.949042
      829.520000       0.949090
      829.560000       0.949136
      829.600000       0.949179
      829.640000       0.949220
      829.680000       0.949258
      829.720000       0.949295
      829.760000       0.949329
      829.800000       0.949361
      829.840000       0.949392
      829.880000       0.949421
      829.920000       0.949448
      829.960000       0.949474
      830.000000       0.949498
      830.040000       0.949601
      830.080000       0.949744
      830.120000       0.949887
      830.160000       0.950031
      830.200000       0.950175
      830.240000       0.950319
      830.280000       0.950465
      830.320000       0.950610
      830.360000       0.950756
      830.400000       0.950903
      830.440000       0.951051
      830.480000       0.951199
      830.520000       0.951348
      830.560000       0.951498
      830.600000       0.951648
      830.640000       0.951800
      830.680000       0.951952
      830.720000       0.952105
      830.760000       0.952258
      830.800000       0.952413
      830.840000       0.952568
      830.880000       0.952725
      830.920000       0.952882
      830.960000       0.953040
      831.000000       0.953199
      831.040000       0.953359
      831.080000       0.953521
      831.120000       0.953683
      831.160000       0.953846
      831.200000       0.954010
      831.240000       0.954175
      831.280000       0.954341
      831.320000       0.954509
      831.360000       0.954677
      831.400000       0.954846
      831.440000       0.955017
      831.480000       0.955189
      831.520000       0.955361
      831.560000       0.955535
      831.600000       0.955710
      831.640000       0.955886
      831.680000       0.956062
      831.720000       0.956241
      831.760000       0.956420
      831.800000       0.956600
      831.840000       0.956782
      831.880000       0.956964
      831.920000       0.957148
      831.960000       0.957333
      832.000000       0.957519
      832.040000       0.957705
      832.080000       0.957894
      832.120000       0.958083
      832.160000       0.958273
      832.200000       0.958464
      832.240000       0.958656
      832.280000       0.958849
      832.320000       0.959043
      832.360000       0.959239
      832.400000       0.959435
      832.440000       0.959632
      832.480000       0.959831
      832.520000       0.960030
      832.560000       0.960230
      832.600000       0.960431
      832.640000       0.960633
      832.680000       0.960836
      832.720000       0.961040
      832.760000       0.961244
      832.800000       0.961450
      832.840000       0.961656
      832.880000       0.961863
      832.920000       0.962071
      832.960000       0.962280
      833.000000       0.962486
      833.040000       0.962687
      833.080000       0.962889
      833.120000       0.963093
      833.160000       0.963296
      833.200000       0.963500
      833.240000       0.963705
      833.280000       0.963910
      833.320000       0.964116
      833.360000       0.964296
      833.400000       0.964464
      833.440000       0.964631
      833.480000       0.964798
      833.520000       0.964966
      833.560000       0.965133
      833.600000       0.965300
      833.640000       0.965467
      833.680000       0.965634
      833.720000       0.965802
      833.760000       0.965969
      833.800000       0.966136
      833.840000       0.966303
      833.880000       0.966471
      833.920000       0.966638
      833.960000       0.966805
      834.000000       0.966973
      834.040000       0.967140
      834.080000       0.967307
      834.120000       0.967474
      834.160000       0.967641
      834.200000       0.967809
      834.240000       0.967976
      834.280000       0.968144
      834.320000       0.968311
      834.360000       0.968478
      834.400000       0.968646
      834.440000       0.968813
      834.480000       0.968981
      834.520000       0.969148
      834.560000       0.969316
      834.600000       0.969483
      834.640000       0.969651
      834.680000       0.969818
      834.720000       0.969986
      834.760000       0.970153
      834.800000       0.970321
      834.840000       0.970489
      834.880000       0.970657
      834.920000       0.970824
      834.960000       0.970992
      835.000000       0.971160
      835.040000       0.971328
      835.080000       0.971496
      835.120000       0.971664
      835.160000       0.971832
      835.200000       0.972000
      835.240000       0.972169
      835.280000       0.972337
      835.320000       0.972505
      835.360000       0.972673
      835.400000       0.972842
      835.440000       0.973010
      835.480000       0.973178
      835.520000       0.973347
      835.560000       0.973516
      835.600000       0.973684
      835.640000       0.973853
      835.680000       0.974022
      835.720000       0.974191
      835.760000       0.974360
      835.800000       0.974529
      835.840000       0.974698
      835.880000       0.974867
      835.920000       0.975037
      835.960000       0.975206
      836.000000       0.975376
      836.040000       0.975545
      836.080000       0.975715
      836.120000       0.975884
      836.160000       0.976054
      836.200000       0.976224
      836.240000       0.976394
      836.280000       0.976564
      836.320000       0.976734
      836.360000       0.976904
      836.400000       0.977075
      836.440000       0.977245
      836.480000       0.977416
      836.520000       0.977587
      836.560000       0.977757
      836.600000       0.977928
      836.640000       0.978099
      836.680000       0.978270
      836.720000       0.978450
      836.760000       0.978630
      836.800000       0.978811
      836.840000       0.978991
      836.880000       0.979172
      836.920000       0.979353
      836.960000       0.979534
      837.000000       0.979716
      837.040000       0.979897
      837.080000       0.980079
      837.120000       0.980260
      837.160000       0.980442
      837.200000       0.980625
      837.240000       0.980807
      837.280000       0.980989
      837.320000       0.981171
      837.360000       0.981354
      837.400000       0.981537
      837.440000       0.981719
      837.480000       0.981902
      837.520000       0.982085
      837.560000       0.982268
      837.600000       0.982451
      837.640000       0.982634
      837.680000       0.982817
      837.720000       0.983000
      837.760000       0.983183
      837.800000       0.983366
      837.840000       0.983549
      837.880000       0.983732
      837.920000       0.983915
      837.960000       0.984098
      838.000000       0.984280
      838.040000       0.984463
      838.080000       0.984646
      838.120000       0.984829
      838.160000       0.985011
      838.200000       0.985194
      838.240000       0.985376
      838.280000       0.985558
      838.320000       0.985740
      838.360000       0.985922
      838.400000       0.986104
      838.440000       0.986285
      838.480000       0.986466
      838.520000       0.986647
      838.560000       0.986828
      838.600000       0.987008
      838.640000       0.987189
      838.680000       0.987369
      838.720000       0.987548
      838.760000       0.987728
      838.800000       0.987907
      838.840000       0.988086
      838.880000       0.988264
      838.920000       0.988442
      838.960000       0.988620
      839.000000       0.988797
      839.040000       0.988974
      839.080000       0.989151
      839.120000       0.989326
      839.160000       0.989502
      839.200000       0.989677
      839.240000       0.989852
      839.280000       0.990026
      839.320000       0.990200
      839.360000       0.990372
      839.400000       0.990545
      839.440000       0.990717
      839.480000       0.990888
      839.520000       0.991059
      839.560000       0.991229
      839.600000       0.991399
      839.640000       0.991567
      839.680000       0.991736
      839.720000       0.991903
      839.760000       0.992070
      839.800000       0.992236
      839.840000       0.992401
      839.880000       0.992566
      839.920000       0.992730
      839.960000       0.992892
      840.000000       0.993055
      840.040000       0.993216
      840.080000       0.993365
      840.120000       0.993508
      840.160000       0.993651
      840.200000       0.993791
      840.240000       0.993931
      840.280000       0.994070
      840.320000       0.994208
      840.360000       0.994344
      840.400000       0.994480
      840.440000       0.994614
      840.480000       0.994748
      840.520000       0.994880
      840.560000       0.995011
      840.600000       0.995141
      840.640000       0.995269
      840.680000       0.995397
      840.720000       0.995524
      840.760000       0.995649
      840.800000       0.995773
      840.840000       0.995896
      840.880000       0.996018
      840.920000       0.996139
      840.960000       0.996258
      841.000000       0.996376
      841.040000       0.996494
      841.080000       0.996610
      841.120000       0.996724
      841.160000       0.996838
      841.200000       0.996950
      841.240000       0.997061
      841.280000       0.997171
      841.320000       0.997280
      841.360000       0.997388
      841.400000       0.997494
      841.440000       0.997599
      841.480000       0.997703
      841.520000       0.997806
      841.560000       0.997907
      841.600000       0.998007
      841.640000       0.998106
      841.680000       0.998204
      841.720000       0.998301
      841.760000       0.998396
      841.800000       0.998490
      841.840000       0.998583
      841.880000       0.998675
      841.920000       0.998765
      841.960000       0.998854
      842.000000       0.998942
      842.040000       0.999029
      842.080000       0.999114
      842.120000       0.999199
      842.160000       0.999281
      842.200000       0.999363
      842.240000       0.999444
      842.280000       0.999523
      842.320000       0.999601
      842.360000       0.999678
      842.400000       0.999722
      842.440000       0.999747
      842.480000       0.999772
      842.520000       0.999795
      842.560000       0.999817
      842.600000       0.999837
      842.640000       0.999857
      842.680000       0.999875
      842.720000       0.999892
      842.760000       0.999907
      842.800000       0.999922
      842.840000       0.999935
      842.880000       0.999947
      842.920000       0.999958
      842.960000       0.999967
      843.000000       0.999976
      843.040000       0.999983
      843.080000       0.999989
      843.120000       0.999994
      843.160000       0.999997
      843.200000       0.999999
      843.240000       1.000000
      843.280000       1.000000
      843.320000       0.999999
      843.360000       0.999997
      843.400000       0.999993
      843.440000       0.999988
      843.480000       0.999983
      843.520000       0.999977
      843.560000       0.999970
      843.600000       0.999963
      843.640000       0.999953
      843.680000       0.999943
      843.720000       0.999932
      843.760000       0.999919
      843.800000       0.999905
      843.840000       0.999891
      843.880000       0.999875
      843.920000       0.999858
      843.960000       0.999839
      844.000000       0.999820
      844.040000       0.999800
      844.080000       0.999778
      844.120000       0.999756
      844.160000       0.999732
      844.200000       0.999707
      844.240000       0.999681
      844.280000       0.999654
      844.320000       0.999626
      844.360000       0.999597
      844.400000       0.999567
      844.440000       0.999536
      844.480000       0.999503
      844.520000       0.999470
      844.560000       0.999436
      844.600000       0.999400
      844.640000       0.999364
      844.680000       0.999326
      844.720000       0.999288
      844.760000       0.999248
      844.800000       0.999208
      844.840000       0.999166
      844.880000       0.999124
      844.920000       0.999080
      844.960000       0.999036
      845.000000       0.998990
      845.040000       0.998944
      845.080000       0.998896
      845.120000       0.998848
      845.160000       0.998799
      845.200000       0.998748
      845.240000       0.998697
      845.280000       0.998645
      845.320000       0.998592
      845.360000       0.998538
      845.400000       0.998483
      845.440000       0.998427
      845.480000       0.998371
      845.520000       0.998313
      845.560000       0.998255
      845.600000       0.998196
      845.640000       0.998135
      845.680000       0.998074
      845.720000       0.998013
      845.760000       0.997950
      845.800000       0.997886
      845.840000       0.997822
      845.880000       0.997757
      845.920000       0.997691
      845.960000       0.997624
      846.000000       0.997557
      846.040000       0.997489
      846.080000       0.997420
      846.120000       0.997350
      846.160000       0.997279
      846.200000       0.997208
      846.240000       0.997136
      846.280000       0.997063
      846.320000       0.996990
      846.360000       0.996916
      846.400000       0.996841
      846.440000       0.996765
      846.480000       0.996689
      846.520000       0.996613
      846.560000       0.996535
      846.600000       0.996457
      846.640000       0.996378
      846.680000       0.996299
      846.720000       0.996219
      846.760000       0.996138
      846.800000       0.996057
      846.840000       0.995976
      846.880000       0.995893
      846.920000       0.995827
      846.960000       0.995762
      847.000000       0.995696
      847.040000       0.995630
      847.080000       0.995564
      847.120000       0.995497
      847.160000       0.995430
      847.200000       0.995362
      847.240000       0.995295
      847.280000       0.995226
      847.320000       0.995158
      847.360000       0.995089
      847.400000       0.995019
      847.440000       0.994949
      847.480000       0.994879
      847.520000       0.994809
      847.560000       0.994737
      847.600000       0.994666
      847.640000       0.994594
      847.680000       0.994521
      847.720000       0.994449
      847.760000       0.994375
      847.800000       0.994301
      847.840000       0.994227
      847.880000       0.994152
      847.920000       0.994077
      847.960000       0.994001
      848.000000       0.993925
      848.040000       0.993848
      848.080000       0.993770
      848.120000       0.993693
      848.160000       0.993614
      848.200000       0.993535
      848.240000       0.993455
      848.280000       0.993375
      848.320000       0.993294
      848.360000       0.993212
      848.400000       0.993130
      848.440000       0.993047
      848.480000       0.992964
      848.520000       0.992880
      848.560000       0.992795
      848.600000       0.992709
      848.640000       0.992623
      848.680000       0.992536
      848.720000       0.992449
      848.760000       0.992360
      848.800000       0.992271
      848.840000       0.992181
      848.880000       0.992090
      848.920000       0.991999
      848.960000       0.991906
      849.000000       0.991813
      849.040000       0.991719
      849.080000       0.991624
      849.120000       0.991528
      849.160000       0.991432
      849.200000       0.991334
      849.240000       0.991235
      849.280000       0.991136
      849.320000       0.991035
      849.360000       0.990934
      849.400000       0.990831
      849.440000       0.990727
      849.480000       0.990623
      849.520000       0.990517
      849.560000       0.990411
      849.600000       0.990303
      849.640000       0.990194
      849.680000       0.990084
      849.720000       0.989973
      849.760000       0.989860
      849.800000       0.989747
      849.840000       0.989632
      849.880000       0.989516
      849.920000       0.989399
      849.960000       0.989280
      850.000000       0.989161
      850.040000       0.989039
      850.080000       0.988917
      850.120000       0.988793
      850.160000       0.988668
      850.200000       0.988541
      850.240000       0.988413
      850.280000       0.988284
      850.320000       0.988153
      850.360000       0.988011
      850.400000       0.987859
      850.440000       0.987706
      850.480000       0.987550
      850.520000       0.987393
      850.560000       0.987234
      850.600000       0.987073
      850.640000       0.986910
      850.680000       0.986746
      850.720000       0.986580
      850.760000       0.986412
      850.800000       0.986242
      850.840000       0.986071
      850.880000       0.985897
      850.920000       0.985722
      850.960000       0.985545
      851.000000       0.985367
      851.040000       0.985186
      851.080000       0.985004
      851.120000       0.984819
      851.160000       0.984633
      851.200000       0.984445
      851.240000       0.984255
      851.280000       0.984064
      851.320000       0.983870
      851.360000       0.983674
      851.400000       0.983477
      851.440000       0.983278
      851.480000       0.983076
      851.520000       0.982873
      851.560000       0.982668
      851.600000       0.982461
      851.640000       0.982252
      851.680000       0.982041
      851.720000       0.981828
      851.760000       0.981614
      851.800000       0.981397
      851.840000       0.981178
      851.880000       0.980958
      851.920000       0.980735
      851.960000       0.980510
      852.000000       0.980284
      852.040000       0.980056
      852.080000       0.979825
      852.120000       0.979592
      852.160000       0.979358
      852.200000       0.979122
      852.240000       0.978883
      852.280000       0.978642
      852.320000       0.978400
      852.360000       0.978155
      852.400000       0.977909
      852.440000       0.977661
      852.480000       0.977409
      852.520000       0.977157
      852.560000       0.976902
      852.600000       0.976646
      852.640000       0.976387
      852.680000       0.976126
      852.720000       0.975863
      852.760000       0.975598
      852.800000       0.975332
      852.840000       0.975062
      852.880000       0.974792
      852.920000       0.974519
      852.960000       0.974244
      853.000000       0.973966
      853.040000       0.973687
      853.080000       0.973406
      853.120000       0.973122
      853.160000       0.972837
      853.200000       0.972550
      853.240000       0.972260
      853.280000       0.971969
      853.320000       0.971675
      853.360000       0.971379
      853.400000       0.971081
      853.440000       0.970781
      853.480000       0.970479
      853.520000       0.970175
      853.560000       0.969869
      853.600000       0.969560
      853.640000       0.969250
      853.680000       0.968938
      853.720000       0.968624
      853.760000       0.968306
      853.800000       0.967988
      853.840000       0.967673
      853.880000       0.967363
      853.920000       0.967052
      853.960000       0.966740
      854.000000       0.966424
      854.040000       0.966107
      854.080000       0.965789
      854.120000       0.965467
      854.160000       0.965145
      854.200000       0.964820
      854.240000       0.964493
      854.280000       0.964164
      854.320000       0.963833
      854.360000       0.963499
      854.400000       0.963164
      854.440000       0.962827
      854.480000       0.962488
      854.520000       0.962146
      854.560000       0.961803
      854.600000       0.961457
      854.640000       0.961109
      854.680000       0.960758
      854.720000       0.960406
      854.760000       0.960051
      854.800000       0.959695
      854.840000       0.959336
      854.880000       0.958974
      854.920000       0.958611
      854.960000       0.958245
      855.000000       0.957877
      855.040000       0.957506
      855.080000       0.957134
      855.120000       0.956758
      855.160000       0.956381
      855.200000       0.956002
      855.240000       0.955619
      855.280000       0.955235
      855.320000       0.954848
      855.360000       0.954459
      855.400000       0.954067
      855.440000       0.953673
      855.480000       0.953276
      855.520000       0.952876
      855.560000       0.952475
      855.600000       0.952071
      855.640000       0.951664
      855.680000       0.951254
      855.720000       0.950843
      855.760000       0.950427
      855.800000       0.950011
      855.840000       0.949591
      855.880000       0.949168
      855.920000       0.948743
      855.960000       0.948316
      856.000000       0.947884
      856.040000       0.947452
      856.080000       0.947016
      856.120000       0.946577
      856.160000       0.946135
      856.200000       0.945692
      856.240000       0.945245
      856.280000       0.944794
      856.320000       0.944342
      856.360000       0.943887
      856.400000       0.943427
      856.440000       0.942966
      856.480000       0.942502
      856.520000       0.942034
      856.560000       0.941564
      856.600000       0.941092
      856.640000       0.940614
      856.680000       0.940135
      856.720000       0.939653
      856.760000       0.939167
      856.800000       0.938679
      856.840000       0.938188
      856.880000       0.937693
      856.920000       0.937195
      856.960000       0.936695
      857.000000       0.936190
      857.040000       0.935682
      857.080000       0.935172
      857.120000       0.934658
      857.160000       0.934140
      857.200000       0.933620
      857.240000       0.933097
      857.280000       0.932569
      857.320000       0.932038
      857.360000       0.931493
      857.400000       0.930930
      857.440000       0.930367
      857.480000       0.929799
      857.520000       0.929227
      857.560000       0.928652
      857.600000       0.928073
      857.640000       0.927489
      857.680000       0.926903
      857.720000       0.926313
      857.760000       0.925720
      857.800000       0.925121
      857.840000       0.924521
      857.880000       0.923916
      857.920000       0.923306
      857.960000       0.922694
      858.000000       0.922079
      858.040000       0.921458
      858.080000       0.920835
      858.120000       0.920208
      858.160000       0.919576
      858.200000       0.918942
      858.240000       0.918304
      858.280000       0.917660
      858.320000       0.917016
      858.360000       0.916367
      858.400000       0.915712
      858.440000       0.915056
      858.480000       0.914396
      858.520000       0.913730
      858.560000       0.913063
      858.600000       0.912391
      858.640000       0.911717
      858.680000       0.911036
      858.720000       0.910354
      858.760000       0.909669
      858.800000       0.908977
      858.840000       0.908285
      858.880000       0.907588
      858.920000       0.906885
      858.960000       0.906181
      859.000000       0.905473
      859.040000       0.904760
      859.080000       0.904045
      859.120000       0.903326
      859.160000       0.902602
      859.200000       0.901876
      859.240000       0.901146
      859.280000       0.900411
      859.320000       0.899675
      859.360000       0.898934
      859.400000       0.898190
      859.440000       0.897442
      859.480000       0.896690
      859.520000       0.895935
      859.560000       0.895176
      859.600000       0.894414
      859.640000       0.893649
      859.680000       0.892878
      859.720000       0.892106
      859.760000       0.891330
      859.800000       0.890549
      859.840000       0.889767
      859.880000       0.888981
      859.920000       0.888189
      859.960000       0.887396
      860.000000       0.886599
      860.040000       0.885797
      860.080000       0.884995
      860.120000       0.884188
      860.160000       0.883377
      860.200000       0.882562
      860.240000       0.881745
      860.280000       0.880925
      860.320000       0.880100
      860.360000       0.879273
      860.400000       0.878442
      860.440000       0.877608
      860.480000       0.876770
      860.520000       0.875931
      860.560000       0.875086
      860.600000       0.874240
      860.640000       0.873390
      860.680000       0.872536
      860.720000       0.871680
      860.760000       0.870820
      860.800000       0.869956
      860.840000       0.869091
      860.880000       0.868222
      860.920000       0.867384
      860.960000       0.866547
      861.000000       0.865707
      861.040000       0.864865
      861.080000       0.864017
      861.120000       0.863169
      861.160000       0.862318
      861.200000       0.861461
      861.240000       0.860606
      861.280000       0.859746
      861.320000       0.858881
      861.360000       0.858017
      861.400000       0.857149
      861.440000       0.856276
      861.480000       0.855403
      861.520000       0.854527
      861.560000       0.853646
      861.600000       0.852763
      861.640000       0.851878
      861.680000       0.850988
      861.720000       0.850097
      861.760000       0.849203
      861.800000       0.848306
      861.840000       0.847403
      861.880000       0.846501
      861.920000       0.845594
      861.960000       0.844683
      862.000000       0.843770
      862.040000       0.842855
      862.080000       0.841935
      862.120000       0.841013
      862.160000       0.840088
      862.200000       0.839158
      862.240000       0.838226
      862.280000       0.837292
      862.320000       0.836352
      862.360000       0.835411
      862.400000       0.834466
      862.440000       0.833516
      862.480000       0.832565
      862.520000       0.831610
      862.560000       0.830650
      862.600000       0.829689
      862.640000       0.828723
      862.680000       0.827755
      862.720000       0.826781
      862.760000       0.825806
      862.800000       0.824827
      862.840000       0.823842
      862.880000       0.822855
      862.920000       0.821865
      862.960000       0.820868
      863.000000       0.819872
      863.040000       0.818871
      863.080000       0.817864
      863.120000       0.816855
      863.160000       0.815843
      863.200000       0.814823
      863.240000       0.813803
      863.280000       0.812779
      863.320000       0.811748
      863.360000       0.810716
      863.400000       0.809679
      863.440000       0.808639
      863.480000       0.807593
      863.520000       0.806544
      863.560000       0.805491
      863.600000       0.804432
      863.640000       0.803371
      863.680000       0.802305
      863.720000       0.801233
      863.760000       0.800158
      863.800000       0.799080
      863.840000       0.797995
      863.880000       0.796908
      863.920000       0.795815
      863.960000       0.794718
      864.000000       0.793615
      864.040000       0.792510
      864.080000       0.791398
      864.120000       0.790283
      864.160000       0.789163
      864.200000       0.788037
      864.240000       0.786908
      864.280000       0.785773
      864.320000       0.784635
      864.360000       0.783489
      864.400000       0.782340
      864.440000       0.781187
      864.480000       0.779981
      864.520000       0.778749
      864.560000       0.777511
      864.600000       0.776264
      864.640000       0.775015
      864.680000       0.773759
      864.720000       0.772495
      864.760000       0.771227
      864.800000       0.769956
      864.840000       0.768674
      864.880000       0.767391
      864.920000       0.766101
      864.960000       0.764803
      865.000000       0.763503
      865.040000       0.762195
      865.080000       0.760884
      865.120000       0.759563
      865.160000       0.758240
      865.200000       0.756912
      865.240000       0.755574
      865.280000       0.754234
      865.320000       0.752888
      865.360000       0.751536
      865.400000       0.750179
      865.440000       0.748819
      865.480000       0.747448
      865.520000       0.746077
      865.560000       0.744698
      865.600000       0.743312
      865.640000       0.741925
      865.680000       0.740532
      865.720000       0.739130
      865.760000       0.737727
      865.800000       0.736319
      865.840000       0.734905
      865.880000       0.733482
      865.920000       0.732058
      865.960000       0.730629
      866.000000       0.729192
      866.040000       0.727753
      866.080000       0.726311
      866.120000       0.724857
      866.160000       0.723405
      866.200000       0.721948
      866.240000       0.720482
      866.280000       0.719013
      866.320000       0.717541
      866.360000       0.716061
      866.400000       0.714580
      866.440000       0.713094
      866.480000       0.711602
      866.520000       0.710107
      866.560000       0.708608
      866.600000       0.707102
      866.640000       0.705594
      866.680000       0.704083
      866.720000       0.702566
      866.760000       0.701043
      866.800000       0.699520
      866.840000       0.697990
      866.880000       0.696455
      866.920000       0.694919
      866.960000       0.693379
      867.000000       0.691831
      867.040000       0.690284
      867.080000       0.688733
      867.120000       0.687175
      867.160000       0.685616
      867.200000       0.684054
      867.240000       0.682486
      867.280000       0.680916
      867.320000       0.679345
      867.360000       0.677766
      867.400000       0.676186
      867.440000       0.674605
      867.480000       0.673020
      867.520000       0.671428
      867.560000       0.669838
      867.600000       0.668244
      867.640000       0.666643
      867.680000       0.665043
      867.720000       0.663443
      867.760000       0.661833
      867.800000       0.660225
      867.840000       0.658616
      867.880000       0.656998
      867.920000       0.655385
      867.960000       0.653769
      868.000000       0.652144
      868.040000       0.650523
      868.080000       0.648944
      868.120000       0.647389
      868.160000       0.645836
      868.200000       0.644281
      868.240000       0.642722
      868.280000       0.641165
      868.320000       0.639609
      868.360000       0.638049
      868.400000       0.636484
      868.440000       0.634924
      868.480000       0.633361
      868.520000       0.631795
      868.560000       0.630231
      868.600000       0.628664
      868.640000       0.627094
      868.680000       0.625527
      868.720000       0.623959
      868.760000       0.622386
      868.800000       0.620816
      868.840000       0.619244
      868.880000       0.617667
      868.920000       0.616096
      868.960000       0.614521
      869.000000       0.612941
      869.040000       0.611367
      869.080000       0.609789
      869.120000       0.608213
      869.160000       0.606631
      869.200000       0.605050
      869.240000       0.603470
      869.280000       0.601885
      869.320000       0.600304
      869.360000       0.598721
      869.400000       0.597133
      869.440000       0.595549
      869.480000       0.593963
      869.520000       0.592374
      869.560000       0.590787
      869.600000       0.589199
      869.640000       0.587607
      869.680000       0.586017
      869.720000       0.584428
      869.760000       0.582833
      869.800000       0.581240
      869.840000       0.579648
      869.880000       0.578051
      869.920000       0.576458
      869.960000       0.574863
      870.000000       0.573267
      870.040000       0.571666
      870.080000       0.570069
      870.120000       0.568470
      870.160000       0.566869
      870.200000       0.565268
      870.240000       0.563669
      870.280000       0.562063
      870.320000       0.560462
      870.360000       0.558858
      870.400000       0.557250
      870.440000       0.555646
      870.480000       0.554041
      870.520000       0.552431
      870.560000       0.550824
      870.600000       0.549216
      870.640000       0.547603
      870.680000       0.545993
      870.720000       0.544382
      870.760000       0.542772
      870.800000       0.541155
      870.840000       0.539543
      870.880000       0.537928
      870.920000       0.536309
      870.960000       0.534692
      871.000000       0.533076
      871.040000       0.531454
      871.080000       0.529835
      871.120000       0.528214
      871.160000       0.526591
      871.200000       0.524969
      871.240000       0.523346
      871.280000       0.521717
      871.320000       0.520091
      871.360000       0.518465
      871.400000       0.516834
      871.440000       0.515205
      871.480000       0.513577
      871.520000       0.511945
      871.560000       0.510310
      871.600000       0.508678
      871.640000       0.507042
      871.680000       0.505403
      871.720000       0.503714
      871.760000       0.502011
      871.800000       0.500302
      871.840000       0.498595
      871.880000       0.496886
      871.920000       0.495173
      871.960000       0.493460
      872.000000       0.491745
      872.040000       0.490026
      872.080000       0.488308
      872.120000       0.486590
      872.160000       0.484866
      872.200000       0.483142
      872.240000       0.481419
      872.280000       0.479690
      872.320000       0.477964
      872.360000       0.476236
      872.400000       0.474506
      872.440000       0.472771
      872.480000       0.471038
      872.520000       0.469305
      872.560000       0.467567
      872.600000       0.465830
      872.640000       0.464092
      872.680000       0.462351
      872.720000       0.460610
      872.760000       0.458871
      872.800000       0.457126
      872.840000       0.455382
      872.880000       0.453640
      872.920000       0.451891
      872.960000       0.450147
      873.000000       0.448401
      873.040000       0.446650
      873.080000       0.444903
      873.120000       0.443155
      873.160000       0.441408
      873.200000       0.439654
      873.240000       0.437904
      873.280000       0.436155
      873.320000       0.434399
      873.360000       0.432650
      873.400000       0.430900
      873.440000       0.429145
      873.480000       0.427392
      873.520000       0.425641
      873.560000       0.423885
      873.600000       0.422134
      873.640000       0.420382
      873.680000       0.418626
      873.720000       0.416874
      873.760000       0.415125
      873.800000       0.413369
      873.840000       0.411617
      873.880000       0.409869
      873.920000       0.408113
      873.960000       0.406365
      874.000000       0.404617
      874.040000       0.402867
      874.080000       0.401115
      874.120000       0.399369
      874.160000       0.397623
      874.200000       0.395873
      874.240000       0.394129
      874.280000       0.392385
      874.320000       0.390638
      874.360000       0.388896
      874.400000       0.387158
      874.440000       0.385413
      874.480000       0.383677
      874.520000       0.381940
      874.560000       0.380201
      874.600000       0.378466
      874.640000       0.376735
      874.680000       0.375001
      874.720000       0.373273
      874.760000       0.371544
      874.800000       0.369819
      874.840000       0.368091
      874.880000       0.366370
      874.920000       0.364651
      874.960000       0.362931
      875.000000       0.361215
      875.040000       0.359502
      875.080000       0.357788
      875.120000       0.356080
      875.160000       0.354375
      875.200000       0.352669
      875.240000       0.350967
      875.280000       0.349270
      875.320000       0.347571
      875.360000       0.345895
      875.400000       0.344266
      875.440000       0.342640
      875.480000       0.341021
      875.520000       0.339404
      875.560000       0.337792
      875.600000       0.336178
      875.640000       0.334573
      875.680000       0.332973
      875.720000       0.331371
      875.760000       0.329779
      875.800000       0.328188
      875.840000       0.326599
      875.880000       0.325018
      875.920000       0.323442
      875.960000       0.321864
      876.000000       0.320293
      876.040000       0.318728
      876.080000       0.317162
      876.120000       0.315607
      876.160000       0.314054
      876.200000       0.312500
      876.240000       0.310955
      876.280000       0.309416
      876.320000       0.307875
      876.360000       0.306344
      876.400000       0.304815
      876.440000       0.303293
      876.480000       0.301769
      876.520000       0.300255
      876.560000       0.298745
      876.600000       0.297235
      876.640000       0.295734
      876.680000       0.294238
      876.720000       0.292741
      876.760000       0.291253
      876.800000       0.289769
      876.840000       0.288288
      876.880000       0.286813
      876.920000       0.285343
      876.960000       0.283875
      877.000000       0.282414
      877.040000       0.280959
      877.080000       0.279504
      877.120000       0.278056
      877.160000       0.276615
      877.200000       0.275178
      877.240000       0.273742
      877.280000       0.272315
      877.320000       0.270892
      877.360000       0.269470
      877.400000       0.268056
      877.440000       0.266647
      877.480000       0.265241
      877.520000       0.263842
      877.560000       0.262447
      877.600000       0.261055
      877.640000       0.259671
      877.680000       0.258290
      877.720000       0.256913
      877.760000       0.255544
      877.800000       0.254177
      877.840000       0.252816
      877.880000       0.251459
      877.920000       0.250109
      877.960000       0.248762
      878.000000       0.247421
      878.040000       0.246086
      878.080000       0.244755
      878.120000       0.243427
      878.160000       0.242107
      878.200000       0.240790
      878.240000       0.239477
      878.280000       0.238171
      878.320000       0.236871
      878.360000       0.235573
      878.400000       0.234283
      878.440000       0.232996
      878.480000       0.231715
      878.520000       0.230438
      878.560000       0.229168
      878.600000       0.227901
      878.640000       0.226640
      878.680000       0.225385
      878.720000       0.224133
      878.760000       0.222887
      878.800000       0.221646
      878.840000       0.220412
      878.880000       0.219178
      878.920000       0.217954
      878.960000       0.216733
      879.000000       0.215516
      879.040000       0.214306
      879.080000       0.213104
      879.120000       0.211903
      879.160000       0.210711
      879.200000       0.209524
      879.240000       0.208338
      879.280000       0.207162
      879.320000       0.205990
      879.360000       0.204819
      879.400000       0.203658
      879.440000       0.202500
      879.480000       0.201346
      879.520000       0.200198
      879.560000       0.199057
      879.600000       0.197917
      879.640000       0.196784
      879.680000       0.195657
      879.720000       0.194535
      879.760000       0.193415
      879.800000       0.192303
      879.840000       0.191196
      879.880000       0.190090
      879.920000       0.188994
      879.960000       0.187901
      880.000000       0.186810
      880.040000       0.185728
      880.080000       0.184650
      880.120000       0.183575
      880.160000       0.182506
      880.200000       0.181443
      880.240000       0.180382
      880.280000       0.179329
      880.320000       0.178279
      880.360000       0.177233
      880.400000       0.176194
      880.440000       0.175159
      880.480000       0.174129
      880.520000       0.173101
      880.560000       0.172080
      880.600000       0.171064
      880.640000       0.170051
      880.680000       0.169044
      880.720000       0.168043
      880.760000       0.167043
      880.800000       0.166050
      880.840000       0.165062
      880.880000       0.164076
      880.920000       0.163096
      880.960000       0.162121
      881.000000       0.161149
      881.040000       0.160183
      881.080000       0.159222
      881.120000       0.158263
      881.160000       0.157311
      881.200000       0.156362
      881.240000       0.155418
      881.280000       0.154477
      881.320000       0.153541
      881.360000       0.152611
      881.400000       0.151682
      881.440000       0.150759
      881.480000       0.149841
      881.520000       0.148924
      881.560000       0.148014
      881.600000       0.147107
      881.640000       0.146204
      881.680000       0.145307
      881.720000       0.144413
      881.760000       0.143520
      881.800000       0.142634
      881.840000       0.141752
      881.880000       0.140873
      881.920000       0.139998
      881.960000       0.139129
      882.000000       0.138259
      882.040000       0.137397
      882.080000       0.136538
      882.120000       0.135682
      882.160000       0.134829
      882.200000       0.133981
      882.240000       0.133137
      882.280000       0.132294
      882.320000       0.131457
      882.360000       0.130623
      882.400000       0.129791
      882.440000       0.128965
      882.480000       0.128141
      882.520000       0.127319
      882.560000       0.126503
      882.600000       0.125689
      882.640000       0.124878
      882.680000       0.124071
      882.720000       0.123267
      882.760000       0.122465
      882.800000       0.121618
      882.840000       0.120760
      882.880000       0.119902
      882.920000       0.119050
      882.960000       0.118197
      883.000000       0.117348
      883.040000       0.116503
      883.080000       0.115658
      883.120000       0.114817
      883.160000       0.113979
      883.200000       0.113142
      883.240000       0.112308
      883.280000       0.111478
      883.320000       0.110650
      883.360000       0.109822
      883.400000       0.109000
      883.440000       0.108180
      883.480000       0.107360
      883.520000       0.106545
      883.560000       0.105733
      883.600000       0.104920
      883.640000       0.104113
      883.680000       0.103309
      883.720000       0.102505
      883.760000       0.101706
      883.800000       0.100909
      883.840000       0.100114
      883.880000       0.099324
      883.920000       0.098535
      883.960000       0.097748
      884.000000       0.096966
      884.040000       0.096186
      884.080000       0.095407
      884.120000       0.094633
      884.160000       0.093862
      884.200000       0.093094
      884.240000       0.092327
      884.280000       0.091565
      884.320000       0.090806
      884.360000       0.090048
      884.400000       0.089294
      884.440000       0.088545
      884.480000       0.087796
      884.520000       0.087053
      884.560000       0.086311
      884.600000       0.085572
      884.640000       0.084838
      884.680000       0.084108
      884.720000       0.083378
      884.760000       0.082654
      884.800000       0.081932
      884.840000       0.081213
      884.880000       0.080498
      884.920000       0.079787
      884.960000       0.079080
      885.000000       0.078374
      885.040000       0.077674
      885.080000       0.076976
      885.120000       0.076282
      885.160000       0.075592
      885.200000       0.074906
      885.240000       0.074222
      885.280000       0.073543
      885.320000       0.072868
      885.360000       0.072195
      885.400000       0.071528
      885.440000       0.070865
      885.480000       0.070204
      885.520000       0.069548
      885.560000       0.068897
      885.600000       0.068248
      885.640000       0.067605
      885.680000       0.066965
      885.720000       0.066331
      885.760000       0.065698
      885.800000       0.065072
      885.840000       0.064449
      885.880000       0.063829
      885.920000       0.063216
      885.960000       0.062607
      886.000000       0.062001
      886.040000       0.061401
      886.080000       0.060806
      886.120000       0.060213
      886.160000       0.059627
      886.200000       0.059045
      886.240000       0.058467
      886.280000       0.057895
      886.320000       0.057328
      886.360000       0.056764
      886.400000       0.056207
      886.440000       0.055655
      886.480000       0.055106
      886.520000       0.054564
      886.560000       0.054115
      886.600000       0.053683
      886.640000       0.053257
      886.680000       0.052837
      886.720000       0.052424
      886.760000       0.052017
      886.800000       0.051617
      886.840000       0.051222
      886.880000       0.050832
      886.920000       0.050450
      886.960000       0.050073
      887.000000       0.049702
      887.040000       0.049338
      887.080000       0.048979
      887.120000       0.048626
      887.160000       0.048279
      887.200000       0.047938
      887.240000       0.047603
      887.280000       0.047273
      887.320000       0.046950
      887.360000       0.046632
      887.400000       0.046319
      887.440000       0.046013
      887.480000       0.045713
      887.520000       0.045417
      887.560000       0.045128
      887.600000       0.044844
      887.640000       0.044565
      887.680000       0.044292
      887.720000       0.044024
      887.760000       0.043762
      887.800000       0.043505
      887.840000       0.043254
      887.880000       0.043007
      887.920000       0.042766
      887.960000       0.042530
      888.000000       0.042299
      888.040000       0.042073
      888.080000       0.041853
      888.120000       0.041637
      888.160000       0.041426
      888.200000       0.041221
      888.240000       0.041020
      888.280000       0.040823
      888.320000       0.040632
      888.360000       0.040445
      888.400000       0.040263
      888.440000       0.040085
      888.480000       0.039912
      888.520000       0.039743
      888.560000       0.039579
      888.600000       0.039420
      888.640000       0.039264
      888.680000       0.039113
      888.720000       0.038965
      888.760000       0.038822
      888.800000       0.038683
      888.840000       0.038548
      888.880000       0.038417
      888.920000       0.038290
      888.960000       0.038166
      889.000000       0.038047
      889.040000       0.037930
      889.080000       0.037818
      889.120000       0.037709
      889.160000       0.037603
      889.200000       0.037501
      889.240000       0.037402
      889.280000       0.037306
      889.320000       0.037214
      889.360000       0.037124
      889.400000       0.037038
      889.440000       0.036954
      889.480000       0.036873
      889.520000       0.036796
      889.560000       0.036720
      889.600000       0.036648
      889.640000       0.036578
      889.680000       0.036510
      889.720000       0.036445
      889.760000       0.036382
      889.800000       0.036321
      889.840000       0.036263
      889.880000       0.036206
      889.920000       0.036151
      889.960000       0.036099
      890.000000       0.036048
      890.040000       0.035998
      890.080000       0.035951
      890.120000       0.035904
      890.160000       0.035860
      890.200000       0.035816
      890.240000       0.035774
      890.280000       0.035733
      890.320000       0.035675
      890.360000       0.035530
      890.400000       0.035384
      890.440000       0.035239
      890.480000       0.035093
      890.520000       0.034947
      890.560000       0.034800
      890.600000       0.034654
      890.640000       0.034507
      890.680000       0.034359
      890.720000       0.034212
      890.760000       0.034064
      890.800000       0.033916
      890.840000       0.033767
      890.880000       0.033618
      890.920000       0.033468
      890.960000       0.033318
      891.000000       0.033168
      891.040000       0.033017
      891.080000       0.032865
      891.120000       0.032714
      891.160000       0.032561
      891.200000       0.032408
      891.240000       0.032255
      891.280000       0.032100
      891.320000       0.031946
      891.360000       0.031791
      891.400000       0.031635
      891.440000       0.031479
      891.480000       0.031322
      891.520000       0.031165
      891.560000       0.031006
      891.600000       0.030848
      891.640000       0.030689
      891.680000       0.030528
      891.720000       0.030368
      891.760000       0.030207
      891.800000       0.030045
      891.840000       0.029882
      891.880000       0.029719
      891.920000       0.029555
      891.960000       0.029391
      892.000000       0.029226
      892.040000       0.029060
      892.080000       0.028894
      892.120000       0.028727
      892.160000       0.028559
      892.200000       0.028391
      892.240000       0.028222
      892.280000       0.028053
      892.320000       0.027883
      892.360000       0.027712
      892.400000       0.027540
      892.440000       0.027368
      892.480000       0.027196
      892.520000       0.027023
      892.560000       0.026849
      892.600000       0.026675
      892.640000       0.026500
      892.680000       0.026324
      892.720000       0.026148
      892.760000       0.025972
      892.800000       0.025794
      892.840000       0.025617
      892.880000       0.025439
      892.920000       0.025260
      892.960000       0.025081
      893.000000       0.024902
      893.040000       0.024722
      893.080000       0.024541
      893.120000       0.024361
      893.160000       0.024180
      893.200000       0.023998
      893.240000       0.023816
      893.280000       0.023634
      893.320000       0.023451
      893.360000       0.023268
      893.400000       0.023085
      893.440000       0.022901
      893.480000       0.022718
      893.520000       0.022534
      893.560000       0.022350
      893.600000       0.022166
      893.640000       0.021981
      893.680000       0.021797
      893.720000       0.021612
      893.760000       0.021428
      893.800000       0.021243
      893.840000       0.021058
      893.880000       0.020873
      893.920000       0.020689
      893.960000       0.020504
      894.000000       0.020319
      894.040000       0.020135
      894.080000       0.019950
      894.120000       0.019766
      894.160000       0.019613
      894.200000       0.019479
      894.240000       0.019345
      894.280000       0.019212
      894.320000       0.019080
      894.360000       0.018948
      894.400000       0.018817
      894.440000       0.018687
      894.480000       0.018558
      894.520000       0.018429
      894.560000       0.018301
      894.600000       0.018173
      894.640000       0.018047
      894.680000       0.017921
      894.720000       0.017796
      894.760000       0.017672
      894.800000       0.017548
      894.840000       0.017425
      894.880000       0.017302
      894.920000       0.017181
      894.960000       0.017060
      895.000000       0.016940
      895.040000       0.016820
      895.080000       0.016701
      895.120000       0.016583
      895.160000       0.016466
      895.200000       0.016349
      895.240000       0.016233
      895.280000       0.016118
      895.320000       0.016003
      895.360000       0.015889
      895.400000       0.015776
      895.440000       0.015663
      895.480000       0.015551
      895.520000       0.015440
      895.560000       0.015329
      895.600000       0.015219
      895.640000       0.015110
      895.680000       0.015001
      895.720000       0.014893
      895.760000       0.014786
      895.800000       0.014679
      895.840000       0.014573
      895.880000       0.014467
      895.920000       0.014363
      895.960000       0.014258
      896.000000       0.014155
      896.040000       0.014052
      896.080000       0.013950
      896.120000       0.013848
      896.160000       0.013747
      896.200000       0.013646
      896.240000       0.013547
      896.280000       0.013448
      896.320000       0.013349
      896.360000       0.013251
      896.400000       0.013153
      896.440000       0.013057
      896.480000       0.012960
      896.520000       0.012864
      896.560000       0.012770
      896.600000       0.012675
      896.640000       0.012581
      896.680000       0.012487
      896.720000       0.012394
      896.760000       0.012302
      896.800000       0.012210
      896.840000       0.012119
      896.880000       0.012028
      896.920000       0.011938
      896.960000       0.011848
      897.000000       0.011759
      897.040000       0.011670
      897.080000       0.011582
      897.120000       0.011494
      897.160000       0.011407
      897.200000       0.011321
      897.240000       0.011234
      897.280000       0.011148
      897.320000       0.011063
      897.360000       0.010978
      897.400000       0.010894
      897.440000       0.010810
      897.480000       0.010726
      897.520000       0.010643
      897.560000       0.010561
      897.600000       0.010478
      897.640000       0.010396
      897.680000       0.010315
      897.720000       0.010234
      897.760000       0.010153
      897.800000       0.010073
      897.840000       0.009993
      897.880000       0.009914
      897.920000       0.009835
      897.960000       0.009756
      898.000000       0.009674
      898.040000       0.009585
      898.080000       0.009497
      898.120000       0.009408
      898.160000       0.009320
      898.200000       0.009232
      898.240000       0.009144
      898.280000       0.009056
      898.320000       0.008969
      898.360000       0.008882
      898.400000       0.008795
      898.440000       0.008709
      898.480000       0.008622
      898.520000       0.008536
      898.560000       0.008450
      898.600000       0.008364
      898.640000       0.008279
      898.680000       0.008194
      898.720000       0.008109
      898.760000       0.008024
      898.800000       0.007939
      898.840000       0.007855
      898.880000       0.007771
      898.920000       0.007687
      898.960000       0.007604
      899.000000       0.007520
      899.040000       0.007437
      899.080000       0.007354
      899.120000       0.007271
      899.160000       0.007189
      899.200000       0.007107
      899.240000       0.007025
      899.280000       0.006943
      899.320000       0.006862
      899.360000       0.006781
      899.400000       0.006700
      899.440000       0.006619
      899.480000       0.006539
      899.520000       0.006459
      899.560000       0.006379
      899.600000       0.006299
      899.640000       0.006220
      899.680000       0.006141
      899.720000       0.006062
      899.760000       0.005984
      899.800000       0.005905
      899.840000       0.005828
      899.880000       0.005750
      899.920000       0.005672
      899.960000       0.005595
      900.000000       0.005518
      900.040000       0.005442
      900.080000       0.005366
      900.120000       0.005290
      900.160000       0.005214
      900.200000       0.005139
      900.240000       0.005063
      900.280000       0.004989
      900.320000       0.004914
      900.360000       0.004840
      900.400000       0.004766
      900.440000       0.004693
      900.480000       0.004620
      900.520000       0.004547
      900.560000       0.004474
      900.600000       0.004402
      900.640000       0.004330
      900.680000       0.004259
      900.720000       0.004188
      900.760000       0.004117
      900.800000       0.004046
      900.840000       0.003976
      900.880000       0.003907
      900.920000       0.003837
      900.960000       0.003768
      901.000000       0.003699
      901.040000       0.003631
      901.080000       0.003564
      901.120000       0.003496
      901.160000       0.003429
      901.200000       0.003362
      901.240000       0.003296
      901.280000       0.003230
      901.320000       0.003165
      901.360000       0.003100
      901.400000       0.003035
      901.440000       0.002971
      901.480000       0.002907
      901.520000       0.002844
      901.560000       0.002781
      901.600000       0.002718
      901.640000       0.002656
      901.680000       0.002595
      901.720000       0.002534
      901.760000       0.002473
      901.800000       0.002413
      901.840000       0.002353
      901.880000       0.002295
      901.920000       0.002246
      901.960000       0.002197
      902.000000       0.002149
      902.040000       0.002102
      902.080000       0.002055
      902.120000       0.002009
      902.160000       0.001964
      902.200000       0.001919
      902.240000       0.001874
      902.280000       0.001830
      902.320000       0.001787
      902.360000       0.001744
      902.400000       0.001702
      902.440000       0.001661
      902.480000       0.001620
      902.520000       0.001580
      902.560000       0.001540
      902.600000       0.001501
      902.640000       0.001462
      902.680000       0.001424
      902.720000       0.001386
      902.760000       0.001349
      902.800000       0.001313
      902.840000       0.001277
      902.880000       0.001242
      902.920000       0.001207
      902.960000       0.001173
      903.000000       0.001140
      903.040000       0.001106
      903.080000       0.001074
      903.120000       0.001042
      903.160000       0.001011
      903.200000       0.000980
      903.240000       0.000950
      903.280000       0.000920
      903.320000       0.000891
      903.360000       0.000862
      903.400000       0.000834
      903.440000       0.000806
      903.480000       0.000779
      903.520000       0.000753
      903.560000       0.000727
      903.600000       0.000701
      903.640000       0.000676
      903.680000       0.000652
      903.720000       0.000628
      903.760000       0.000604
      903.800000       0.000581
      903.840000       0.000559
      903.880000       0.000537
      903.920000       0.000516
      903.960000       0.000495
      904.000000       0.000474
      904.040000       0.000454
      904.080000       0.000435
      904.120000       0.000416
      904.160000       0.000397
      904.200000       0.000379
      904.240000       0.000362
      904.280000       0.000345
      904.320000       0.000328
      904.360000       0.000312
      904.400000       0.000296
      904.440000       0.000281
      904.480000       0.000266
      904.520000       0.000252
      904.560000       0.000238
      904.600000       0.000224
      904.640000       0.000211
      904.680000       0.000199
      904.720000       0.000186
      904.760000       0.000175
      904.800000       0.000163
      904.840000       0.000152
      904.880000       0.000142
      904.920000       0.000132
      904.960000       0.000122
      905.000000       0.000112
      905.040000       0.000103
      905.080000       0.000095
      905.120000       0.000087
      905.160000       0.000079
      905.200000       0.000071
      905.240000       0.000064
      905.280000       0.000057
      905.320000       0.000051
      905.360000       0.000045
      905.400000       0.000039
      905.440000       0.000034
      905.480000       0.000029
      905.520000       0.000024
      905.560000       0.000020
      905.600000       0.000016
      905.640000       0.000012
      905.680000       0.000008
      905.720000       0.000005
      905.760000       0.000002
      905.800000       0.000000
      905.840000       0.000000
      905.880000       0.000000
      905.920000       0.000000
      905.960000       0.000000
      906.000000       0.000000
      906.040000       0.000000
      906.080000       0.000000
      906.120000       0.000000
      906.160000       0.000000
      906.200000       0.000000
      906.240000       0.000000
      906.280000       0.000000
      906.320000       0.000000
      906.360000       0.000000
      906.400000       0.000000
      906.440000       0.000000
      906.480000       0.000000
      906.520000       0.000000
      906.560000       0.000000
      906.600000       0.000000
      906.640000       0.000000
      906.680000       0.000000
      906.720000       0.000000
      906.760000       0.000000
      906.800000       0.000000
      906.840000       0.000000
      906.880000       0.000000
      906.920000       0.000000
      906.960000       0.000000
      907.000000       0.000000
      907.040000       0.000000
      907.080000       0.000000
      907.120000       0.000000
      907.160000       0.000000
      907.200000       0.000000
      907.240000       0.000000
      907.280000       0.000000
      907.320000       0.000000
      907.360000       0.000000
      907.400000       0.000000
      907.440000       0.000000
      907.480000       0.000000
      907.520000       0.000000
      907.560000       0.000000
      907.600000       0.000000
      907.640000       0.000000
      907.680000       0.000000
      907.720000       0.000000
      907.760000       0.000000
      907.800000       0.000000
      907.840000       0.000000
      907.880000       0.000000
      907.920000       0.000000
      907.960000       0.000000
      908.000000       0.000000
      908.040000       0.000000
      908.080000       0.000000
      908.120000       0.000000
      908.160000       0.000000
      908.200000       0.000000
      908.240000       0.000000
      908.280000       0.000000
      908.320000       0.000000
      908.360000       0.000000
      908.400000       0.000000
      908.440000       0.000000
      908.480000       0.000000
      908.520000       0.000000
      908.560000       0.000000
      908.600000       0.000000
      908.640000       0.000000
      908.680000       0.000000
      908.720000       0.000000
      908.760000       0.000000
      908.800000       0.000000
      908.840000       0.000000
      908.880000       0.000000
      908.920000       0.000000
      908.960000       0.000000
      909.000000       0.000000
      909.040000       0.000000
      909.080000       0.000000
      909.120000       0.000000
      909.160000       0.000000
      909.200000       0.000000
      909.240000       0.000000
      909.280000       0.000000
      909.320000       0.000000
      909.360000       0.000000
      909.400000       0.000000
      909.440000       0.000000
      909.480000       0.000000
      909.520000       0.000000
      909.560000       0.000000
      909.600000       0.000000
      909.640000       0.000000
      909.680000       0.000000
      909.720000       0.000000
      909.760000       0.000000
      909.800000       0.000000
      909.840000       0.000000
      909.880000       0.000000
      909.920000       0.000000
      909.960000       0.000000
      910.000000       0.000000
      910.040000       0.000000
      910.080000       0.000000
      910.120000       0.000000
      910.160000       0.000000
      910.200000       0.000000
      910.240000       0.000000
      910.280000       0.000000
      910.320000       0.000000
      910.360000       0.000000
      910.400000       0.000000
      910.440000       0.000000
      910.480000       0.000000
      910.520000       0.000000
      910.560000       0.000000
      910.600000       0.000000
      910.640000       0.000000
      910.680000       0.000000
      910.720000       0.000000
      910.760000       0.000000
      910.800000       0.000000
      910.840000       0.000000
      910.880000       0.000000
      910.920000       0.000000
      910.960000       0.000000
      911.000000       0.000000
      911.040000       0.000000
      911.080000       0.000000
      911.120000       0.000000
      911.160000       0.000000
      911.200000       0.000000
      911.240000       0.000000
      911.280000       0.000000
      911.320000       0.000000
      911.360000       0.000000
      911.400000       0.000000
      911.440000       0.000000
      911.480000       0.000000
      911.520000       0.000000
      911.560000       0.000000
      911.600000       0.000000
      911.640000       0.000000
      911.680000       0.000000
      911.720000       0.000000
      911.760000       0.000000
      911.800000       0.000000
      911.840000       0.000000
      911.880000       0.000000
      911.920000       0.000000
      911.960000       0.000000
      912.000000       0.000000
      912.040000       0.000000
      912.080000       0.000000
      912.120000       0.000000
      912.160000       0.000000
      912.200000       0.000000
      912.240000       0.000000
      912.280000       0.000000
      912.320000       0.000000
      912.360000       0.000000
      912.400000       0.000000
      912.440000       0.000000
      912.480000       0.000000
      912.520000       0.000000
      912.560000       0.000000
      912.600000       0.000000
      912.640000       0.000000
      912.680000       0.000000
      912.720000       0.000000
      912.760000       0.000000
      912.800000       0.000000
      912.840000       0.000000
      912.880000       0.000000
      912.920000       0.000000
      912.960000       0.000000
      913.000000       0.000000
      913.040000       0.000000
      913.080000       0.000000
      913.120000       0.000000
      913.160000       0.000000
      913.200000       0.000000
      913.240000       0.000000
      913.280000       0.000000
      913.320000       0.000000
      913.360000       0.000000
      913.400000       0.000000
      913.440000       0.000000
      913.480000       0.000000
      913.520000       0.000000
      913.560000       0.000000
      913.600000       0.000000
      913.640000       0.000000
      913.680000       0.000000
      913.720000       0.000000
      913.760000       0.000000
      913.800000       0.000000
      913.840000       0.000000
      913.880000       0.000000
      913.920000       0.000000
      913.960000       0.000000
      914.000000       0.000000
      914.040000       0.000000
      914.080000       0.000000
      914.120000       0.000000
      914.160000       0.000000
      914.200000       0.000000
      914.240000       0.000000
      914.280000       0.000000
      914.320000       0.000000
      914.360000       0.000000
      914.400000       0.000000
      914.440000       0.000000
      914.480000       0.000000
      914.520000       0.000000
      914.560000       0.000000
      914.600000       0.000000
      914.640000       0.000000
      914.680000       0.000000
      914.720000       0.000000
      914.760000       0.000000
      914.800000       0.000000
      914.840000       0.000000
      914.880000       0.000000
      914.920000       0.000000
      914.960000       0.000000
      915.000000       0.000000
      915.040000       0.000000
      915.080000       0.000000
      915.120000       0.000000
      915.160000       0.000000
      915.200000       0.000000
      915.240000       0.000000
      915.280000       0.000000
      915.320000       0.000000
      915.360000       0.000000
      915.400000       0.000000
      915.440000       0.000000
      915.480000       0.000000
      915.520000       0.000000
      915.560000       0.000000
      915.600000       0.000000
      915.640000       0.000000
      915.680000       0.000000
      915.720000       0.000000
      915.760000       0.000000
      915.800000       0.000000
      915.840000       0.000000
      915.880000       0.000000
      915.920000       0.000000
      915.960000       0.000000
      916.000000       0.000000
      916.040000       0.000000
      916.080000       0.000000
      916.120000       0.000000
      916.160000       0.000000
      916.200000       0.000000
      916.240000       0.000000
      916.280000       0.000000
      916.320000       0.000000
      916.360000       0.000000
      916.400000       0.000000
      916.440000       0.000000
      916.480000       0.000000
      916.520000       0.000000
      916.560000       0.000000
      916.600000       0.000000
      916.640000       0.000000
      916.680000       0.000000
      916.720000       0.000000
      916.760000       0.000000
      916.800000       0.000000
      916.840000       0.000000
      916.880000       0.000000
      916.920000       0.000000
      916.960000       0.000000
      917.000000       0.000000
      917.040000       0.000000
      917.080000       0.000000
      917.120000       0.000000
      917.160000       0.000000
      917.200000       0.000000
      917.240000       0.000000
      917.280000       0.000000
      917.320000       0.000000
      917.360000       0.000000
      917.400000       0.000000
      917.440000       0.000000
      917.480000       0.000000
      917.520000       0.000000
      917.560000       0.000000
      917.600000       0.000000
      917.640000       0.000000
      917.680000       0.000000
      917.720000       0.000000
      917.760000       0.000000
      917.800000       0.000000
      917.840000       0.000000
      917.880000       0.000000
      917.920000       0.000000
      917.960000       0.000000
      918.000000       0.000000
      918.040000       0.000000
      918.080000       0.000000
      918.120000       0.000000
      918.160000       0.000000
      918.200000       0.000000
      918.240000       0.000000
      918.280000       0.000000
      918.320000       0.000000
      918.360000       0.000000
      918.400000       0.000000
      918.440000       0.000000
      918.480000       0.000000
      918.520000       0.000000
      918.560000       0.000000
      918.600000       0.000000
      918.640000       0.000000
      918.680000       0.000000
      918.720000       0.000000
      918.760000       0.000000
      918.800000       0.000000
      918.840000       0.000000
      918.880000       0.000000
      918.920000       0.000000
      918.960000       0.000000
      919.000000       0.000000
      919.040000       0.000000
      919.080000       0.000000
      919.120000       0.000000
      919.160000       0.000000
      919.200000       0.000000
      919.240000       0.000000
      919.280000       0.000000
      919.320000       0.000000
      919.360000       0.000000
      919.400000       0.000000
      919.440000       0.000000
      919.480000       0.000000
      919.520000       0.000000
      919.560000       0.000000
      919.600000       0.000000
      919.640000       0.000000
      919.680000       0.000000
      919.720000       0.000000
      919.760000       0.000000
      919.800000       0.000000
      919.840000       0.000000
      919.880000       0.000000
      919.920000       0.000000
      919.960000       0.000000
      920.000000       0.000000
      920.040000       0.000000
      920.080000       0.000000
      920.120000       0.000000
      920.160000       0.000000
      920.200000       0.000000
      920.240000       0.000000
      920.280000       0.000000
      920.320000       0.000000
      920.360000       0.000000
      920.400000       0.000000
      920.440000       0.000000
      920.480000       0.000000
      920.520000       0.000000
      920.560000       0.000000
      920.600000       0.000000
      920.640000       0.000000
      920.680000       0.000000
      920.720000       0.000000
      920.760000       0.000000
      920.800000       0.000000
      920.840000       0.000000
      920.880000       0.000000
      920.920000       0.000000
      920.960000       0.000000
      921.000000       0.000000
      921.040000       0.000000
      921.080000       0.000000
      921.120000       0.000000
      921.160000       0.000000
      921.200000       0.000000
      921.240000       0.000000
      921.280000       0.000000
      921.320000       0.000000
      921.360000       0.000000
      921.400000       0.000000
      921.440000       0.000000
      921.480000       0.000000
      921.520000       0.000000
      921.560000       0.000000
      921.600000       0.000000
      921.640000       0.000000
      921.680000       0.000000
      921.720000       0.000000
      921.760000       0.000000
      921.800000       0.000000
      921.840000       0.000000
      921.880000       0.000000
      921.920000       0.000000
      921.960000       0.000000
      922.000000       0.000000
      922.040000       0.000000
      922.080000       0.000000
      922.120000       0.000000
      922.160000       0.000000
      922.200000       0.000000
      922.240000       0.000000
      922.280000       0.000000
      922.320000       0.000000
      922.360000       0.000000
      922.400000       0.000000
      922.440000       0.000000
      922.480000       0.000000
      922.520000       0.000000
      922.560000       0.000000
      922.600000       0.000000
      922.640000       0.000000
      922.680000       0.000000
      922.720000       0.000000
      922.760000       0.000000
      922.800000       0.000000
      922.840000       0.000000
      922.880000       0.000000
      922.920000       0.000000
      922.960000       0.000000
      923.000000       0.000000
      923.040000       0.000000
      923.080000       0.000000
      923.120000       0.000000
      923.160000       0.000000
      923.200000       0.000000
      923.240000       0.000000
      923.280000       0.000000
      923.320000       0.000000
      923.360000       0.000000
      923.400000       0.000000
      923.440000       0.000000
      923.480000       0.000000
      923.520000       0.000000
      923.560000       0.000000
      923.600000       0.000000
      923.640000       0.000000
      923.680000       0.000000
      923.720000       0.000000
      923.760000       0.000000
      923.800000       0.000000
