133,   133, MVIRI VIS channel from srf_MET7_2014078_2014079_1801-Release_S10EE_10.dat
Number of data points:
793
Wavenumber (cm-1)   Filter response
     8442.380800       0.000000
     8449.514200       0.000000
     8456.659600       0.000004
     8463.817200       0.000057
     8470.986900       0.000168
     8478.168700       0.000336
     8485.362700       0.000560
     8492.569000       0.000837
     8499.787500       0.001166
     8507.018300       0.001545
     8514.261400       0.001974
     8521.516800       0.002451
     8528.784600       0.002973
     8536.064900       0.003541
     8543.357500       0.004153
     8550.662700       0.004807
     8557.980300       0.005502
     8565.310500       0.006238
     8572.653200       0.007012
     8580.008600       0.007825
     8587.376600       0.008675
     8594.757200       0.009561
     8602.150500       0.010483
     8609.556600       0.011439
     8616.975400       0.012428
     8624.407100       0.013450
     8631.851500       0.014504
     8639.308900       0.015589
     8646.779100       0.016705
     8654.262200       0.017850
     8661.758300       0.019025
     8669.267400       0.020228
     8676.789600       0.021459
     8684.324800       0.022718
     8691.873100       0.024004
     8699.434500       0.025316
     8707.009100       0.026654
     8714.596900       0.028017
     8722.198000       0.029406
     8729.812300       0.030819
     8737.439900       0.032257
     8745.080900       0.033719
     8752.735200       0.035204
     8760.403000       0.036713
     8768.084200       0.038245
     8775.778900       0.039800
     8783.487000       0.041377
     8791.208800       0.042977
     8798.944100       0.044599
     8806.693100       0.046242
     8814.455700       0.047908
     8822.232000       0.049595
     8830.022100       0.051304
     8837.825900       0.053034
     8845.643500       0.054786
     8853.475000       0.056558
     8861.320300       0.058352
     8869.179600       0.060166
     8877.052800       0.062002
     8884.940000       0.063859
     8892.841300       0.065736
     8900.756600       0.067634
     8908.686000       0.069553
     8916.629500       0.071493
     8924.587200       0.073454
     8932.559200       0.075435
     8940.545400       0.077437
     8948.545900       0.079460
     8956.560700       0.081504
     8964.589900       0.083569
     8972.633500       0.085655
     8980.691500       0.087762
     8988.764000       0.089889
     8996.851100       0.092038
     9004.952700       0.094209
     9013.068900       0.096400
     9021.199800       0.098612
     9029.345400       0.100847
     9037.505600       0.103102
     9045.680700       0.105379
     9053.870500       0.107678
     9062.075200       0.109998
     9070.294800       0.112340
     9078.529300       0.114704
     9086.778700       0.117090
     9095.043200       0.119498
     9103.322700       0.121928
     9111.617300       0.124381
     9119.927000       0.126855
     9128.251900       0.129353
     9136.592100       0.131872
     9144.947400       0.134414
     9153.318100       0.136979
     9161.704100       0.139566
     9170.105500       0.142177
     9178.522300       0.144810
     9186.954500       0.147466
     9195.402300       0.150146
     9203.865600       0.152848
     9212.344500       0.155574
     9220.839100       0.158323
     9229.349300       0.161095
     9237.875300       0.163891
     9246.417000       0.166709
     9254.974500       0.169552
     9263.547900       0.172418
     9272.137200       0.175308
     9280.742500       0.178221
     9289.363700       0.181158
     9298.000900       0.184118
     9306.654300       0.187103
     9315.323700       0.190111
     9324.009300       0.193143
     9332.711200       0.196198
     9341.429200       0.199277
     9350.163600       0.202381
     9358.914400       0.205507
     9367.681500       0.208658
     9376.465100       0.211833
     9385.265100       0.215031
     9394.081700       0.218253
     9402.914900       0.221498
     9411.764700       0.224767
     9420.631200       0.228060
     9429.514400       0.231376
     9438.414300       0.234716
     9447.331100       0.238079
     9456.264800       0.241465
     9465.215300       0.244875
     9474.182900       0.248308
     9483.167400       0.251764
     9492.169000       0.255243
     9501.187600       0.258745
     9510.223500       0.262270
     9519.276500       0.265817
     9528.346800       0.269387
     9537.434400       0.272979
     9546.539400       0.276594
     9555.661700       0.280231
     9564.801500       0.283890
     9573.958800       0.287570
     9583.133700       0.291273
     9592.326100       0.294997
     9601.536200       0.298742
     9610.764100       0.302509
     9620.009600       0.306296
     9629.273000       0.310105
     9638.554200       0.313934
     9647.853400       0.317783
     9657.170400       0.321653
     9666.505600       0.325542
     9675.858700       0.329452
     9685.230000       0.333381
     9694.619500       0.337329
     9704.027200       0.341296
     9713.453100       0.345282
     9722.897400       0.349287
     9732.360100       0.353309
     9741.841200       0.357351
     9751.340800       0.361409
     9760.859000       0.365485
     9770.395700       0.369579
     9779.951100       0.373688
     9789.525200       0.377815
     9799.118100       0.381959
     9808.729800       0.386117
     9818.360300       0.390292
     9828.009800       0.394482
     9837.678300       0.398687
     9847.365800       0.402907
     9857.072400       0.407141
     9866.798200       0.411390
     9876.543200       0.415651
     9886.307500       0.419926
     9896.091000       0.424215
     9905.894000       0.428515
     9915.716400       0.432828
     9925.558300       0.437153
     9935.419800       0.441489
     9945.300800       0.445837
     9955.201600       0.450195
     9965.122100       0.454564
     9975.062300       0.458942
     9985.022500       0.463330
     9995.002500       0.467728
    10005.002500       0.472133
    10015.022500       0.476548
    10025.062700       0.480970
    10035.122900       0.485400
    10045.203400       0.489836
    10055.304200       0.494280
    10065.425300       0.498730
    10075.566800       0.503186
    10085.728700       0.507646
    10095.911200       0.512113
    10106.114200       0.516583
    10116.337900       0.521058
    10126.582300       0.525536
    10136.847400       0.530017
    10147.133400       0.534501
    10157.440300       0.538987
    10167.768200       0.543476
    10178.117000       0.547965
    10188.487000       0.552455
    10198.878100       0.556947
    10209.290500       0.561437
    10219.724100       0.565928
    10230.179000       0.570417
    10240.655400       0.574905
    10251.153300       0.579392
    10261.672700       0.583875
    10272.213700       0.588356
    10282.776300       0.592834
    10293.360800       0.597308
    10303.967000       0.601778
    10314.595200       0.606243
    10325.245200       0.610702
    10335.917300       0.615157
    10346.611500       0.619604
    10357.327800       0.624046
    10368.066400       0.628480
    10378.827200       0.632906
    10389.610400       0.637325
    10400.416000       0.641735
    10411.244100       0.646136
    10422.094800       0.650528
    10432.968200       0.654909
    10443.864200       0.659281
    10454.783100       0.663641
    10465.724800       0.667990
    10476.689400       0.672327
    10487.677000       0.676651
    10498.687700       0.680963
    10509.721500       0.685262
    10520.778500       0.689547
    10531.858900       0.693817
    10542.962600       0.698073
    10554.089700       0.702314
    10565.240400       0.706539
    10576.414600       0.710748
    10587.612500       0.714941
    10598.834100       0.719117
    10610.079600       0.723275
    10621.348900       0.727415
    10632.642200       0.731537
    10643.959600       0.735641
    10655.301000       0.739725
    10666.666700       0.743789
    10678.056600       0.747833
    10689.470900       0.751857
    10700.909600       0.755860
    10712.372800       0.759841
    10723.860600       0.763801
    10735.373100       0.767738
    10746.910300       0.771653
    10758.472300       0.775544
    10770.059200       0.779412
    10781.671200       0.783256
    10793.308100       0.787076
    10804.970300       0.790871
    10816.657700       0.794641
    10828.370300       0.798386
    10840.108400       0.802104
    10851.871900       0.805796
    10863.661100       0.809462
    10875.475800       0.813100
    10887.316300       0.816712
    10899.182600       0.820295
    10911.074700       0.823850
    10922.992900       0.827377
    10934.937100       0.830875
    10946.907500       0.834343
    10958.904100       0.837782
    10970.927000       0.841191
    10982.976400       0.844570
    10995.052200       0.847918
    11007.154700       0.851236
    11019.283700       0.854522
    11031.439600       0.857777
    11043.622300       0.860999
    11055.832000       0.864190
    11068.068600       0.867348
    11080.332400       0.870474
    11092.623400       0.873566
    11104.941700       0.876625
    11117.287400       0.879651
    11129.660500       0.882642
    11142.061300       0.885600
    11154.489700       0.888523
    11166.945800       0.891412
    11179.429800       0.894265
    11191.941800       0.897084
    11204.481800       0.899867
    11217.049900       0.902615
    11229.646300       0.905326
    11242.270900       0.908002
    11254.924000       0.910642
    11267.605600       0.913245
    11280.315800       0.915811
    11293.054800       0.918341
    11305.822500       0.920834
    11318.619100       0.923289
    11331.444800       0.925707
    11344.299500       0.928088
    11357.183400       0.930430
    11370.096600       0.932736
    11383.039300       0.935003
    11396.011400       0.937231
    11409.013100       0.939422
    11422.044500       0.941574
    11435.105800       0.943688
    11448.196900       0.945763
    11461.318100       0.947799
    11474.469300       0.949797
    11487.650800       0.951755
    11500.862600       0.953675
    11514.104800       0.955555
    11527.377500       0.957397
    11540.680900       0.959199
    11554.015000       0.960962
    11567.380000       0.962685
    11580.775900       0.964369
    11594.202900       0.966014
    11607.661100       0.967619
    11621.150500       0.969185
    11634.671300       0.970711
    11648.223600       0.972198
    11661.807600       0.973645
    11675.423200       0.975053
    11689.070700       0.976421
    11702.750100       0.977750
    11716.461600       0.979039
    11730.205300       0.980289
    11743.981200       0.981499
    11757.789500       0.982670
    11771.630400       0.983802
    11785.503800       0.984895
    11799.410000       0.985948
    11813.349100       0.986962
    11827.321100       0.987938
    11841.326200       0.988874
    11855.364600       0.989771
    11869.436200       0.990630
    11883.541300       0.991450
    11897.680000       0.992231
    11911.852300       0.992974
    11926.058400       0.993679
    11940.298500       0.994345
    11954.572600       0.994974
    11968.880900       0.995564
    11983.223500       0.996117
    11997.600500       0.996633
    12012.012000       0.997110
    12026.458200       0.997551
    12040.939200       0.997954
    12055.455100       0.998321
    12070.006000       0.998651
    12084.592100       0.998944
    12099.213600       0.999201
    12113.870400       0.999422
    12128.562800       0.999606
    12143.290800       0.999756
    12158.054700       0.999869
    12172.854500       0.999948
    12187.690400       0.999991
    12202.562500       1.000000
    12217.471000       0.999974
    12232.415900       0.999914
    12247.397400       0.999820
    12262.415700       0.999692
    12277.470800       0.999531
    12292.563000       0.999336
    12307.692300       0.999109
    12322.858900       0.998848
    12338.062900       0.998556
    12353.304500       0.998231
    12368.583800       0.997875
    12383.900900       0.997487
    12399.256000       0.997068
    12414.649300       0.996619
    12430.080800       0.996138
    12445.550700       0.995628
    12461.059200       0.995087
    12476.606400       0.994518
    12492.192400       0.993919
    12507.817400       0.993291
    12523.481500       0.992634
    12539.185000       0.991950
    12554.927800       0.991237
    12570.710200       0.990498
    12586.532400       0.989731
    12602.394500       0.988937
    12618.296500       0.988117
    12634.238800       0.987272
    12650.221400       0.986400
    12666.244500       0.985504
    12682.308200       0.984582
    12698.412700       0.983636
    12714.558200       0.982667
    12730.744700       0.981673
    12746.972600       0.980656
    12763.241900       0.979617
    12779.552700       0.978555
    12795.905300       0.977471
    12812.299800       0.976366
    12828.736400       0.975239
    12845.215200       0.974092
    12861.736300       0.972924
    12878.300100       0.971736
    12894.906500       0.970529
    12911.555800       0.969303
    12928.248200       0.968058
    12944.983800       0.966794
    12961.762800       0.965514
    12978.585300       0.964215
    12995.451600       0.962900
    13012.361700       0.961569
    13029.316000       0.960221
    13046.314400       0.958858
    13063.357300       0.957480
    13080.444700       0.956087
    13097.576900       0.954679
    13114.754100       0.953258
    13131.976400       0.951824
    13149.243900       0.950377
    13166.556900       0.948917
    13183.915600       0.947445
    13201.320100       0.945962
    13218.770700       0.944467
    13236.267400       0.942962
    13253.810500       0.941447
    13271.400100       0.939922
    13289.036500       0.938388
    13306.719900       0.936845
    13324.450400       0.935294
    13342.228200       0.933734
    13360.053400       0.932167
    13377.926400       0.930593
    13395.847300       0.929013
    13413.816200       0.927426
    13431.833400       0.925834
    13449.899100       0.924237
    13468.013500       0.922634
    13486.176700       0.921028
    13504.388900       0.919417
    13522.650400       0.917803
    13540.961400       0.916187
    13559.322000       0.914567
    13577.732500       0.912946
    13596.193100       0.911322
    13614.703900       0.909698
    13633.265200       0.908072
    13651.877100       0.906447
    13670.540000       0.904821
    13689.253900       0.903196
    13708.019200       0.901572
    13726.836000       0.899949
    13745.704500       0.898327
    13764.624900       0.896708
    13783.597500       0.895092
    13802.622500       0.893478
    13821.700100       0.891868
    13840.830400       0.890262
    13860.013900       0.888660
    13879.250500       0.887062
    13898.540700       0.885470
    13917.884500       0.883883
    13937.282200       0.882301
    13956.734100       0.880726
    13976.240400       0.879157
    13995.801300       0.877596
    14015.417000       0.876041
    14035.087700       0.874494
    14054.813800       0.872956
    14074.595400       0.871425
    14094.432700       0.869904
    14114.326000       0.868391
    14134.275600       0.866888
    14154.281700       0.865394
    14174.344400       0.863911
    14194.464200       0.862438
    14214.641100       0.860976
    14234.875400       0.859525
    14255.167500       0.858086
    14275.517500       0.856658
    14295.925700       0.855242
    14316.392300       0.853838
    14336.917600       0.852447
    14357.501800       0.851069
    14378.145200       0.849704
    14398.848100       0.848353
    14419.610700       0.847015
    14440.433200       0.845691
    14461.316000       0.844382
    14482.259200       0.843086
    14503.263200       0.841806
    14524.328200       0.840541
    14545.454500       0.839291
    14566.642400       0.838056
    14587.892000       0.836837
    14609.203800       0.835634
    14630.577900       0.834447
    14652.014700       0.833276
    14673.514300       0.832121
    14695.077100       0.830984
    14716.703500       0.829863
    14738.393500       0.828759
    14760.147600       0.827672
    14781.966000       0.826602
    14803.849000       0.825550
    14825.796900       0.824516
    14847.809900       0.823499
    14869.888500       0.822500
    14892.032800       0.821520
    14914.243100       0.820557
    14936.519800       0.819612
    14958.863100       0.818686
    14981.273400       0.817778
    15003.750900       0.816888
    15026.296000       0.816017
    15048.909000       0.815165
    15071.590100       0.814331
    15094.339600       0.813516
    15117.158000       0.812719
    15140.045400       0.811941
    15163.002300       0.811182
    15186.028900       0.810442
    15209.125500       0.809720
    15232.292500       0.809018
    15255.530100       0.808334
    15278.838800       0.807668
    15302.218800       0.807022
    15325.670500       0.806394
    15349.194200       0.805785
    15372.790200       0.805194
    15396.458800       0.804622
    15420.200500       0.804068
    15444.015400       0.803532
    15467.904100       0.803015
    15491.866800       0.802516
    15515.903800       0.802034
    15540.015500       0.801571
    15564.202300       0.801126
    15588.464500       0.800698
    15612.802500       0.800287
    15637.216600       0.799894
    15661.707100       0.799518
    15686.274500       0.799159
    15710.919100       0.798817
    15735.641200       0.798492
    15760.441300       0.798183
    15785.319700       0.797890
    15810.276700       0.797613
    15835.312700       0.797352
    15860.428200       0.797106
    15885.623500       0.796876
    15910.899000       0.796660
    15936.255000       0.796460
    15961.691900       0.796273
    15987.210200       0.796102
    16012.810200       0.795944
    16038.492400       0.795799
    16064.257000       0.795668
    16090.104600       0.795550
    16116.035500       0.795444
    16142.050000       0.795351
    16168.148700       0.795270
    16194.332000       0.795200
    16220.600200       0.795142
    16246.953700       0.795095
    16273.393000       0.795058
    16299.918500       0.795031
    16326.530600       0.795014
    16353.229800       0.795006
    16380.016400       0.795007
    16406.890900       0.795017
    16433.853700       0.795034
    16460.905300       0.795060
    16488.046200       0.795092
    16515.276600       0.795131
    16542.597200       0.795176
    16570.008300       0.795228
    16597.510400       0.795284
    16625.103900       0.795345
    16652.789300       0.795411
    16680.567100       0.795480
    16708.437800       0.795553
    16736.401700       0.795628
    16764.459300       0.795705
    16792.611300       0.795785
    16820.857900       0.795865
    16849.199700       0.795946
    16877.637100       0.796027
    16906.170800       0.796108
    16934.801000       0.796188
    16963.528400       0.796265
    16992.353400       0.796341
    17021.276600       0.796414
    17050.298400       0.796483
    17079.419300       0.796549
    17108.639900       0.796609
    17137.960600       0.796665
    17167.382000       0.796714
    17196.904600       0.796757
    17226.528900       0.796793
    17256.255400       0.796822
    17286.084700       0.796841
    17316.017300       0.796852
    17346.053800       0.796853
    17376.194600       0.796843
    17406.440400       0.796823
    17436.791600       0.796790
    17467.248900       0.796746
    17497.812800       0.796688
    17528.483800       0.796616
    17559.262500       0.796530
    17590.149500       0.796429
    17621.145400       0.796311
    17652.250700       0.796178
    17683.466000       0.796027
    17714.791900       0.795858
    17746.228900       0.795670
    17777.777800       0.795463
    17809.439000       0.795236
    17841.213200       0.794988
    17873.101000       0.794718
    17905.103000       0.794426
    17937.219700       0.794111
    17969.451900       0.793772
    18001.800200       0.793409
    18034.265100       0.793020
    18066.847300       0.792606
    18099.547500       0.792165
    18132.366300       0.791696
    18165.304300       0.791199
    18198.362100       0.790673
    18231.540600       0.790118
    18264.840200       0.789532
    18298.261700       0.788915
    18331.805700       0.788267
    18365.472900       0.787585
    18399.264000       0.786871
    18433.179700       0.786122
    18467.220700       0.785338
    18501.387600       0.784519
    18535.681200       0.783664
    18570.102100       0.782771
    18604.651200       0.781841
    18639.329000       0.780872
    18674.136300       0.779865
    18709.073900       0.778817
    18744.142500       0.777729
    18779.342700       0.776599
    18814.675400       0.775427
    18850.141400       0.774213
    18885.741300       0.772955
    18921.475900       0.771653
    18957.346000       0.770306
    18993.352300       0.768914
    19029.495700       0.767476
    19065.776900       0.765991
    19102.196800       0.764458
    19138.756000       0.762877
    19175.455400       0.761247
    19212.295900       0.759568
    19249.278200       0.757839
    19286.403100       0.756059
    19323.671500       0.754227
    19361.084200       0.752344
    19398.642100       0.750408
    19436.346000       0.748419
    19474.196700       0.746376
    19512.195100       0.744279
    19550.342100       0.742127
    19588.638600       0.739920
    19627.085400       0.737657
    19665.683400       0.735336
    19704.433500       0.732960
    19743.336600       0.730525
    19782.393700       0.728032
    19821.605600       0.725481
    19860.973200       0.722871
    19900.497500       0.720201
    19940.179500       0.717472
    19980.020000       0.714682
    20020.020000       0.711831
    20060.180500       0.708920
    20100.502500       0.705946
    20140.986900       0.702911
    20181.634700       0.699813
    20222.446900       0.696653
    20263.424500       0.693430
    20304.568500       0.690143
    20345.880000       0.686793
    20387.359800       0.683380
    20429.009200       0.679902
    20470.829100       0.676359
    20512.820500       0.672753
    20554.984600       0.669081
    20597.322300       0.665345
    20639.834900       0.661543
    20682.523300       0.657677
    20725.388600       0.653745
    20768.432000       0.649747
    20811.654500       0.645684
    20855.057400       0.641556
    20898.641600       0.637362
    20942.408400       0.633103
    20986.358900       0.628778
    21030.494200       0.624387
    21074.815600       0.619931
    21119.324200       0.615410
    21164.021200       0.610823
    21208.907700       0.606172
    21253.985100       0.601455
    21299.254500       0.596674
    21344.717200       0.591828
    21390.374300       0.586918
    21436.227200       0.581944
    21482.277100       0.576907
    21528.525300       0.571806
    21574.973000       0.566642
    21621.621600       0.561416
    21668.472400       0.556128
    21715.526600       0.550778
    21762.785600       0.545367
    21810.250800       0.539895
    21857.923500       0.534363
    21905.805000       0.528771
    21953.896800       0.523121
    22002.200200       0.517413
    22050.716600       0.511647
    22099.447500       0.505824
    22148.394200       0.499945
    22197.558300       0.494011
    22246.941000       0.488022
    22296.544000       0.481980
    22346.368700       0.475885
    22396.416600       0.469739
    22446.689100       0.463542
    22497.187900       0.457295
    22547.914300       0.451000
    22598.870100       0.444656
    22650.056600       0.438267
    22701.475600       0.431832
    22753.128600       0.425354
    22805.017100       0.418832
    22857.142900       0.412269
    22909.507400       0.405666
    22962.112500       0.399025
    23014.959700       0.392346
    23068.050700       0.385631
    23121.387300       0.378882
    23174.971000       0.372101
    23228.803700       0.365288
    23282.887100       0.358446
    23337.222900       0.351576
    23391.812900       0.344681
    23446.658900       0.337761
    23501.762600       0.330819
    23557.126000       0.323857
    23612.750900       0.316876
    23668.639100       0.309879
    23724.792400       0.302867
    23781.212800       0.295844
    23837.902300       0.288810
    23894.862600       0.281768
    23952.095800       0.274721
    24009.603800       0.267671
    24067.388700       0.260620
    24125.452400       0.253570
    24183.796900       0.246524
    24242.424200       0.239485
    24301.336600       0.232455
    24360.535900       0.225437
    24420.024400       0.218434
    24479.804200       0.211447
    24539.877300       0.204481
    24600.246000       0.197538
    24660.912500       0.190621
    24721.878900       0.183733
    24783.147500       0.176877
    24844.720500       0.170057
    24906.600200       0.163274
    24968.789000       0.156533
    25031.289100       0.149838
    25094.102900       0.143190
    25157.232700       0.136595
    25220.681000       0.130054
    25284.450100       0.123573
    25348.542500       0.117154
    25412.960600       0.110801
    25477.707000       0.104519
