   5  ,noaa_12_hirs_05.flt
Number of data points:
102
Wavenumber (cm-1)   Filter response
      690.090000       0.000000
      690.660000       0.001717
      691.250000       0.002767
      691.820000       0.002795
      692.400000       0.003879
      692.980000       0.003919
      693.560000       0.004840
      694.130000       0.006072
      694.700000       0.006128
      695.290000       0.007397
      695.860000       0.007465
      696.440000       0.008769
      697.020000       0.008851
      697.600000       0.010086
      698.170000       0.011449
      698.750000       0.013267
      699.330000       0.016838
      699.900000       0.023083
      700.500000       0.029801
      701.080000       0.035716
      701.660000       0.044083
      702.240000       0.056888
      702.820000       0.073433
      703.400000       0.094155
      703.970000       0.117770
      704.570000       0.149300
      705.160000       0.191800
      705.760000       0.244380
      706.330000       0.304630
      706.860000       0.374210
      707.440000       0.451770
      708.010000       0.516770
      708.580000       0.586630
      709.170000       0.666970
      709.760000       0.725740
      710.370000       0.770100
      710.920000       0.813070
      711.490000       0.841260
      712.060000       0.877240
      712.620000       0.906110
      713.180000       0.932980
      713.760000       0.956450
      714.330000       0.972820
      714.900000       0.985620
      715.490000       0.998230
      716.060000       1.000000
      716.640000       0.994790
      717.220000       0.983200
      717.800000       0.967130
      718.420000       0.951900
      719.010000       0.927420
      719.610000       0.898990
      720.180000       0.866850
      720.780000       0.833530
      721.380000       0.792730
      721.940000       0.750910
      722.500000       0.694500
      723.080000       0.643630
      723.650000       0.581580
      724.210000       0.513010
      724.780000       0.447420
      725.390000       0.383200
      725.970000       0.323620
      726.580000       0.276440
      727.150000       0.227630
      727.730000       0.185230
      728.300000       0.149030
      728.880000       0.121000
      729.460000       0.095313
      730.040000       0.076990
      730.620000       0.063544
      731.200000       0.048496
      731.770000       0.039840
      732.360000       0.033595
      732.930000       0.028194
      733.510000       0.025756
      734.090000       0.022874
      734.670000       0.020393
      735.240000       0.017153
      735.820000       0.015344
      736.400000       0.013809
      736.980000       0.012543
      737.550000       0.012613
      738.140000       0.012533
      738.710000       0.010933
      739.290000       0.010077
      739.870000       0.010134
      740.460000       0.007909
      741.040000       0.007979
      741.630000       0.006331
      742.200000       0.006392
      742.780000       0.005664
      743.370000       0.004293
      743.940000       0.004343
      744.520000       0.003110
      745.100000       0.001863
      745.680000       0.001901
      746.260000       0.001940
      746.840000       0.001155
      747.420000       0.000000
      748.000000       0.000000
      750.000000       0.000000
