154,   154, MVIRI VIS channel from srf_MET7_2016303_2016304_1801-Release_S10EE_10.dat
Number of data points:
793
Wavenumber (cm-1)   Filter response
     8442.380800       0.000000
     8449.514200       0.000000
     8456.659600       0.000004
     8463.817200       0.000057
     8470.986900       0.000169
     8478.168700       0.000338
     8485.362700       0.000563
     8492.569000       0.000842
     8499.787500       0.001173
     8507.018300       0.001555
     8514.261400       0.001986
     8521.516800       0.002465
     8528.784600       0.002991
     8536.064900       0.003562
     8543.357500       0.004177
     8550.662700       0.004835
     8557.980300       0.005534
     8565.310500       0.006274
     8572.653200       0.007053
     8580.008600       0.007871
     8587.376600       0.008726
     8594.757200       0.009617
     8602.150500       0.010544
     8609.556600       0.011505
     8616.975400       0.012500
     8624.407100       0.013527
     8631.851500       0.014587
     8639.308900       0.015678
     8646.779100       0.016800
     8654.262200       0.017952
     8661.758300       0.019133
     8669.267400       0.020343
     8676.789600       0.021581
     8684.324800       0.022847
     8691.873100       0.024139
     8699.434500       0.025459
     8707.009100       0.026804
     8714.596900       0.028175
     8722.198000       0.029571
     8729.812300       0.030992
     8737.439900       0.032437
     8745.080900       0.033907
     8752.735200       0.035400
     8760.403000       0.036917
     8768.084200       0.038457
     8775.778900       0.040020
     8783.487000       0.041605
     8791.208800       0.043213
     8798.944100       0.044844
     8806.693100       0.046496
     8814.455700       0.048170
     8822.232000       0.049866
     8830.022100       0.051584
     8837.825900       0.053323
     8845.643500       0.055083
     8853.475000       0.056864
     8861.320300       0.058667
     8869.179600       0.060491
     8877.052800       0.062336
     8884.940000       0.064201
     8892.841300       0.066088
     8900.756600       0.067996
     8908.686000       0.069924
     8916.629500       0.071873
     8924.587200       0.073843
     8932.559200       0.075834
     8940.545400       0.077846
     8948.545900       0.079879
     8956.560700       0.081932
     8964.589900       0.084007
     8972.633500       0.086103
     8980.691500       0.088220
     8988.764000       0.090357
     8996.851100       0.092516
     9004.952700       0.094697
     9013.068900       0.096898
     9021.199800       0.099121
     9029.345400       0.101365
     9037.505600       0.103631
     9045.680700       0.105918
     9053.870500       0.108227
     9062.075200       0.110558
     9070.294800       0.112911
     9078.529300       0.115285
     9086.778700       0.117682
     9095.043200       0.120101
     9103.322700       0.122541
     9111.617300       0.125005
     9119.927000       0.127490
     9128.251900       0.129998
     9136.592100       0.132529
     9144.947400       0.135081
     9153.318100       0.137657
     9161.704100       0.140256
     9170.105500       0.142877
     9178.522300       0.145522
     9186.954500       0.148189
     9195.402300       0.150879
     9203.865600       0.153593
     9212.344500       0.156330
     9220.839100       0.159090
     9229.349300       0.161873
     9237.875300       0.164680
     9246.417000       0.167511
     9254.974500       0.170365
     9263.547900       0.173242
     9272.137200       0.176143
     9280.742500       0.179068
     9289.363700       0.182016
     9298.000900       0.184989
     9306.654300       0.187985
     9315.323700       0.191004
     9324.009300       0.194048
     9332.711200       0.197115
     9341.429200       0.200206
     9350.163600       0.203321
     9358.914400       0.206459
     9367.681500       0.209621
     9376.465100       0.212808
     9385.265100       0.216017
     9394.081700       0.219251
     9402.914900       0.222508
     9411.764700       0.225789
     9420.631200       0.229094
     9429.514400       0.232421
     9438.414300       0.235773
     9447.331100       0.239148
     9456.264800       0.242546
     9465.215300       0.245968
     9474.182900       0.249412
     9483.167400       0.252880
     9492.169000       0.256371
     9501.187600       0.259885
     9510.223500       0.263421
     9519.276500       0.266980
     9528.346800       0.270562
     9537.434400       0.274166
     9546.539400       0.277793
     9555.661700       0.281441
     9564.801500       0.285112
     9573.958800       0.288804
     9583.133700       0.292519
     9592.326100       0.296254
     9601.536200       0.300011
     9610.764100       0.303789
     9620.009600       0.307588
     9629.273000       0.311408
     9638.554200       0.315248
     9647.853400       0.319109
     9657.170400       0.322990
     9666.505600       0.326891
     9675.858700       0.330812
     9685.230000       0.334752
     9694.619500       0.338711
     9704.027200       0.342690
     9713.453100       0.346687
     9722.897400       0.350703
     9732.360100       0.354736
     9741.841200       0.358788
     9751.340800       0.362857
     9760.859000       0.366944
     9770.395700       0.371049
     9779.951100       0.375169
     9789.525200       0.379307
     9799.118100       0.383460
     9808.729800       0.387629
     9818.360300       0.391815
     9828.009800       0.396015
     9837.678300       0.400230
     9847.365800       0.404460
     9857.072400       0.408704
     9866.798200       0.412962
     9876.543200       0.417233
     9886.307500       0.421518
     9896.091000       0.425816
     9905.894000       0.430126
     9915.716400       0.434449
     9925.558300       0.438783
     9935.419800       0.443128
     9945.300800       0.447485
     9955.201600       0.451852
     9965.122100       0.456229
     9975.062300       0.460616
     9985.022500       0.465013
     9995.002500       0.469419
    10005.002500       0.473833
    10015.022500       0.478256
    10025.062700       0.482686
    10035.122900       0.487123
    10045.203400       0.491568
    10055.304200       0.496019
    10065.425300       0.500477
    10075.566800       0.504939
    10085.728700       0.509408
    10095.911200       0.513881
    10106.114200       0.518358
    10116.337900       0.522839
    10126.582300       0.527324
    10136.847400       0.531812
    10147.133400       0.536302
    10157.440300       0.540795
    10167.768200       0.545289
    10178.117000       0.549784
    10188.487000       0.554280
    10198.878100       0.558777
    10209.290500       0.563273
    10219.724100       0.567768
    10230.179000       0.572262
    10240.655400       0.576755
    10251.153300       0.581246
    10261.672700       0.585734
    10272.213700       0.590219
    10282.776300       0.594701
    10293.360800       0.599179
    10303.967000       0.603652
    10314.595200       0.608120
    10325.245200       0.612583
    10335.917300       0.617041
    10346.611500       0.621491
    10357.327800       0.625935
    10368.066400       0.630372
    10378.827200       0.634800
    10389.610400       0.639221
    10400.416000       0.643633
    10411.244100       0.648036
    10422.094800       0.652429
    10432.968200       0.656811
    10443.864200       0.661184
    10454.783100       0.665545
    10465.724800       0.669894
    10476.689400       0.674231
    10487.677000       0.678556
    10498.687700       0.682868
    10509.721500       0.687166
    10520.778500       0.691450
    10531.858900       0.695720
    10542.962600       0.699975
    10554.089700       0.704215
    10565.240400       0.708438
    10576.414600       0.712646
    10587.612500       0.716836
    10598.834100       0.721010
    10610.079600       0.725166
    10621.348900       0.729303
    10632.642200       0.733423
    10643.959600       0.737523
    10655.301000       0.741604
    10666.666700       0.745664
    10678.056600       0.749705
    10689.470900       0.753724
    10700.909600       0.757723
    10712.372800       0.761700
    10723.860600       0.765655
    10735.373100       0.769587
    10746.910300       0.773497
    10758.472300       0.777383
    10770.059200       0.781245
    10781.671200       0.785083
    10793.308100       0.788897
    10804.970300       0.792685
    10816.657700       0.796449
    10828.370300       0.800186
    10840.108400       0.803898
    10851.871900       0.807582
    10863.661100       0.811241
    10875.475800       0.814871
    10887.316300       0.818474
    10899.182600       0.822049
    10911.074700       0.825596
    10922.992900       0.829114
    10934.937100       0.832603
    10946.907500       0.836062
    10958.904100       0.839491
    10970.927000       0.842891
    10982.976400       0.846260
    10995.052200       0.849598
    11007.154700       0.852905
    11019.283700       0.856180
    11031.439600       0.859424
    11043.622300       0.862636
    11055.832000       0.865815
    11068.068600       0.868961
    11080.332400       0.872075
    11092.623400       0.875156
    11104.941700       0.878202
    11117.287400       0.881215
    11129.660500       0.884194
    11142.061300       0.887139
    11154.489700       0.890049
    11166.945800       0.892924
    11179.429800       0.895764
    11191.941800       0.898569
    11204.481800       0.901338
    11217.049900       0.904072
    11229.646300       0.906769
    11242.270900       0.909430
    11254.924000       0.912055
    11267.605600       0.914643
    11280.315800       0.917194
    11293.054800       0.919708
    11305.822500       0.922185
    11318.619100       0.924624
    11331.444800       0.927026
    11344.299500       0.929390
    11357.183400       0.931717
    11370.096600       0.934005
    11383.039300       0.936255
    11396.011400       0.938467
    11409.013100       0.940640
    11422.044500       0.942775
    11435.105800       0.944871
    11448.196900       0.946928
    11461.318100       0.948946
    11474.469300       0.950925
    11487.650800       0.952866
    11500.862600       0.954767
    11514.104800       0.956628
    11527.377500       0.958451
    11540.680900       0.960234
    11554.015000       0.961977
    11567.380000       0.963681
    11580.775900       0.965346
    11594.202900       0.966971
    11607.661100       0.968556
    11621.150500       0.970101
    11634.671300       0.971607
    11648.223600       0.973074
    11661.807600       0.974500
    11675.423200       0.975887
    11689.070700       0.977235
    11702.750100       0.978542
    11716.461600       0.979810
    11730.205300       0.981039
    11743.981200       0.982228
    11757.789500       0.983377
    11771.630400       0.984488
    11785.503800       0.985558
    11799.410000       0.986590
    11813.349100       0.987582
    11827.321100       0.988535
    11841.326200       0.989449
    11855.364600       0.990324
    11869.436200       0.991160
    11883.541300       0.991957
    11897.680000       0.992716
    11911.852300       0.993436
    11926.058400       0.994117
    11940.298500       0.994761
    11954.572600       0.995366
    11968.880900       0.995933
    11983.223500       0.996463
    11997.600500       0.996954
    12012.012000       0.997408
    12026.458200       0.997825
    12040.939200       0.998205
    12055.455100       0.998548
    12070.006000       0.998853
    12084.592100       0.999123
    12099.213600       0.999355
    12113.870400       0.999552
    12128.562800       0.999713
    12143.290800       0.999838
    12158.054700       0.999927
    12172.854500       0.999981
    12187.690400       1.000000
    12202.562500       0.999984
    12217.471000       0.999934
    12232.415900       0.999849
    12247.397400       0.999730
    12262.415700       0.999577
    12277.470800       0.999391
    12292.563000       0.999172
    12307.692300       0.998919
    12322.858900       0.998634
    12338.062900       0.998317
    12353.304500       0.997967
    12368.583800       0.997586
    12383.900900       0.997173
    12399.256000       0.996729
    12414.649300       0.996254
    12430.080800       0.995749
    12445.550700       0.995213
    12461.059200       0.994647
    12476.606400       0.994052
    12492.192400       0.993428
    12507.817400       0.992775
    12523.481500       0.992093
    12539.185000       0.991383
    12554.927800       0.990646
    12570.710200       0.989881
    12586.532400       0.989089
    12602.394500       0.988270
    12618.296500       0.987425
    12634.238800       0.986554
    12650.221400       0.985657
    12666.244500       0.984735
    12682.308200       0.983788
    12698.412700       0.982817
    12714.558200       0.981822
    12730.744700       0.980804
    12746.972600       0.979762
    12763.241900       0.978697
    12779.552700       0.977610
    12795.905300       0.976501
    12812.299800       0.975370
    12828.736400       0.974218
    12845.215200       0.973046
    12861.736300       0.971853
    12878.300100       0.970640
    12894.906500       0.969408
    12911.555800       0.968157
    12928.248200       0.966887
    12944.983800       0.965599
    12961.762800       0.964293
    12978.585300       0.962970
    12995.451600       0.961630
    13012.361700       0.960273
    13029.316000       0.958901
    13046.314400       0.957513
    13063.357300       0.956110
    13080.444700       0.954692
    13097.576900       0.953260
    13114.754100       0.951815
    13131.976400       0.950356
    13149.243900       0.948884
    13166.556900       0.947400
    13183.915600       0.945903
    13201.320100       0.944396
    13218.770700       0.942877
    13236.267400       0.941348
    13253.810500       0.939808
    13271.400100       0.938259
    13289.036500       0.936701
    13306.719900       0.935133
    13324.450400       0.933558
    13342.228200       0.931974
    13360.053400       0.930383
    13377.926400       0.928786
    13395.847300       0.927181
    13413.816200       0.925571
    13431.833400       0.923954
    13449.899100       0.922333
    13468.013500       0.920707
    13486.176700       0.919077
    13504.388900       0.917443
    13522.650400       0.915805
    13540.961400       0.914165
    13559.322000       0.912521
    13577.732500       0.910876
    13596.193100       0.909229
    13614.703900       0.907581
    13633.265200       0.905933
    13651.877100       0.904284
    13670.540000       0.902635
    13689.253900       0.900986
    13708.019200       0.899338
    13726.836000       0.897692
    13745.704500       0.896048
    13764.624900       0.894405
    13783.597500       0.892766
    13802.622500       0.891129
    13821.700100       0.889496
    13840.830400       0.887867
    13860.013900       0.886241
    13879.250500       0.884621
    13898.540700       0.883005
    13917.884500       0.881395
    13937.282200       0.879791
    13956.734100       0.878192
    13976.240400       0.876601
    13995.801300       0.875016
    14015.417000       0.873439
    14035.087700       0.871869
    14054.813800       0.870307
    14074.595400       0.868754
    14094.432700       0.867209
    14114.326000       0.865674
    14134.275600       0.864148
    14154.281700       0.862632
    14174.344400       0.861125
    14194.464200       0.859630
    14214.641100       0.858144
    14234.875400       0.856671
    14255.167500       0.855208
    14275.517500       0.853757
    14295.925700       0.852318
    14316.392300       0.850892
    14336.917600       0.849478
    14357.501800       0.848077
    14378.145200       0.846689
    14398.848100       0.845314
    14419.610700       0.843953
    14440.433200       0.842606
    14461.316000       0.841274
    14482.259200       0.839956
    14503.263200       0.838652
    14524.328200       0.837363
    14545.454500       0.836090
    14566.642400       0.834832
    14587.892000       0.833590
    14609.203800       0.832363
    14630.577900       0.831152
    14652.014700       0.829958
    14673.514300       0.828780
    14695.077100       0.827619
    14716.703500       0.826474
    14738.393500       0.825347
    14760.147600       0.824236
    14781.966000       0.823143
    14803.849000       0.822067
    14825.796900       0.821008
    14847.809900       0.819968
    14869.888500       0.818945
    14892.032800       0.817940
    14914.243100       0.816952
    14936.519800       0.815983
    14958.863100       0.815033
    14981.273400       0.814100
    15003.750900       0.813186
    15026.296000       0.812290
    15048.909000       0.811413
    15071.590100       0.810554
    15094.339600       0.809714
    15117.158000       0.808892
    15140.045400       0.808089
    15163.002300       0.807305
    15186.028900       0.806540
    15209.125500       0.805793
    15232.292500       0.805064
    15255.530100       0.804355
    15278.838800       0.803664
    15302.218800       0.802991
    15325.670500       0.802337
    15349.194200       0.801702
    15372.790200       0.801085
    15396.458800       0.800486
    15420.200500       0.799906
    15444.015400       0.799343
    15467.904100       0.798799
    15491.866800       0.798273
    15515.903800       0.797765
    15540.015500       0.797275
    15564.202300       0.796802
    15588.464500       0.796346
    15612.802500       0.795908
    15637.216600       0.795488
    15661.707100       0.795084
    15686.274500       0.794697
    15710.919100       0.794327
    15735.641200       0.793973
    15760.441300       0.793636
    15785.319700       0.793314
    15810.276700       0.793009
    15835.312700       0.792719
    15860.428200       0.792444
    15885.623500       0.792185
    15910.899000       0.791940
    15936.255000       0.791710
    15961.691900       0.791495
    15987.210200       0.791293
    16012.810200       0.791105
    16038.492400       0.790931
    16064.257000       0.790770
    16090.104600       0.790622
    16116.035500       0.790486
    16142.050000       0.790362
    16168.148700       0.790250
    16194.332000       0.790150
    16220.600200       0.790061
    16246.953700       0.789982
    16273.393000       0.789914
    16299.918500       0.789856
    16326.530600       0.789808
    16353.229800       0.789768
    16380.016400       0.789738
    16406.890900       0.789716
    16433.853700       0.789701
    16460.905300       0.789694
    16488.046200       0.789695
    16515.276600       0.789701
    16542.597200       0.789714
    16570.008300       0.789733
    16597.510400       0.789757
    16625.103900       0.789785
    16652.789300       0.789818
    16680.567100       0.789854
    16708.437800       0.789893
    16736.401700       0.789935
    16764.459300       0.789980
    16792.611300       0.790026
    16820.857900       0.790073
    16849.199700       0.790120
    16877.637100       0.790167
    16906.170800       0.790214
    16934.801000       0.790260
    16963.528400       0.790304
    16992.353400       0.790346
    17021.276600       0.790385
    17050.298400       0.790420
    17079.419300       0.790451
    17108.639900       0.790478
    17137.960600       0.790499
    17167.382000       0.790514
    17196.904600       0.790523
    17226.528900       0.790525
    17256.255400       0.790518
    17286.084700       0.790504
    17316.017300       0.790480
    17346.053800       0.790447
    17376.194600       0.790403
    17406.440400       0.790348
    17436.791600       0.790281
    17467.248900       0.790202
    17497.812800       0.790110
    17528.483800       0.790004
    17559.262500       0.789884
    17590.149500       0.789748
    17621.145400       0.789597
    17652.250700       0.789429
    17683.466000       0.789244
    17714.791900       0.789042
    17746.228900       0.788820
    17777.777800       0.788579
    17809.439000       0.788319
    17841.213200       0.788037
    17873.101000       0.787734
    17905.103000       0.787409
    17937.219700       0.787061
    17969.451900       0.786689
    18001.800200       0.786293
    18034.265100       0.785872
    18066.847300       0.785426
    18099.547500       0.784952
    18132.366300       0.784452
    18165.304300       0.783923
    18198.362100       0.783366
    18231.540600       0.782780
    18264.840200       0.782163
    18298.261700       0.781515
    18331.805700       0.780836
    18365.472900       0.780125
    18399.264000       0.779380
    18433.179700       0.778602
    18467.220700       0.777789
    18501.387600       0.776941
    18535.681200       0.776057
    18570.102100       0.775137
    18604.651200       0.774179
    18639.329000       0.773183
    18674.136300       0.772148
    18709.073900       0.771073
    18744.142500       0.769959
    18779.342700       0.768804
    18814.675400       0.767607
    18850.141400       0.766367
    18885.741300       0.765085
    18921.475900       0.763759
    18957.346000       0.762389
    18993.352300       0.760974
    19029.495700       0.759513
    19065.776900       0.758006
    19102.196800       0.756452
    19138.756000       0.754851
    19175.455400       0.753201
    19212.295900       0.751502
    19249.278200       0.749754
    19286.403100       0.747956
    19323.671500       0.746107
    19361.084200       0.744207
    19398.642100       0.742254
    19436.346000       0.740250
    19474.196700       0.738192
    19512.195100       0.736081
    19550.342100       0.733915
    19588.638600       0.731695
    19627.085400       0.729420
    19665.683400       0.727089
    19704.433500       0.724701
    19743.336600       0.722257
    19782.393700       0.719756
    19821.605600       0.717197
    19860.973200       0.714580
    19900.497500       0.711904
    19940.179500       0.709169
    19980.020000       0.706375
    20020.020000       0.703521
    20060.180500       0.700606
    20100.502500       0.697631
    20140.986900       0.694595
    20181.634700       0.691498
    20222.446900       0.688339
    20263.424500       0.685118
    20304.568500       0.681835
    20345.880000       0.678489
    20387.359800       0.675081
    20429.009200       0.671609
    20470.829100       0.668074
    20512.820500       0.664476
    20554.984600       0.660814
    20597.322300       0.657089
    20639.834900       0.653299
    20682.523300       0.649446
    20725.388600       0.645528
    20768.432000       0.641546
    20811.654500       0.637500
    20855.057400       0.633389
    20898.641600       0.629214
    20942.408400       0.624975
    20986.358900       0.620671
    21030.494200       0.616303
    21074.815600       0.611871
    21119.324200       0.607375
    21164.021200       0.602815
    21208.907700       0.598191
    21253.985100       0.593504
    21299.254500       0.588753
    21344.717200       0.583939
    21390.374300       0.579062
    21436.227200       0.574122
    21482.277100       0.569120
    21528.525300       0.564056
    21574.973000       0.558931
    21621.621600       0.553744
    21668.472400       0.548497
    21715.526600       0.543189
    21762.785600       0.537822
    21810.250800       0.532395
    21857.923500       0.526910
    21905.805000       0.521367
    21953.896800       0.515766
    22002.200200       0.510108
    22050.716600       0.504394
    22099.447500       0.498625
    22148.394200       0.492801
    22197.558300       0.486923
    22246.941000       0.480992
    22296.544000       0.475010
    22346.368700       0.468975
    22396.416600       0.462891
    22446.689100       0.456757
    22497.187900       0.450575
    22547.914300       0.444346
    22598.870100       0.438070
    22650.056600       0.431749
    22701.475600       0.425385
    22753.128600       0.418978
    22805.017100       0.412529
    22857.142900       0.406041
    22909.507400       0.399514
    22962.112500       0.392949
    23014.959700       0.386348
    23068.050700       0.379713
    23121.387300       0.373045
    23174.971000       0.366345
    23228.803700       0.359616
    23282.887100       0.352859
    23337.222900       0.346075
    23391.812900       0.339266
    23446.658900       0.332435
    23501.762600       0.325582
    23557.126000       0.318710
    23612.750900       0.311821
    23668.639100       0.304916
    23724.792400       0.297998
    23781.212800       0.291070
    23837.902300       0.284131
    23894.862600       0.277187
    23952.095800       0.270237
    24009.603800       0.263285
    24067.388700       0.256333
    24125.452400       0.249383
    24183.796900       0.242439
    24242.424200       0.235501
    24301.336600       0.228574
    24360.535900       0.221658
    24420.024400       0.214758
    24479.804200       0.207876
    24539.877300       0.201015
    24600.246000       0.194177
    24660.912500       0.187366
    24721.878900       0.180583
    24783.147500       0.173834
    24844.720500       0.167119
    24906.600200       0.160443
    24968.789000       0.153809
    25031.289100       0.147221
    25094.102900       0.140680
    25157.232700       0.134191
    25220.681000       0.127757
    25284.450100       0.121382
    25348.542500       0.115069
    25412.960600       0.108823
    25477.707000       0.102645
