          11  , Jan 12th 2012 http://fy3.satellite.cma.gov.cn/ArssEn/Download/FY3A_calibration_info_params.rar
Number of data points:
1044
Wavenumber (cm-1)   Filter response
     1157.675000       0.000041
     1157.944000       0.000334
     1158.212000       0.000706
     1158.480000       0.001123
     1158.749000       0.001531
     1159.017000       0.001873
     1159.286000       0.002094
     1159.555000       0.002174
     1159.824000       0.002076
     1160.093000       0.001832
     1160.362000       0.001508
     1160.631000       0.001122
     1160.901000       0.000774
     1161.170000       0.000540
     1161.440000       0.000477
     1161.710000       0.000605
     1161.980000       0.000893
     1162.250000       0.001307
     1162.520000       0.001776
     1162.791000       0.002226
     1163.061000       0.002624
     1163.332000       0.002879
     1163.603000       0.002997
     1163.873000       0.002971
     1164.144000       0.002841
     1164.415000       0.002631
     1164.687000       0.002359
     1164.958000       0.002064
     1165.230000       0.001756
     1165.501000       0.001448
     1165.773000       0.001166
     1166.045000       0.000902
     1166.317000       0.000686
     1166.589000       0.000530
     1166.861000       0.000457
     1167.134000       0.000470
     1167.406000       0.000570
     1167.679000       0.000742
     1167.951000       0.000960
     1168.224000       0.001177
     1168.497000       0.001386
     1168.771000       0.001532
     1169.044000       0.001605
     1169.317000       0.001623
     1169.591000       0.001609
     1169.864000       0.001597
     1170.138000       0.001607
     1170.412000       0.001667
     1170.686000       0.001763
     1170.960000       0.001870
     1171.234000       0.001958
     1171.509000       0.001947
     1171.784000       0.001851
     1172.058000       0.001686
     1172.333000       0.001520
     1172.608000       0.001398
     1172.883000       0.001365
     1173.158000       0.001389
     1173.433000       0.001450
     1173.709000       0.001512
     1173.984000       0.001575
     1174.260000       0.001610
     1174.536000       0.001672
     1174.812000       0.001774
     1175.088000       0.001902
     1175.365000       0.002022
     1175.641000       0.002109
     1175.917000       0.002130
     1176.194000       0.002108
     1176.471000       0.002057
     1176.747000       0.002019
     1177.024000       0.002016
     1177.302000       0.002036
     1177.579000       0.002056
     1177.856000       0.002055
     1178.134000       0.002027
     1178.411000       0.001960
     1178.689000       0.001843
     1178.967000       0.001703
     1179.245000       0.001549
     1179.524000       0.001398
     1179.802000       0.001267
     1180.080000       0.001202
     1180.359000       0.001202
     1180.638000       0.001268
     1180.916000       0.001376
     1181.195000       0.001499
     1181.474000       0.001599
     1181.754000       0.001658
     1182.033000       0.001682
     1182.313000       0.001683
     1182.592000       0.001655
     1182.872000       0.001606
     1183.152000       0.001543
     1183.432000       0.001453
     1183.712000       0.001342
     1183.992000       0.001227
     1184.273000       0.001138
     1184.553000       0.001094
     1184.834000       0.001118
     1185.115000       0.001219
     1185.396000       0.001361
     1185.677000       0.001540
     1185.958000       0.001704
     1186.240000       0.001838
     1186.521000       0.001921
     1186.803000       0.001970
     1187.085000       0.001981
     1187.366000       0.001983
     1187.648000       0.001977
     1187.931000       0.001971
     1188.213000       0.001931
     1188.495000       0.001870
     1188.778000       0.001791
     1189.061000       0.001700
     1189.344000       0.001632
     1189.627000       0.001604
     1189.910000       0.001625
     1190.193000       0.001682
     1190.476000       0.001758
     1190.760000       0.001827
     1191.043000       0.001851
     1191.327000       0.001830
     1191.611000       0.001788
     1191.895000       0.001744
     1192.179000       0.001722
     1192.464000       0.001728
     1192.748000       0.001758
     1193.033000       0.001811
     1193.318000       0.001887
     1193.602000       0.002001
     1193.887000       0.002143
     1194.172000       0.002327
     1194.458000       0.002530
     1194.743000       0.002731
     1195.029000       0.002895
     1195.314000       0.002986
     1195.600000       0.002995
     1195.886000       0.002913
     1196.172000       0.002797
     1196.458000       0.002688
     1196.745000       0.002574
     1197.031000       0.002490
     1197.318000       0.002424
     1197.605000       0.002366
     1197.892000       0.002306
     1198.179000       0.002249
     1198.466000       0.002209
     1198.753000       0.002206
     1199.041000       0.002244
     1199.328000       0.002311
     1199.616000       0.002330
     1199.904000       0.002283
     1200.192000       0.002167
     1200.480000       0.001995
     1200.769000       0.001814
     1201.057000       0.001687
     1201.345000       0.001649
     1201.634000       0.001714
     1201.923000       0.001880
     1202.212000       0.002134
     1202.501000       0.002406
     1202.790000       0.002670
     1203.080000       0.002905
     1203.369000       0.003102
     1203.659000       0.003272
     1203.949000       0.003421
     1204.239000       0.003560
     1204.529000       0.003680
     1204.819000       0.003752
     1205.110000       0.004039
     1205.400000       0.003896
     1205.691000       0.003670
     1205.982000       0.003442
     1206.273000       0.003284
     1206.564000       0.003217
     1206.855000       0.003251
     1207.146000       0.003324
     1207.438000       0.003376
     1207.729000       0.003399
     1208.021000       0.003417
     1208.313000       0.003464
     1208.605000       0.003541
     1208.897000       0.003643
     1209.190000       0.003746
     1209.482000       0.003798
     1209.775000       0.003797
     1210.068000       0.003724
     1210.361000       0.003617
     1210.654000       0.003490
     1210.947000       0.003353
     1211.240000       0.003261
     1211.534000       0.003217
     1211.828000       0.003232
     1212.121000       0.003335
     1212.415000       0.003513
     1212.709000       0.003757
     1213.003000       0.004004
     1213.298000       0.004214
     1213.592000       0.004354
     1213.887000       0.004364
     1214.182000       0.004325
     1214.477000       0.004223
     1214.772000       0.004086
     1215.067000       0.003939
     1215.362000       0.003789
     1215.658000       0.003628
     1215.953000       0.003464
     1216.249000       0.003294
     1216.545000       0.003133
     1216.841000       0.002997
     1217.137000       0.002943
     1217.434000       0.002981
     1217.730000       0.003118
     1218.027000       0.003321
     1218.324000       0.003563
     1218.620000       0.003793
     1218.917000       0.003975
     1219.215000       0.004104
     1219.512000       0.004195
     1219.810000       0.004240
     1220.107000       0.004344
     1220.405000       0.004495
     1220.703000       0.004702
     1221.001000       0.004924
     1221.300000       0.005111
     1221.598000       0.005235
     1221.896000       0.005233
     1222.195000       0.005137
     1222.494000       0.004956
     1222.793000       0.004701
     1223.092000       0.004528
     1223.391000       0.004422
     1223.691000       0.004421
     1223.990000       0.004488
     1224.290000       0.004594
     1224.590000       0.004695
     1224.890000       0.004764
     1225.190000       0.004799
     1225.490000       0.004829
     1225.791000       0.004822
     1226.091000       0.004906
     1226.392000       0.005011
     1226.693000       0.005121
     1226.994000       0.005197
     1227.295000       0.005210
     1227.596000       0.005160
     1227.898000       0.005072
     1228.200000       0.004988
     1228.501000       0.004945
     1228.803000       0.004896
     1229.105000       0.004935
     1229.407000       0.004961
     1229.710000       0.004956
     1230.012000       0.004920
     1230.315000       0.004869
     1230.618000       0.004815
     1230.921000       0.004750
     1231.224000       0.004655
     1231.527000       0.004511
     1231.830000       0.004288
     1232.134000       0.004144
     1232.438000       0.004082
     1232.742000       0.004148
     1233.046000       0.004322
     1233.350000       0.004552
     1233.654000       0.004794
     1233.959000       0.005017
     1234.263000       0.005228
     1234.568000       0.005439
     1234.873000       0.006012
     1235.178000       0.006141
     1235.483000       0.006199
     1235.788000       0.006185
     1236.094000       0.006104
     1236.400000       0.006010
     1236.705000       0.005943
     1237.011000       0.005921
     1237.318000       0.005978
     1237.624000       0.006090
     1237.930000       0.006253
     1238.237000       0.006478
     1238.543000       0.006658
     1238.851000       0.006734
     1239.157000       0.006680
     1239.465000       0.006508
     1239.772000       0.006300
     1240.079000       0.006127
     1240.387000       0.006040
     1240.695000       0.006045
     1241.003000       0.006032
     1241.311000       0.006089
     1241.619000       0.006144
     1241.927000       0.006225
     1242.236000       0.006370
     1242.545000       0.006589
     1242.854000       0.006861
     1243.163000       0.007140
     1243.472000       0.007387
     1243.781000       0.007590
     1244.091000       0.007685
     1244.400000       0.007832
     1244.710000       0.007974
     1245.020000       0.008107
     1245.330000       0.008233
     1245.640000       0.008350
     1245.951000       0.008474
     1246.261000       0.008613
     1246.572000       0.008761
     1246.883000       0.008928
     1247.194000       0.009011
     1247.505000       0.009174
     1247.817000       0.009330
     1248.128000       0.009474
     1248.439000       0.009634
     1248.751000       0.009809
     1249.063000       0.010001
     1249.375000       0.010193
     1249.688000       0.010351
     1250.000000       0.010456
     1250.313000       0.010390
     1250.625000       0.010361
     1250.938000       0.010343
     1251.251000       0.010380
     1251.564000       0.010536
     1251.878000       0.010827
     1252.191000       0.011225
     1252.505000       0.011686
     1252.819000       0.012113
     1253.133000       0.012428
     1253.447000       0.012524
     1253.761000       0.012604
     1254.076000       0.012679
     1254.390000       0.012826
     1254.705000       0.013099
     1255.020000       0.013444
     1255.335000       0.013755
     1255.650000       0.013942
     1255.966000       0.013998
     1256.281000       0.014009
     1256.597000       0.013971
     1256.913000       0.014228
     1257.229000       0.014616
     1257.545000       0.015089
     1257.862000       0.015525
     1258.178000       0.015926
     1258.495000       0.016323
     1258.812000       0.016746
     1259.129000       0.017175
     1259.446000       0.017584
     1259.763000       0.017715
     1260.081000       0.017923
     1260.398000       0.018047
     1260.716000       0.018125
     1261.034000       0.018215
     1261.352000       0.018371
     1261.670000       0.018589
     1261.989000       0.018905
     1262.307000       0.019339
     1262.626000       0.019859
     1262.945000       0.020225
     1263.264000       0.020793
     1263.583000       0.021353
     1263.903000       0.021903
     1264.223000       0.022438
     1264.542000       0.022917
     1264.862000       0.023319
     1265.182000       0.023603
     1265.502000       0.023776
     1265.823000       0.023941
     1266.143000       0.024330
     1266.464000       0.024613
     1266.785000       0.024956
     1267.106000       0.025277
     1267.427000       0.025531
     1267.749000       0.025727
     1268.070000       0.025930
     1268.392000       0.026193
     1268.714000       0.026533
     1269.036000       0.026905
     1269.358000       0.027415
     1269.680000       0.027880
     1270.003000       0.028405
     1270.325000       0.029065
     1270.648000       0.029838
     1270.971000       0.030688
     1271.294000       0.031553
     1271.618000       0.032395
     1271.941000       0.033200
     1272.265000       0.033956
     1272.589000       0.034738
     1272.912000       0.035358
     1273.237000       0.035907
     1273.561000       0.036393
     1273.885000       0.036848
     1274.210000       0.037297
     1274.535000       0.037751
     1274.860000       0.038233
     1275.185000       0.038745
     1275.510000       0.039304
     1275.836000       0.039918
     1276.161000       0.040605
     1276.487000       0.041341
     1276.813000       0.042119
     1277.139000       0.042948
     1277.465000       0.043858
     1277.792000       0.044859
     1278.119000       0.045910
     1278.445000       0.046932
     1278.772000       0.047836
     1279.099000       0.048562
     1279.427000       0.049108
     1279.754000       0.049584
     1280.082000       0.050114
     1280.410000       0.050791
     1280.738000       0.051665
     1281.066000       0.052662
     1281.394000       0.053666
     1281.723000       0.054581
     1282.051000       0.055433
     1282.380000       0.056312
     1282.709000       0.057256
     1283.038000       0.058289
     1283.368000       0.059334
     1283.697000       0.060321
     1284.027000       0.061257
     1284.357000       0.062232
     1284.687000       0.063343
     1285.017000       0.064637
     1285.347000       0.066017
     1285.678000       0.067368
     1286.008000       0.068773
     1286.339000       0.070223
     1286.670000       0.071741
     1287.001000       0.073289
     1287.333000       0.074781
     1287.664000       0.076158
     1287.996000       0.077466
     1288.328000       0.078758
     1288.660000       0.080087
     1288.992000       0.081459
     1289.324000       0.082659
     1289.657000       0.083751
     1289.990000       0.084837
     1290.323000       0.086078
     1290.656000       0.087565
     1290.989000       0.089303
     1291.322000       0.091225
     1291.656000       0.093241
     1291.990000       0.095335
     1292.324000       0.097692
     1292.658000       0.099819
     1292.992000       0.101995
     1293.326000       0.104166
     1293.661000       0.106299
     1293.996000       0.108417
     1294.331000       0.110516
     1294.666000       0.112578
     1295.001000       0.114594
     1295.337000       0.116567
     1295.672000       0.118763
     1296.008000       0.120896
     1296.344000       0.123220
     1296.681000       0.125655
     1297.017000       0.128077
     1297.353000       0.130415
     1297.690000       0.132753
     1298.027000       0.135201
     1298.364000       0.137828
     1298.701000       0.140628
     1299.039000       0.136182
     1299.376000       0.139909
     1299.714000       0.143742
     1300.052000       0.147758
     1300.390000       0.152154
     1300.728000       0.156761
     1301.067000       0.161489
     1301.406000       0.166299
     1301.744000       0.171202
     1302.083000       0.176190
     1302.422000       0.181533
     1302.762000       0.185361
     1303.101000       0.189221
     1303.441000       0.193164
     1303.781000       0.197236
     1304.121000       0.201303
     1304.461000       0.205449
     1304.802000       0.209707
     1305.142000       0.214064
     1305.483000       0.218565
     1305.824000       0.225073
     1306.165000       0.230133
     1306.506000       0.235527
     1306.848000       0.241159
     1307.190000       0.246910
     1307.531000       0.252675
     1307.873000       0.258368
     1308.216000       0.264037
     1308.558000       0.269856
     1308.901000       0.275901
     1309.243000       0.284141
     1309.586000       0.290645
     1309.929000       0.297268
     1310.273000       0.304060
     1310.616000       0.311024
     1310.960000       0.318186
     1311.303000       0.325563
     1311.647000       0.333278
     1311.992000       0.341863
     1312.336000       0.350985
     1312.681000       0.363433
     1313.025000       0.373276
     1313.370000       0.383228
     1313.715000       0.393250
     1314.060000       0.403518
     1314.406000       0.414200
     1314.751000       0.425363
     1315.097000       0.436812
     1315.443000       0.448362
     1315.790000       0.459669
     1316.136000       0.476630
     1316.482000       0.488428
     1316.829000       0.500564
     1317.176000       0.512950
     1317.523000       0.525422
     1317.870000       0.538083
     1318.218000       0.551145
     1318.565000       0.564800
     1318.913000       0.578936
     1319.261000       0.593244
     1319.609000       0.613528
     1319.958000       0.626503
     1320.306000       0.639205
     1320.655000       0.651779
     1321.004000       0.664249
     1321.353000       0.676626
     1321.702000       0.688986
     1322.052000       0.701500
     1322.401000       0.714270
     1322.751000       0.727253
     1323.101000       0.748237
     1323.452000       0.761563
     1323.802000       0.774789
     1324.153000       0.787923
     1324.503000       0.800891
     1324.854000       0.813477
     1325.205000       0.825516
     1325.557000       0.836990
     1325.908000       0.848077
     1326.260000       0.858901
     1326.612000       0.877256
     1326.964000       0.887270
     1327.316000       0.896419
     1327.669000       0.905025
     1328.021000       0.913439
     1328.374000       0.921771
     1328.727000       0.929751
     1329.080000       0.937114
     1329.434000       0.943668
     1329.787000       0.949363
     1330.141000       0.960929
     1330.495000       0.965406
     1330.849000       0.969222
     1331.203000       0.973095
     1331.558000       0.976758
     1331.913000       0.980339
     1332.267000       0.983664
     1332.623000       0.986335
     1332.978000       0.988044
     1333.333000       0.988797
     1333.689000       0.994499
     1334.045000       0.994423
     1334.401000       0.994110
     1334.757000       0.993675
     1335.114000       0.994691
     1335.470000       0.995614
     1335.827000       0.996520
     1336.184000       0.997231
     1336.541000       0.997354
     1336.898000       0.996872
     1337.256000       0.998029
     1337.614000       0.997699
     1337.972000       0.997886
     1338.330000       0.998632
     1338.688000       0.999371
     1339.047000       0.999193
     1339.405000       0.998731
     1339.764000       0.997789
     1340.123000       0.996216
     1340.483000       0.994092
     1340.842000       1.000000
     1341.202000       0.996725
     1341.562000       0.993834
     1341.922000       0.991523
     1342.282000       0.989759
     1342.642000       0.988070
     1343.003000       0.986285
     1343.364000       0.984545
     1343.725000       0.982907
     1344.086000       0.981567
     1344.447000       0.983078
     1344.809000       0.983343
     1345.171000       0.983687
     1345.533000       0.983980
     1345.895000       0.984300
     1346.257000       0.984843
     1346.620000       0.985943
     1346.983000       0.987310
     1347.346000       0.988626
     1347.709000       0.989753
     1348.072000       0.987721
     1348.436000       0.989411
     1348.800000       0.991125
     1349.163000       0.992749
     1349.528000       0.994310
     1349.892000       0.995948
     1350.256000       0.997536
     1350.621000       0.998444
     1350.986000       0.999074
     1351.351000       0.999324
     1351.717000       0.998441
     1352.082000       0.998291
     1352.448000       0.998127
     1352.814000       0.997387
     1353.180000       0.995557
     1353.546000       0.992678
     1353.913000       0.989215
     1354.280000       0.986175
     1354.646000       0.983065
     1355.014000       0.979323
     1355.381000       0.975502
     1355.748000       0.970104
     1356.116000       0.964276
     1356.484000       0.957728
     1356.852000       0.950088
     1357.220000       0.941361
     1357.589000       0.931865
     1357.958000       0.922455
     1358.327000       0.914385
     1358.696000       0.905264
     1359.065000       0.895090
     1359.434000       0.884293
     1359.804000       0.873065
     1360.174000       0.861194
     1360.544000       0.847939
     1360.915000       0.833186
     1361.285000       0.817528
     1361.656000       0.801831
     1362.027000       0.786209
     1362.398000       0.770046
     1362.769000       0.753687
     1363.141000       0.733677
     1363.512000       0.712890
     1363.884000       0.692856
     1364.256000       0.674140
     1364.629000       0.656180
     1365.001000       0.638062
     1365.374000       0.619365
     1365.747000       0.599902
     1366.120000       0.579912
     1366.494000       0.558439
     1366.867000       0.539466
     1367.241000       0.520728
     1367.615000       0.502357
     1367.989000       0.484358
     1368.363000       0.466537
     1368.738000       0.448704
     1369.113000       0.431207
     1369.488000       0.414652
     1369.863000       0.399954
     1370.238000       0.365502
     1370.614000       0.355007
     1370.990000       0.344490
     1371.366000       0.334236
     1371.742000       0.324634
     1372.119000       0.315763
     1372.495000       0.307274
     1372.872000       0.298703
     1373.249000       0.289760
     1373.626000       0.280017
     1374.004000       0.271392
     1374.381000       0.259476
     1374.759000       0.248072
     1375.138000       0.237375
     1375.516000       0.227455
     1375.894000       0.218321
     1376.273000       0.209737
     1376.652000       0.201459
     1377.031000       0.193418
     1377.410000       0.185114
     1377.790000       0.178660
     1378.170000       0.171053
     1378.550000       0.163993
     1378.930000       0.157343
     1379.310000       0.150871
     1379.691000       0.144577
     1380.072000       0.138522
     1380.453000       0.132765
     1380.834000       0.127324
     1381.215000       0.122368
     1381.597000       0.118592
     1381.979000       0.114479
     1382.361000       0.110543
     1382.743000       0.106613
     1383.126000       0.102652
     1383.509000       0.098919
     1383.891000       0.095699
     1384.275000       0.093023
     1384.658000       0.090641
     1385.042000       0.088251
     1385.425000       0.086388
     1385.809000       0.083846
     1386.193000       0.081288
     1386.578000       0.078534
     1386.963000       0.075305
     1387.347000       0.071710
     1387.732000       0.068324
     1388.118000       0.065710
     1388.503000       0.063898
     1388.889000       0.062504
     1389.275000       0.061853
     1389.661000       0.060520
     1390.047000       0.059079
     1390.434000       0.057440
     1390.821000       0.055611
     1391.208000       0.053862
     1391.595000       0.052511
     1391.982000       0.051606
     1392.370000       0.050827
     1392.758000       0.049945
     1393.146000       0.049484
     1393.534000       0.048503
     1393.922000       0.047627
     1394.311000       0.046712
     1394.700000       0.045536
     1395.089000       0.044217
     1395.479000       0.043035
     1395.868000       0.042109
     1396.258000       0.041282
     1396.648000       0.040304
     1397.038000       0.039631
     1397.429000       0.038830
     1397.819000       0.038320
     1398.210000       0.037876
     1398.601000       0.037123
     1398.993000       0.035869
     1399.384000       0.034301
     1399.776000       0.032751
     1400.168000       0.031399
     1400.560000       0.030215
     1400.953000       0.029433
     1401.345000       0.028784
     1401.738000       0.028316
     1402.131000       0.027842
     1402.525000       0.027252
     1402.918000       0.026627
     1403.312000       0.026133
     1403.706000       0.025818
     1404.100000       0.025559
     1404.494000       0.025205
     1404.889000       0.024751
     1405.284000       0.023939
     1405.679000       0.023144
     1406.074000       0.022487
     1406.470000       0.021890
     1406.866000       0.021260
     1407.261000       0.020568
     1407.658000       0.019920
     1408.054000       0.019442
     1408.451000       0.019104
     1408.848000       0.018307
     1409.245000       0.017889
     1409.642000       0.017369
     1410.039000       0.016907
     1410.437000       0.016577
     1410.835000       0.016353
     1411.233000       0.016121
     1411.632000       0.015899
     1412.031000       0.015729
     1412.429000       0.015662
     1412.828000       0.015691
     1413.228000       0.015572
     1413.627000       0.015486
     1414.027000       0.015496
     1414.427000       0.015569
     1414.827000       0.015605
     1415.228000       0.015568
     1415.629000       0.015462
     1416.030000       0.015328
     1416.431000       0.015104
     1416.832000       0.014937
     1417.234000       0.014668
     1417.635000       0.014659
     1418.037000       0.014932
     1418.440000       0.015291
     1418.842000       0.015463
     1419.245000       0.015221
     1419.648000       0.014618
     1420.051000       0.013808
     1420.455000       0.012998
     1420.858000       0.012366
     1421.262000       0.011819
     1421.666000       0.011541
     1422.071000       0.011408
     1422.475000       0.011197
     1422.880000       0.010844
     1423.285000       0.010565
     1423.690000       0.010602
     1424.096000       0.010876
     1424.501000       0.011071
     1424.907000       0.011037
     1425.314000       0.010800
     1425.720000       0.010656
     1426.127000       0.010675
     1426.533000       0.010780
     1426.941000       0.010844
     1427.348000       0.010803
     1427.755000       0.010689
     1428.163000       0.010548
     1428.571000       0.010446
     1428.980000       0.010478
     1429.388000       0.010572
     1429.797000       0.010635
     1430.206000       0.010543
     1430.615000       0.010283
     1431.025000       0.009932
     1431.434000       0.009518
     1431.844000       0.008980
     1432.254000       0.008323
     1432.665000       0.007712
     1433.075000       0.007418
     1433.486000       0.007543
     1433.897000       0.007998
     1434.309000       0.008501
     1434.720000       0.008788
     1435.132000       0.008818
     1435.544000       0.008718
     1435.956000       0.008682
     1436.369000       0.008723
     1436.782000       0.008571
     1437.195000       0.008103
     1437.608000       0.007430
     1438.021000       0.007031
     1438.435000       0.006998
     1438.849000       0.007259
     1439.263000       0.007683
     1439.677000       0.008204
     1440.092000       0.008735
     1440.507000       0.009187
     1440.922000       0.009453
     1441.338000       0.009568
     1441.753000       0.009317
     1442.169000       0.008807
     1442.585000       0.008122
     1443.001000       0.007445
     1443.418000       0.006995
     1443.835000       0.006849
     1444.252000       0.006839
     1444.669000       0.006767
     1445.087000       0.006593
     1445.504000       0.006540
     1445.922000       0.006663
     1446.341000       0.006922
     1446.759000       0.007090
     1447.178000       0.007018
     1447.597000       0.006806
     1448.016000       0.006588
     1448.436000       0.006457
     1448.855000       0.006416
     1449.275000       0.006517
     1449.696000       0.006546
     1450.116000       0.006927
     1450.537000       0.007256
     1450.958000       0.007467
     1451.379000       0.007586
     1451.800000       0.007586
     1452.222000       0.007368
     1452.644000       0.006922
     1453.066000       0.006474
     1453.488000       0.006263
     1453.911000       0.006384
     1454.334000       0.006643
     1454.757000       0.006926
     1455.180000       0.007061
     1455.604000       0.007031
     1456.028000       0.006909
     1456.452000       0.006825
     1456.876000       0.006917
     1457.301000       0.007198
     1457.726000       0.007395
     1458.151000       0.007442
     1458.576000       0.006976
     1459.002000       0.006371
     1459.428000       0.005894
     1459.854000       0.005685
     1460.280000       0.005732
     1460.707000       0.005899
     1461.134000       0.006031
     1461.561000       0.006002
     1461.988000       0.005774
     1462.416000       0.005448
     1462.844000       0.005153
     1463.272000       0.004989
     1463.700000       0.004958
     1464.129000       0.005023
     1464.558000       0.005075
     1464.987000       0.005035
     1465.416000       0.004873
     1465.846000       0.004650
     1466.276000       0.004447
     1466.706000       0.004303
     1467.136000       0.004201
     1467.567000       0.004239
     1467.998000       0.004410
     1468.429000       0.004613
     1468.860000       0.004732
     1469.292000       0.004759
     1469.724000       0.004762
     1470.156000       0.004850
     1470.588000       0.005055
     1471.021000       0.005484
     1471.454000       0.006121
     1471.887000       0.006929
     1472.320000       0.007481
     1472.754000       0.007326
     1473.188000       0.006602
     1473.622000       0.005951
     1474.057000       0.005789
     1474.491000       0.006056
     1474.926000       0.006509
     1475.361000       0.007015
     1475.797000       0.007295
     1476.233000       0.007004
     1476.669000       0.005995
     1477.105000       0.004684
     1477.541000       0.003593
     1477.978000       0.002992
     1478.415000       0.002924
     1478.852000       0.003339
     1479.290000       0.004052
     1479.728000       0.004749
     1480.166000       0.005011
     1480.604000       0.004693
     1481.043000       0.004028
     1481.481000       0.003483
     1481.921000       0.003318
     1482.360000       0.003427
     1482.800000       0.003620
     1483.239000       0.003754
     1483.680000       0.003752
     1484.120000       0.003618
     1484.561000       0.003336
     1485.001000       0.003090
     1485.443000       0.003055
     1485.884000       0.003222
     1486.326000       0.003481
     1486.768000       0.003707
     1487.210000       0.003877
     1487.652000       0.004102
     1488.095000       0.004475
     1488.538000       0.004967
     1488.982000       0.005271
     1489.425000       0.005308
     1489.869000       0.005120
     1490.313000       0.004965
     1490.757000       0.004999
     1491.202000       0.005149
     1491.647000       0.005236
     1492.092000       0.005219
     1492.537000       0.005067
     1492.983000       0.004022
     1493.429000       0.003878
     1493.875000       0.003696
     1494.322000       0.003445
     1494.768000       0.003044
     1495.215000       0.002550
     1495.663000       0.002261
     1496.110000       0.002510
     1496.558000       0.003118
     1497.006000       0.003574
     1497.454000       0.003698
     1497.903000       0.003514
     1498.352000       0.003183
     1498.801000       0.002676
     1499.250000       0.002216
     1499.700000       0.001992
     1500.150000       0.001964
     1500.600000       0.001998
     1501.051000       0.002108
     1501.502000       0.002465
     1501.953000       0.003210
     1502.404000       0.003951
     1502.855000       0.004308
     1503.307000       0.004075
     1503.759000       0.003428
     1504.212000       0.002745
     1504.664000       0.002466
     1505.117000       0.002896
     1505.571000       0.004128
     1506.024000       0.005724
     1506.478000       0.006755
     1506.932000       0.006286
     1507.386000       0.004982
     1507.841000       0.003894
     1508.296000       0.003389
     1508.751000       0.003287
     1509.206000       0.003277
     1509.662000       0.003044
     1510.118000       0.002532
     1510.574000       0.001972
     1511.031000       0.001707
     1511.487000       0.001692
     1511.944000       0.001757
     1512.402000       0.001577
     1512.859000       0.001136
     1513.317000       0.000724
     1513.775000       0.000550
     1514.234000       0.000587
     1514.693000       0.000714
     1515.151000       0.000859
     1515.611000       0.001020
     1516.070000       0.001150
     1516.530000       0.001305
     1516.990000       0.001440
     1517.451000       0.001441
     1517.911000       0.001289
     1518.372000       0.001090
     1518.833000       0.000925
     1519.295000       0.000789
     1519.757000       0.000642
     1520.219000       0.000496
     1520.681000       0.000461
     1521.144000       0.000689
     1521.607000       0.001103
     1522.070000       0.001430
     1522.534000       0.001501
     1522.997000       0.001497
     1523.461000       0.001627
     1523.926000       0.001875
     1524.390000       0.001993
     1524.855000       0.001742
     1525.320000       0.001030
     1525.786000       0.000357
     1526.251000       0.000080
