   2  ,noaa_14_hirs_02.flt
Number of data points:
101
Wavenumber (cm-1)   Filter response
      659.500000       0.000000
      659.900000       0.000000
      660.310000       0.000000
      660.700000       0.000000
      661.110000       0.000000
      661.500000       0.000000
      661.910000       0.000000
      662.310000       0.000000
      662.710000       0.000000
      663.110000       0.000000
      663.510000       0.000000
      663.910000       0.000000
      664.310000       0.000000
      664.710000       0.000000
      665.110000       0.007815
      665.510000       0.010236
      665.920000       0.011324
      666.310000       0.013952
      666.710000       0.016470
      667.120000       0.021053
      667.520000       0.027387
      667.920000       0.038126
      668.320000       0.047867
      668.730000       0.066688
      669.140000       0.084397
      669.500000       0.103290
      669.920000       0.131410
      670.320000       0.163700
      670.710000       0.202190
      671.120000       0.252650
      671.500000       0.307670
      671.910000       0.375700
      672.290000       0.439140
      672.690000       0.506060
      673.080000       0.565940
      673.470000       0.620370
      673.860000       0.668370
      674.250000       0.705940
      674.650000       0.741900
      675.040000       0.767630
      675.440000       0.790480
      675.830000       0.808190
      676.220000       0.826810
      676.610000       0.844250
      677.010000       0.859200
      677.400000       0.874770
      677.800000       0.886150
      678.190000       0.900070
      678.590000       0.909670
      678.990000       0.916360
      679.380000       0.930350
      679.820000       0.942340
      680.220000       0.950410
      680.620000       0.960700
      681.020000       0.971160
      681.420000       0.982900
      681.820000       0.992130
      682.220000       1.000000
      682.620000       0.994980
      683.020000       0.971660
      683.410000       0.940760
      683.850000       0.894360
      684.240000       0.830960
      684.700000       0.754250
      685.070000       0.655070
      685.520000       0.558930
      685.890000       0.460490
      686.360000       0.374420
      686.730000       0.298370
      687.110000       0.236560
      687.600000       0.191220
      687.980000       0.150450
      688.370000       0.117790
      688.760000       0.095287
      689.150000       0.075745
      689.540000       0.062026
      689.950000       0.049632
      690.350000       0.043775
      690.750000       0.038398
      691.150000       0.032871
      691.550000       0.028350
      691.950000       0.020704
      692.350000       0.020991
      692.750000       0.018490
      693.140000       0.014227
      693.540000       0.017908
      693.940000       0.015052
      694.340000       0.016192
      694.730000       0.021108
      695.130000       0.014675
      695.520000       0.014888
      695.920000       0.015222
      696.320000       0.015455
      696.720000       0.006887
      697.110000       0.000000
      697.510000       0.000000
      697.910000       0.000000
      698.310000       0.000000
      698.700000       0.000000
      699.100000       0.000000
      699.500000       0.000000
