1,    JPSS-2 VIIRS I1 0.64 mu  SRF version 2 (V2) July 2019 J2_VIIRS_RSR_I1_BA_Fused_V2F.txt
Number of data points:
296
Wavenumber (cm-1)   Filter response
    14025.265100       0.000000
    14144.301600       0.000000
    14265.253800       0.000079
    14321.518100       0.000178
    14330.897600       0.000213
    14343.847900       0.000235
    14353.236000       0.000246
    14355.275900       0.000248
    14363.193500       0.000277
    14372.359100       0.000336
    14378.414000       0.000360
    14387.205700       0.000414
    14394.930700       0.000531
    14395.593800       0.000478
    14397.148200       0.000449
    14403.701200       0.000565
    14405.008300       0.000537
    14413.126300       0.000701
    14419.382000       0.000866
    14419.964200       0.000775
    14428.161500       0.000909
    14437.326800       0.001150
    14438.118900       0.001081
    14445.919500       0.001258
    14454.877700       0.001538
    14458.075200       0.001557
    14469.476600       0.001945
    14478.359200       0.002478
    14479.575100       0.002454
    14487.609500       0.003009
    14501.328300       0.004010
    14510.544800       0.005002
    14518.929800       0.006221
    14520.447700       0.006287
    14529.034100       0.007608
    14543.593000       0.010809
    14543.804500       0.010926
    14552.079700       0.013541
    14561.488100       0.017789
    14562.293900       0.017831
    14568.616000       0.022605
    14584.679400       0.033259
    14585.423900       0.033770
    14593.640100       0.042465
    14602.825100       0.056103
    14603.763400       0.056828
    14617.019500       0.083681
    14623.859700       0.110915
    14626.126900       0.109881
    14635.931200       0.144308
    14650.383300       0.213022
    14650.962800       0.217533
    14657.791900       0.265668
    14666.218900       0.328718
    14668.133500       0.333081
    14682.390500       0.436425
    14692.184100       0.511758
    14692.788500       0.518181
    14700.910000       0.580693
    14709.603000       0.647798
    14715.360800       0.687774
    14730.642800       0.772956
    14741.609100       0.825731
    14752.156400       0.870426
    14763.765000       0.908148
    14774.584200       0.939544
    14785.419200       0.962271
    14796.401500       0.978337
    14807.772900       0.991267
    14818.437100       0.997401
    14819.798700       0.997404
    14829.556500       0.999447
    14830.568200       0.999186
    14839.745600       1.000000
    14841.111100       0.997782
    14852.882200       0.991925
    14861.866400       0.986820
    14873.980200       0.980027
    14886.025100       0.972621
    14896.780200       0.968773
    14908.284200       0.964995
    14919.338600       0.965133
    14930.743700       0.965533
    14941.251000       0.968041
    14952.510800       0.971981
    14963.451800       0.974580
    14974.902100       0.979008
    14985.786000       0.980326
    14996.595800       0.980529
    15008.187000       0.980187
    15019.502800       0.976320
    15029.525500       0.971981
    15042.389500       0.966416
    15053.417100       0.961314
    15064.619700       0.956750
    15075.702600       0.952476
    15087.621400       0.951008
    15099.262600       0.950571
    15110.191100       0.953121
    15122.095800       0.957356
    15133.675800       0.963739
    15145.135800       0.970325
    15157.003800       0.977020
    15157.991700       0.984422
    15168.269200       0.982638
    15169.120500       0.990568
    15178.698800       0.987154
    15180.703500       0.996209
    15191.819500       0.999507
    15203.714600       0.999884
    15215.512500       0.997257
    15226.262300       0.993095
    15238.257800       0.987398
    15249.783800       0.979119
    15261.606800       0.970998
    15273.074900       0.961589
    15284.887400       0.951868
    15296.718100       0.943719
    15307.981300       0.934933
    15320.833600       0.927350
    15330.957000       0.920810
    15344.271800       0.913757
    15356.595500       0.908919
    15367.498400       0.904574
    15379.954100       0.902114
    15392.430000       0.898749
    15404.000700       0.899558
    15415.897800       0.901207
    15427.837100       0.904684
    15439.508800       0.911413
    15451.365300       0.918232
    15463.813900       0.929098
    15473.624400       0.939455
    15485.797200       0.951523
    15499.094100       0.961220
    15511.234800       0.969418
    15520.118000       0.975745
    15534.149500       0.976942
    15547.819700       0.975212
    15558.148600       0.970039
    15571.545800       0.961223
    15583.217500       0.949985
    15595.539100       0.935912
    15605.688000       0.924708
    15619.045200       0.911369
    15620.435900       0.904317
    15621.607200       0.900792
    15642.230900       0.895597
    15642.744700       0.892898
    15656.263600       0.889506
    15667.326300       0.888978
    15681.477800       0.891421
    15692.182200       0.895578
    15706.132000       0.898874
    15718.105200       0.904012
    15730.839100       0.906708
    15742.800400       0.908283
    15755.301300       0.906897
    15767.051300       0.903358
    15780.387500       0.899348
    15793.023000       0.892353
    15805.503800       0.888501
    15818.004400       0.884048
    15830.875600       0.883388
    15837.344100       0.884643
    15855.851300       0.889203
    15868.230200       0.896386
    15881.082500       0.905239
    15894.081800       0.916199
    15906.419400       0.924408
    15919.080100       0.930762
    15931.684900       0.931940
    15944.792700       0.927740
    15956.878100       0.917389
    15969.593900       0.902142
    15982.994100       0.884483
    15995.777100       0.864001
    16008.836900       0.847383
    16020.968200       0.830919
    16033.503600       0.820234
    16045.852600       0.813265
    16059.097500       0.812797
    16071.744300       0.816294
    16084.411000       0.825648
    16097.253200       0.837649
    16109.778500       0.852073
    16122.895200       0.865793
    16134.679400       0.877196
    16135.798900       0.873943
    16148.071400       0.885274
    16149.270900       0.881935
    16159.970800       0.887423
    16161.929600       0.883967
    16174.555800       0.881635
    16188.014100       0.873370
    16200.864800       0.861565
    16214.077700       0.849347
    16226.943500       0.836355
    16240.067200       0.827281
    16253.000700       0.819573
    16265.319900       0.815765
    16266.801600       0.815103
    16266.828000       0.819612
    16278.558700       0.815255
    16279.353700       0.818142
    16292.376500       0.819981
    16292.721600       0.822412
    16293.119700       0.823237
    16304.463000       0.825431
    16318.165100       0.837369
    16319.017200       0.833856
    16319.869400       0.837124
    16331.810100       0.841202
    16333.330600       0.844267
    16343.688100       0.848386
    16346.012400       0.851029
    16346.653700       0.851629
    16358.660400       0.852186
    16359.811100       0.856081
    16362.247100       0.858357
    16372.132000       0.853785
    16373.016600       0.856834
    16385.572200       0.853315
    16386.834200       0.856166
    16394.894000       0.852531
    16397.555500       0.849507
    16399.437800       0.857071
    16400.567500       0.851778
    16414.081300       0.846410
    16426.106300       0.840406
    16426.403100       0.845370
    16427.347600       0.839734
    16440.932700       0.835027
    16452.807600       0.830589
    16453.240700       0.834885
    16478.455200       0.827642
    16480.220400       0.833273
    16507.370500       0.837184
    16521.497800       0.837501
    16534.801600       0.843631
    16535.075000       0.839427
    16547.551900       0.836090
    16561.912600       0.826987
    16562.872700       0.819485
    16576.270700       0.787682
    16588.782300       0.740107
    16589.690500       0.734948
    16603.214700       0.660980
    16615.987900       0.581340
    16616.733400       0.574383
    16630.523000       0.481075
    16643.587600       0.396389
    16644.307800       0.390518
    16657.449500       0.310285
    16670.945500       0.245877
    16671.195700       0.242898
    16671.306800       0.243286
    16685.298600       0.186871
    16685.326400       0.185240
    16698.672500       0.143788
    16699.118600       0.143620
    16699.481100       0.141751
    16713.548200       0.105477
    16727.303100       0.079756
    16727.527000       0.078921
    16741.697400       0.059040
    16755.639100       0.044450
    16755.947900       0.044228
    16770.363400       0.033449
    16784.296600       0.025105
    16784.662800       0.025048
    16798.986700       0.018764
    16811.554200       0.014082
    16812.826200       0.013934
    16827.056600       0.010830
    16840.800500       0.007864
    16840.828900       0.008543
    16855.049900       0.005844
    16869.181200       0.004488
    16869.266600       0.004882
    16883.735200       0.003571
    16898.000300       0.003190
    16912.289500       0.002466
    16925.972600       0.001863
    16926.459600       0.001876
    16940.911800       0.001542
    16954.296300       0.001236
    16954.785000       0.001320
    16954.871200       0.001507
    16982.311200       0.001111
    16983.811000       0.000918
    17013.139200       0.001111
    17035.789600       0.000462
    17211.866900       0.000074
    17391.591700       0.000000
    17574.584300       0.000000
