74,   74, MVIRI VIS channel from srf_MET2_1991123_1991124_1801-Release_S10EL_10.dat
Number of data points:
730
Wavenumber (cm-1)   Filter response
     8916.629500       0.000000
     8924.587200       0.000000
     8932.559200       0.000002
     8940.545400       0.000012
     8948.545900       0.000033
     8956.560700       0.000070
     8964.589900       0.000128
     8972.633500       0.000211
     8980.691500       0.000323
     8988.764000       0.000468
     8996.851100       0.000650
     9004.952700       0.000872
     9013.068900       0.001137
     9021.199800       0.001449
     9029.345400       0.001811
     9037.505600       0.002226
     9045.680700       0.002697
     9053.870500       0.003225
     9062.075200       0.003815
     9070.294800       0.004468
     9078.529300       0.005186
     9086.778700       0.005972
     9095.043200       0.006828
     9103.322700       0.007754
     9111.617300       0.008755
     9119.927000       0.009830
     9128.251900       0.010981
     9136.592100       0.012211
     9144.947400       0.013519
     9153.318100       0.014908
     9161.704100       0.016378
     9170.105500       0.017931
     9178.522300       0.019567
     9186.954500       0.021288
     9195.402300       0.023093
     9203.865600       0.024984
     9212.344500       0.026961
     9220.839100       0.029025
     9229.349300       0.031176
     9237.875300       0.033414
     9246.417000       0.035740
     9254.974500       0.038153
     9263.547900       0.040654
     9272.137200       0.043243
     9280.742500       0.045920
     9289.363700       0.048684
     9298.000900       0.051536
     9306.654300       0.054475
     9315.323700       0.057501
     9324.009300       0.060613
     9332.711200       0.063811
     9341.429200       0.067095
     9350.163600       0.070464
     9358.914400       0.073918
     9367.681500       0.077455
     9376.465100       0.081076
     9385.265100       0.084779
     9394.081700       0.088564
     9402.914900       0.092429
     9411.764700       0.096375
     9420.631200       0.100400
     9429.514400       0.104503
     9438.414300       0.108683
     9447.331100       0.112940
     9456.264800       0.117272
     9465.215300       0.121678
     9474.182900       0.126157
     9483.167400       0.130709
     9492.169000       0.135330
     9501.187600       0.140022
     9510.223500       0.144783
     9519.276500       0.149610
     9528.346800       0.154504
     9537.434400       0.159462
     9546.539400       0.164484
     9555.661700       0.169568
     9564.801500       0.174712
     9573.958800       0.179917
     9583.133700       0.185180
     9592.326100       0.190499
     9601.536200       0.195874
     9610.764100       0.201303
     9620.009600       0.206785
     9629.273000       0.212318
     9638.554200       0.217900
     9647.853400       0.223532
     9657.170400       0.229210
     9666.505600       0.234934
     9675.858700       0.240702
     9685.230000       0.246512
     9694.619500       0.252364
     9704.027200       0.258256
     9713.453100       0.264186
     9722.897400       0.270153
     9732.360100       0.276155
     9741.841200       0.282191
     9751.340800       0.288259
     9760.859000       0.294359
     9770.395700       0.300489
     9779.951100       0.306646
     9789.525200       0.312831
     9799.118100       0.319040
     9808.729800       0.325273
     9818.360300       0.331529
     9828.009800       0.337805
     9837.678300       0.344101
     9847.365800       0.350416
     9857.072400       0.356746
     9866.798200       0.363093
     9876.543200       0.369453
     9886.307500       0.375825
     9896.091000       0.382210
     9905.894000       0.388603
     9915.716400       0.395005
     9925.558300       0.401414
     9935.419800       0.407829
     9945.300800       0.414249
     9955.201600       0.420671
     9965.122100       0.427096
     9975.062300       0.433520
     9985.022500       0.439945
     9995.002500       0.446367
    10005.002500       0.452786
    10015.022500       0.459201
    10025.062700       0.465610
    10035.122900       0.472012
    10045.203400       0.478406
    10055.304200       0.484791
    10065.425300       0.491165
    10075.566800       0.497528
    10085.728700       0.503878
    10095.911200       0.510214
    10106.114200       0.516536
    10116.337900       0.522841
    10126.582300       0.529129
    10136.847400       0.535399
    10147.133400       0.541651
    10157.440300       0.547881
    10167.768200       0.554091
    10178.117000       0.560279
    10188.487000       0.566443
    10198.878100       0.572583
    10209.290500       0.578699
    10219.724100       0.584788
    10230.179000       0.590850
    10240.655400       0.596885
    10251.153300       0.602891
    10261.672700       0.608867
    10272.213700       0.614813
    10282.776300       0.620728
    10293.360800       0.626612
    10303.967000       0.632462
    10314.595200       0.638279
    10325.245200       0.644061
    10335.917300       0.649809
    10346.611500       0.655520
    10357.327800       0.661196
    10368.066400       0.666834
    10378.827200       0.672434
    10389.610400       0.677996
    10400.416000       0.683519
    10411.244100       0.689002
    10422.094800       0.694445
    10432.968200       0.699847
    10443.864200       0.705208
    10454.783100       0.710526
    10465.724800       0.715802
    10476.689400       0.721035
    10487.677000       0.726224
    10498.687700       0.731370
    10509.721500       0.736470
    10520.778500       0.741526
    10531.858900       0.746536
    10542.962600       0.751501
    10554.089700       0.756419
    10565.240400       0.761290
    10576.414600       0.766115
    10587.612500       0.770892
    10598.834100       0.775621
    10610.079600       0.780303
    10621.348900       0.784935
    10632.642200       0.789520
    10643.959600       0.794055
    10655.301000       0.798541
    10666.666700       0.802977
    10678.056600       0.807364
    10689.470900       0.811700
    10700.909600       0.815987
    10712.372800       0.820223
    10723.860600       0.824408
    10735.373100       0.828543
    10746.910300       0.832627
    10758.472300       0.836660
    10770.059200       0.840641
    10781.671200       0.844571
    10793.308100       0.848449
    10804.970300       0.852276
    10816.657700       0.856052
    10828.370300       0.859775
    10840.108400       0.863447
    10851.871900       0.867067
    10863.661100       0.870635
    10875.475800       0.874151
    10887.316300       0.877615
    10899.182600       0.881027
    10911.074700       0.884387
    10922.992900       0.887696
    10934.937100       0.890952
    10946.907500       0.894156
    10958.904100       0.897309
    10970.927000       0.900410
    10982.976400       0.903459
    10995.052200       0.906457
    11007.154700       0.909403
    11019.283700       0.912297
    11031.439600       0.915141
    11043.622300       0.917933
    11055.832000       0.920673
    11068.068600       0.923363
    11080.332400       0.926002
    11092.623400       0.928591
    11104.941700       0.931128
    11117.287400       0.933615
    11129.660500       0.936052
    11142.061300       0.938439
    11154.489700       0.940777
    11166.945800       0.943064
    11179.429800       0.945302
    11191.941800       0.947490
    11204.481800       0.949630
    11217.049900       0.951720
    11229.646300       0.953762
    11242.270900       0.955756
    11254.924000       0.957701
    11267.605600       0.959599
    11280.315800       0.961448
    11293.054800       0.963250
    11305.822500       0.965005
    11318.619100       0.966714
    11331.444800       0.968375
    11344.299500       0.969990
    11357.183400       0.971558
    11370.096600       0.973081
    11383.039300       0.974559
    11396.011400       0.975991
    11409.013100       0.977378
    11422.044500       0.978720
    11435.105800       0.980018
    11448.196900       0.981272
    11461.318100       0.982481
    11474.469300       0.983648
    11487.650800       0.984771
    11500.862600       0.985851
    11514.104800       0.986889
    11527.377500       0.987884
    11540.680900       0.988838
    11554.015000       0.989750
    11567.380000       0.990620
    11580.775900       0.991450
    11594.202900       0.992238
    11607.661100       0.992987
    11621.150500       0.993696
    11634.671300       0.994364
    11648.223600       0.994994
    11661.807600       0.995584
    11675.423200       0.996136
    11689.070700       0.996650
    11702.750100       0.997125
    11716.461600       0.997563
    11730.205300       0.997963
    11743.981200       0.998327
    11757.789500       0.998653
    11771.630400       0.998944
    11785.503800       0.999198
    11799.410000       0.999417
    11813.349100       0.999601
    11827.321100       0.999749
    11841.326200       0.999863
    11855.364600       0.999943
    11869.436200       0.999988
    11883.541300       1.000000
    11897.680000       0.999979
    11911.852300       0.999924
    11926.058400       0.999837
    11940.298500       0.999718
    11954.572600       0.999567
    11968.880900       0.999384
    11983.223500       0.999169
    11997.600500       0.998924
    12012.012000       0.998648
    12026.458200       0.998341
    12040.939200       0.998005
    12055.455100       0.997639
    12070.006000       0.997243
    12084.592100       0.996818
    12099.213600       0.996365
    12113.870400       0.995883
    12128.562800       0.995373
    12143.290800       0.994835
    12158.054700       0.994269
    12172.854500       0.993677
    12187.690400       0.993057
    12202.562500       0.992411
    12217.471000       0.991738
    12232.415900       0.991039
    12247.397400       0.990314
    12262.415700       0.989564
    12277.470800       0.988789
    12292.563000       0.987989
    12307.692300       0.987164
    12322.858900       0.986315
    12338.062900       0.985442
    12353.304500       0.984544
    12368.583800       0.983624
    12383.900900       0.982680
    12399.256000       0.981713
    12414.649300       0.980723
    12430.080800       0.979711
    12445.550700       0.978677
    12461.059200       0.977620
    12476.606400       0.976542
    12492.192400       0.975443
    12507.817400       0.974322
    12523.481500       0.973180
    12539.185000       0.972017
    12554.927800       0.970834
    12570.710200       0.969631
    12586.532400       0.968407
    12602.394500       0.967164
    12618.296500       0.965901
    12634.238800       0.964618
    12650.221400       0.963317
    12666.244500       0.961996
    12682.308200       0.960657
    12698.412700       0.959299
    12714.558200       0.957923
    12730.744700       0.956528
    12746.972600       0.955116
    12763.241900       0.953686
    12779.552700       0.952238
    12795.905300       0.950773
    12812.299800       0.949291
    12828.736400       0.947792
    12845.215200       0.946276
    12861.736300       0.944743
    12878.300100       0.943194
    12894.906500       0.941629
    12911.555800       0.940047
    12928.248200       0.938450
    12944.983800       0.936836
    12961.762800       0.935207
    12978.585300       0.933563
    12995.451600       0.931903
    13012.361700       0.930228
    13029.316000       0.928539
    13046.314400       0.926834
    13063.357300       0.925114
    13080.444700       0.923380
    13097.576900       0.921632
    13114.754100       0.919869
    13131.976400       0.918092
    13149.243900       0.916301
    13166.556900       0.914496
    13183.915600       0.912677
    13201.320100       0.910845
    13218.770700       0.908999
    13236.267400       0.907140
    13253.810500       0.905268
    13271.400100       0.903382
    13289.036500       0.901483
    13306.719900       0.899572
    13324.450400       0.897647
    13342.228200       0.895710
    13360.053400       0.893760
    13377.926400       0.891798
    13395.847300       0.889823
    13413.816200       0.887836
    13431.833400       0.885837
    13449.899100       0.883825
    13468.013500       0.881802
    13486.176700       0.879767
    13504.388900       0.877720
    13522.650400       0.875661
    13540.961400       0.873591
    13559.322000       0.871509
    13577.732500       0.869415
    13596.193100       0.867310
    13614.703900       0.865194
    13633.265200       0.863067
    13651.877100       0.860928
    13670.540000       0.858779
    13689.253900       0.856618
    13708.019200       0.854447
    13726.836000       0.852265
    13745.704500       0.850072
    13764.624900       0.847868
    13783.597500       0.845654
    13802.622500       0.843430
    13821.700100       0.841195
    13840.830400       0.838949
    13860.013900       0.836694
    13879.250500       0.834428
    13898.540700       0.832152
    13917.884500       0.829866
    13937.282200       0.827569
    13956.734100       0.825263
    13976.240400       0.822948
    13995.801300       0.820622
    14015.417000       0.818286
    14035.087700       0.815941
    14054.813800       0.813587
    14074.595400       0.811223
    14094.432700       0.808849
    14114.326000       0.806466
    14134.275600       0.804073
    14154.281700       0.801672
    14174.344400       0.799261
    14194.464200       0.796841
    14214.641100       0.794412
    14234.875400       0.791975
    14255.167500       0.789528
    14275.517500       0.787072
    14295.925700       0.784608
    14316.392300       0.782135
    14336.917600       0.779653
    14357.501800       0.777163
    14378.145200       0.774664
    14398.848100       0.772157
    14419.610700       0.769642
    14440.433200       0.767118
    14461.316000       0.764586
    14482.259200       0.762046
    14503.263200       0.759498
    14524.328200       0.756942
    14545.454500       0.754378
    14566.642400       0.751806
    14587.892000       0.749227
    14609.203800       0.746640
    14630.577900       0.744045
    14652.014700       0.741443
    14673.514300       0.738834
    14695.077100       0.736217
    14716.703500       0.733593
    14738.393500       0.730961
    14760.147600       0.728323
    14781.966000       0.725678
    14803.849000       0.723026
    14825.796900       0.720367
    14847.809900       0.717701
    14869.888500       0.715029
    14892.032800       0.712350
    14914.243100       0.709664
    14936.519800       0.706973
    14958.863100       0.704275
    14981.273400       0.701571
    15003.750900       0.698861
    15026.296000       0.696145
    15048.909000       0.693423
    15071.590100       0.690695
    15094.339600       0.687962
    15117.158000       0.685223
    15140.045400       0.682479
    15163.002300       0.679729
    15186.028900       0.676975
    15209.125500       0.674215
    15232.292500       0.671450
    15255.530100       0.668680
    15278.838800       0.665905
    15302.218800       0.663126
    15325.670500       0.660342
    15349.194200       0.657554
    15372.790200       0.654762
    15396.458800       0.651965
    15420.200500       0.649164
    15444.015400       0.646360
    15467.904100       0.643551
    15491.866800       0.640739
    15515.903800       0.637923
    15540.015500       0.635104
    15564.202300       0.632282
    15588.464500       0.629456
    15612.802500       0.626627
    15637.216600       0.623796
    15661.707100       0.620961
    15686.274500       0.618124
    15710.919100       0.615284
    15735.641200       0.612442
    15760.441300       0.609598
    15785.319700       0.606751
    15810.276700       0.603903
    15835.312700       0.601053
    15860.428200       0.598201
    15885.623500       0.595347
    15910.899000       0.592493
    15936.255000       0.589636
    15961.691900       0.586779
    15987.210200       0.583921
    16012.810200       0.581062
    16038.492400       0.578202
    16064.257000       0.575342
    16090.104600       0.572481
    16116.035500       0.569620
    16142.050000       0.566759
    16168.148700       0.563898
    16194.332000       0.561037
    16220.600200       0.558177
    16246.953700       0.555317
    16273.393000       0.552457
    16299.918500       0.549599
    16326.530600       0.546741
    16353.229800       0.543885
    16380.016400       0.541029
    16406.890900       0.538175
    16433.853700       0.535323
    16460.905300       0.532472
    16488.046200       0.529623
    16515.276600       0.526776
    16542.597200       0.523932
    16570.008300       0.521089
    16597.510400       0.518249
    16625.103900       0.515412
    16652.789300       0.512577
    16680.567100       0.509746
    16708.437800       0.506917
    16736.401700       0.504091
    16764.459300       0.501269
    16792.611300       0.498450
    16820.857900       0.495635
    16849.199700       0.492824
    16877.637100       0.490016
    16906.170800       0.487213
    16934.801000       0.484414
    16963.528400       0.481619
    16992.353400       0.478828
    17021.276600       0.476042
    17050.298400       0.473261
    17079.419300       0.470485
    17108.639900       0.467714
    17137.960600       0.464948
    17167.382000       0.462187
    17196.904600       0.459432
    17226.528900       0.456682
    17256.255400       0.453938
    17286.084700       0.451199
    17316.017300       0.448467
    17346.053800       0.445740
    17376.194600       0.443020
    17406.440400       0.440306
    17436.791600       0.437598
    17467.248900       0.434897
    17497.812800       0.432203
    17528.483800       0.429515
    17559.262500       0.426834
    17590.149500       0.424160
    17621.145400       0.421492
    17652.250700       0.418833
    17683.466000       0.416180
    17714.791900       0.413534
    17746.228900       0.410896
    17777.777800       0.408266
    17809.439000       0.405643
    17841.213200       0.403028
    17873.101000       0.400420
    17905.103000       0.397821
    17937.219700       0.395229
    17969.451900       0.392645
    18001.800200       0.390069
    18034.265100       0.387502
    18066.847300       0.384942
    18099.547500       0.382391
    18132.366300       0.379848
    18165.304300       0.377314
    18198.362100       0.374788
    18231.540600       0.372270
    18264.840200       0.369761
    18298.261700       0.367260
    18331.805700       0.364768
    18365.472900       0.362284
    18399.264000       0.359810
    18433.179700       0.357343
    18467.220700       0.354886
    18501.387600       0.352437
    18535.681200       0.349997
    18570.102100       0.347565
    18604.651200       0.345142
    18639.329000       0.342728
    18674.136300       0.340323
    18709.073900       0.337927
    18744.142500       0.335539
    18779.342700       0.333160
    18814.675400       0.330789
    18850.141400       0.328427
    18885.741300       0.326074
    18921.475900       0.323730
    18957.346000       0.321394
    18993.352300       0.319066
    19029.495700       0.316747
    19065.776900       0.314437
    19102.196800       0.312135
    19138.756000       0.309841
    19175.455400       0.307556
    19212.295900       0.305279
    19249.278200       0.303010
    19286.403100       0.300749
    19323.671500       0.298496
    19361.084200       0.296252
    19398.642100       0.294015
    19436.346000       0.291786
    19474.196700       0.289564
    19512.195100       0.287350
    19550.342100       0.285144
    19588.638600       0.282946
    19627.085400       0.280754
    19665.683400       0.278570
    19704.433500       0.276393
    19743.336600       0.274223
    19782.393700       0.272060
    19821.605600       0.269903
    19860.973200       0.267753
    19900.497500       0.265610
    19940.179500       0.263473
    19980.020000       0.261343
    20020.020000       0.259218
    20060.180500       0.257100
    20100.502500       0.254987
    20140.986900       0.252880
    20181.634700       0.250778
    20222.446900       0.248682
    20263.424500       0.246591
    20304.568500       0.244505
    20345.880000       0.242424
    20387.359800       0.240348
    20429.009200       0.238276
    20470.829100       0.236209
    20512.820500       0.234146
    20554.984600       0.232087
    20597.322300       0.230032
    20639.834900       0.227980
    20682.523300       0.225932
    20725.388600       0.223888
    20768.432000       0.221846
    20811.654500       0.219808
    20855.057400       0.217772
    20898.641600       0.215739
    20942.408400       0.213708
    20986.358900       0.211679
    21030.494200       0.209653
    21074.815600       0.207628
    21119.324200       0.205605
    21164.021200       0.203583
    21208.907700       0.201563
    21253.985100       0.199544
    21299.254500       0.197525
    21344.717200       0.195507
    21390.374300       0.193490
    21436.227200       0.191473
    21482.277100       0.189456
    21528.525300       0.187439
    21574.973000       0.185421
    21621.621600       0.183404
    21668.472400       0.181385
    21715.526600       0.179366
    21762.785600       0.177346
    21810.250800       0.175324
    21857.923500       0.173301
    21905.805000       0.171277
    21953.896800       0.169251
    22002.200200       0.167223
    22050.716600       0.165193
    22099.447500       0.163160
    22148.394200       0.161126
    22197.558300       0.159089
    22246.941000       0.157049
    22296.544000       0.155006
    22346.368700       0.152960
    22396.416600       0.150912
    22446.689100       0.148860
    22497.187900       0.146804
    22547.914300       0.144746
    22598.870100       0.142683
    22650.056600       0.140617
    22701.475600       0.138547
    22753.128600       0.136474
    22805.017100       0.134396
    22857.142900       0.132314
    22909.507400       0.130229
    22962.112500       0.128139
    23014.959700       0.126045
    23068.050700       0.123946
    23121.387300       0.121843
    23174.971000       0.119736
    23228.803700       0.117625
    23282.887100       0.115509
    23337.222900       0.113389
    23391.812900       0.111265
    23446.658900       0.109136
    23501.762600       0.107003
    23557.126000       0.104866
    23612.750900       0.102725
    23668.639100       0.100579
    23724.792400       0.098430
    23781.212800       0.096277
    23837.902300       0.094119
    23894.862600       0.091959
    23952.095800       0.089794
    24009.603800       0.087627
    24067.388700       0.085456
    24125.452400       0.083282
    24183.796900       0.081106
    24242.424200       0.078927
    24301.336600       0.076745
    24360.535900       0.074561
    24420.024400       0.072376
    24479.804200       0.070189
    24539.877300       0.068001
    24600.246000       0.065811
    24660.912500       0.063621
    24721.878900       0.061431
    24783.147500       0.059242
    24844.720500       0.057052
    24906.600200       0.054864
    24968.789000       0.052677
    25031.289100       0.050492
    25094.102900       0.048309
    25157.232700       0.046129
    25220.681000       0.043952
    25284.450100       0.041779
    25348.542500       0.039611
    25412.960600       0.037448
    25477.707000       0.035290
