 5    ,AATSR Flight Model FPA #2 0.87um channel (AuSpace measuremets).
Number of data points:
255
Wavenumber (cm-1)   Filter response
    11109.271900       0.000000
    11112.481700       0.000010
    11115.680900       0.000100
    11118.894300       0.000170
    11122.097300       0.000130
    11125.302100       0.000160
    11128.521100       0.000230
    11131.729500       0.000250
    11134.939900       0.000260
    11138.164500       0.000310
    11141.378500       0.000330
    11144.594400       0.000390
    11147.824600       0.000380
    11151.044200       0.000530
    11154.265700       0.000560
    11157.501500       0.000750
    11160.726700       0.000770
    11163.953800       0.000800
    11167.195200       0.000870
    11170.426100       0.000950
    11173.658800       0.000980
    11176.905800       0.001060
    11180.142300       0.001110
    11183.393100       0.001230
    11186.633300       0.001350
    11189.875400       0.001400
    11193.131900       0.001500
    11196.377700       0.001630
    11199.625500       0.001800
    11202.887700       0.001940
    11206.139200       0.001990
    11209.392600       0.002150
    11212.660400       0.002250
    11215.917600       0.002410
    11219.176700       0.002640
    11222.450300       0.002720
    11225.713200       0.002920
    11228.977900       0.003070
    11232.257200       0.003350
    11235.525800       0.003630
    11238.796300       0.003850
    11242.081400       0.004150
    11245.355700       0.004310
    11248.644500       0.004650
    11251.922700       0.004910
    11255.202700       0.005250
    11258.497400       0.005650
    11261.781200       0.005980
    11265.067000       0.006290
    11268.367400       0.006740
    11271.657100       0.007000
    11274.948600       0.007280
    11278.254800       0.008000
    11281.550300       0.008650
    11284.847600       0.008970
    11288.159600       0.009520
    11291.460800       0.010210
    11294.764000       0.010740
    11298.081800       0.011300
    11301.388800       0.012230
    11304.697800       0.013180
    11308.021500       0.013850
    11311.334300       0.014570
    11314.661900       0.015860
    11317.978600       0.016770
    11321.297300       0.017650
    11324.630700       0.019140
    11327.953300       0.020650
    11331.277800       0.021550
    11334.617200       0.023100
    11337.945600       0.024990
    11341.276000       0.026320
    11344.621200       0.027950
    11347.955600       0.030650
    11351.291800       0.032650
    11354.643000       0.034530
    11357.983200       0.037560
    11361.325400       0.040870
    11364.682400       0.043360
    11368.028600       0.046480
    11371.376700       0.051020
    11374.739700       0.055240
    11378.091700       0.058900
    11381.458700       0.063300
    11384.814700       0.068540
    11388.172700       0.073570
    11391.545700       0.079130
    11394.907600       0.086140
    11398.271600       0.093500
    11401.650500       0.100470
    11405.018400       0.109030
    11408.388400       0.119830
    11411.773300       0.131770
    11415.147200       0.143930
    11418.523100       0.156760
    11421.914100       0.170160
    11425.294000       0.185770
    11428.675900       0.203740
    11432.072900       0.224160
    11435.458800       0.244120
    11438.846800       0.264520
    11442.249800       0.287270
    11445.641800       0.314020
    11449.048900       0.340660
    11452.444900       0.371460
    11455.842900       0.403880
    11459.256000       0.435390
    11462.658100       0.469060
    11466.062200       0.504560
    11469.481400       0.538430
    11472.889600       0.572240
    11476.299700       0.604930
    11479.725100       0.641940
    11483.139300       0.675460
    11486.555600       0.710350
    11489.987100       0.743810
    11493.407400       0.775410
    11496.829700       0.804260
    11500.267400       0.829500
    11503.693800       0.856870
    11507.122300       0.881990
    11510.566100       0.902450
    11513.998700       0.920970
    11517.446600       0.936240
    11520.883300       0.952270
    11524.322100       0.964010
    11527.776200       0.978120
    11531.219000       0.989290
    11534.664000       0.993290
    11538.124300       0.994200
    11541.573300       1.000000
    11545.024400       0.997830
    11548.491000       0.997490
    11551.946200       0.993930
    11555.403500       0.992200
    11558.876300       0.988730
    11562.337800       0.981160
    11565.801300       0.970480
    11569.280300       0.962350
    11572.748000       0.952150
    11576.217800       0.942390
    11579.703100       0.932790
    11583.177100       0.921850
    11586.666500       0.915000
    11590.144700       0.907700
    11593.624900       0.897670
    11597.120700       0.891230
    11600.605100       0.883380
    11604.091600       0.879000
    11607.593700       0.873550
    11611.084400       0.867920
    11614.577200       0.864610
    11618.085600       0.860620
    11621.582700       0.858990
    11625.081800       0.861020
    11628.596600       0.860130
    11632.099900       0.857940
    11635.605400       0.862650
    11639.126600       0.868130
    11642.636300       0.872640
    11646.148100       0.876390
    11649.675600       0.884660
    11653.191700       0.893370
    11656.723500       0.898360
    11660.243800       0.910820
    11663.766300       0.920950
    11667.304500       0.928230
    11670.831200       0.938340
    11674.360100       0.945320
    11677.904700       0.953130
    11681.437800       0.957160
    11684.973100       0.958250
    11688.524200       0.954450
    11692.063800       0.948930
    11695.605500       0.940160
    11699.163000       0.920180
    11702.709100       0.892420
    11706.257200       0.868750
    11709.821300       0.831350
    11713.373700       0.790290
    11716.928400       0.750850
    11720.498900       0.707920
    11724.057900       0.662470
    11727.632800       0.619510
    11731.196100       0.572080
    11734.761500       0.523260
    11738.342900       0.477190
    11741.912800       0.431820
    11745.484700       0.385850
    11749.072700       0.344260
    11752.649000       0.306130
    11756.227600       0.270490
    11759.822100       0.238090
    11763.405000       0.209710
    11766.990100       0.182990
    11770.591200       0.160920
    11774.180600       0.141820
    11777.772300       0.124880
    11781.380000       0.109510
    11784.976000       0.095910
    11788.574300       0.084080
    11792.188600       0.074100
    11795.791300       0.065180
    11799.410000       0.057260
    11803.017100       0.050430
    11806.626400       0.044850
    11810.251800       0.039940
    11813.865500       0.035790
    11817.481400       0.031840
    11821.113500       0.028560
    11824.733800       0.025850
    11828.356400       0.023240
    11831.995100       0.020890
    11835.622100       0.018880
    11839.251400       0.017210
    11842.896900       0.015770
    11846.530600       0.014250
    11850.166500       0.013100
    11853.818700       0.011980
    11857.459100       0.011050
    11861.101800       0.009980
    11864.760700       0.009070
    11868.407800       0.008440
    11872.071300       0.007800
    11875.722900       0.007290
    11879.376800       0.006610
    11883.047100       0.006110
    11886.705400       0.005630
    11890.366100       0.005270
    11894.043100       0.004880
    11897.708300       0.004580
    11901.375700       0.004230
    11905.059500       0.003800
    11908.731500       0.003500
    11912.405700       0.003350
    11916.096400       0.003190
    11919.775100       0.003000
    11923.456200       0.002790
    11927.153700       0.002440
    11930.839300       0.002350
    11934.527200       0.002190
    11938.231600       0.002080
    11941.924000       0.002050
    11945.633000       0.001820
    11949.330100       0.001660
    11953.029400       0.001640
    11956.745300       0.001530
    11960.449200       0.001490
    11964.155400       0.001340
    11967.878200       0.001250
    11971.589000       0.001110
    11975.302100       0.001030
    11979.031900       0.001010
    11982.749600       0.000970
    11986.469700       0.000920
