148,   148, MVIRI VIS channel from srf_MET7_2016033_2016034_1801-Release_S10EE_10.dat
Number of data points:
793
Wavenumber (cm-1)   Filter response
     8442.380800       0.000000
     8449.514200       0.000000
     8456.659600       0.000004
     8463.817200       0.000057
     8470.986900       0.000169
     8478.168700       0.000338
     8485.362700       0.000562
     8492.569000       0.000840
     8499.787500       0.001171
     8507.018300       0.001552
     8514.261400       0.001983
     8521.516800       0.002461
     8528.784600       0.002986
     8536.064900       0.003557
     8543.357500       0.004171
     8550.662700       0.004828
     8557.980300       0.005526
     8565.310500       0.006265
     8572.653200       0.007043
     8580.008600       0.007859
     8587.376600       0.008713
     8594.757200       0.009603
     8602.150500       0.010528
     8609.556600       0.011488
     8616.975400       0.012481
     8624.407100       0.013507
     8631.851500       0.014566
     8639.308900       0.015655
     8646.779100       0.016776
     8654.262200       0.017926
     8661.758300       0.019105
     8669.267400       0.020314
     8676.789600       0.021550
     8684.324800       0.022814
     8691.873100       0.024104
     8699.434500       0.025422
     8707.009100       0.026765
     8714.596900       0.028134
     8722.198000       0.029528
     8729.812300       0.030947
     8737.439900       0.032391
     8745.080900       0.033858
     8752.735200       0.035350
     8760.403000       0.036864
     8768.084200       0.038402
     8775.778900       0.039963
     8783.487000       0.041547
     8791.208800       0.043152
     8798.944100       0.044780
     8806.693100       0.046431
     8814.455700       0.048102
     8822.232000       0.049796
     8830.022100       0.051511
     8837.825900       0.053248
     8845.643500       0.055006
     8853.475000       0.056785
     8861.320300       0.058586
     8869.179600       0.060407
     8877.052800       0.062249
     8884.940000       0.064113
     8892.841300       0.065997
     8900.756600       0.067902
     8908.686000       0.069828
     8916.629500       0.071775
     8924.587200       0.073743
     8932.559200       0.075731
     8940.545400       0.077741
     8948.545900       0.079771
     8956.560700       0.081822
     8964.589900       0.083894
     8972.633500       0.085987
     8980.691500       0.088101
     8988.764000       0.090237
     8996.851100       0.092393
     9004.952700       0.094571
     9013.068900       0.096769
     9021.199800       0.098990
     9029.345400       0.101231
     9037.505600       0.103494
     9045.680700       0.105779
     9053.870500       0.108085
     9062.075200       0.110414
     9070.294800       0.112764
     9078.529300       0.115135
     9086.778700       0.117529
     9095.043200       0.119945
     9103.322700       0.122383
     9111.617300       0.124844
     9119.927000       0.127326
     9128.251900       0.129831
     9136.592100       0.132359
     9144.947400       0.134909
     9153.318100       0.137482
     9161.704100       0.140078
     9170.105500       0.142697
     9178.522300       0.145338
     9186.954500       0.148002
     9195.402300       0.150690
     9203.865600       0.153401
     9212.344500       0.156135
     9220.839100       0.158892
     9229.349300       0.161673
     9237.875300       0.164477
     9246.417000       0.167304
     9254.974500       0.170155
     9263.547900       0.173030
     9272.137200       0.175928
     9280.742500       0.178850
     9289.363700       0.181795
     9298.000900       0.184764
     9306.654300       0.187757
     9315.323700       0.190774
     9324.009300       0.193814
     9332.711200       0.196878
     9341.429200       0.199966
     9350.163600       0.203078
     9358.914400       0.206213
     9367.681500       0.209373
     9376.465100       0.212556
     9385.265100       0.215763
     9394.081700       0.218994
     9402.914900       0.222247
     9411.764700       0.225525
     9420.631200       0.228827
     9429.514400       0.232152
     9438.414300       0.235500
     9447.331100       0.238872
     9456.264800       0.242267
     9465.215300       0.245686
     9474.182900       0.249127
     9483.167400       0.252592
     9492.169000       0.256080
     9501.187600       0.259591
     9510.223500       0.263124
     9519.276500       0.266680
     9528.346800       0.270259
     9537.434400       0.273860
     9546.539400       0.277483
     9555.661700       0.281129
     9564.801500       0.284797
     9573.958800       0.288486
     9583.133700       0.292197
     9592.326100       0.295930
     9601.536200       0.299684
     9610.764100       0.303459
     9620.009600       0.307255
     9629.273000       0.311072
     9638.554200       0.314909
     9647.853400       0.318767
     9657.170400       0.322645
     9666.505600       0.326543
     9675.858700       0.330461
     9685.230000       0.334398
     9694.619500       0.338355
     9704.027200       0.342330
     9713.453100       0.346325
     9722.897400       0.350338
     9732.360100       0.354368
     9741.841200       0.358417
     9751.340800       0.362484
     9760.859000       0.366568
     9770.395700       0.370670
     9779.951100       0.374787
     9789.525200       0.378922
     9799.118100       0.383073
     9808.729800       0.387240
     9818.360300       0.391422
     9828.009800       0.395620
     9837.678300       0.399832
     9847.365800       0.404060
     9857.072400       0.408301
     9866.798200       0.412557
     9876.543200       0.416825
     9886.307500       0.421108
     9896.091000       0.425403
     9905.894000       0.429711
     9915.716400       0.434031
     9925.558300       0.438362
     9935.419800       0.442706
     9945.300800       0.447060
     9955.201600       0.451425
     9965.122100       0.455800
     9975.062300       0.460185
     9985.022500       0.464579
     9995.002500       0.468983
    10005.002500       0.473395
    10015.022500       0.477815
    10025.062700       0.482244
    10035.122900       0.486679
    10045.203400       0.491122
    10055.304200       0.495571
    10065.425300       0.500027
    10075.566800       0.504488
    10085.728700       0.508954
    10095.911200       0.513425
    10106.114200       0.517901
    10116.337900       0.522380
    10126.582300       0.526863
    10136.847400       0.531349
    10147.133400       0.535838
    10157.440300       0.540329
    10167.768200       0.544822
    10178.117000       0.549315
    10188.487000       0.553810
    10198.878100       0.558305
    10209.290500       0.562800
    10219.724100       0.567294
    10230.179000       0.571787
    10240.655400       0.576279
    10251.153300       0.580768
    10261.672700       0.585255
    10272.213700       0.589739
    10282.776300       0.594220
    10293.360800       0.598697
    10303.967000       0.603169
    10314.595200       0.607637
    10325.245200       0.612099
    10335.917300       0.616555
    10346.611500       0.621005
    10357.327800       0.625449
    10368.066400       0.629884
    10378.827200       0.634313
    10389.610400       0.638733
    10400.416000       0.643144
    10411.244100       0.647547
    10422.094800       0.651939
    10432.968200       0.656322
    10443.864200       0.660694
    10454.783100       0.665054
    10465.724800       0.669404
    10476.689400       0.673741
    10487.677000       0.678066
    10498.687700       0.682377
    10509.721500       0.686676
    10520.778500       0.690960
    10531.858900       0.695230
    10542.962600       0.699485
    10554.089700       0.703725
    10565.240400       0.707949
    10576.414600       0.712157
    10587.612500       0.716348
    10598.834100       0.720523
    10610.079600       0.724679
    10621.348900       0.728818
    10632.642200       0.732937
    10643.959600       0.737039
    10655.301000       0.741120
    10666.666700       0.745182
    10678.056600       0.749223
    10689.470900       0.753244
    10700.909600       0.757244
    10712.372800       0.761222
    10723.860600       0.765178
    10735.373100       0.769111
    10746.910300       0.773022
    10758.472300       0.776910
    10770.059200       0.780773
    10781.671200       0.784613
    10793.308100       0.788428
    10804.970300       0.792219
    10816.657700       0.795984
    10828.370300       0.799723
    10840.108400       0.803436
    10851.871900       0.807123
    10863.661100       0.810783
    10875.475800       0.814416
    10887.316300       0.818021
    10899.182600       0.821598
    10911.074700       0.825147
    10922.992900       0.828667
    10934.937100       0.832158
    10946.907500       0.835620
    10958.904100       0.839052
    10970.927000       0.842454
    10982.976400       0.845825
    10995.052200       0.849166
    11007.154700       0.852476
    11019.283700       0.855754
    11031.439600       0.859001
    11043.622300       0.862215
    11055.832000       0.865397
    11068.068600       0.868547
    11080.332400       0.871664
    11092.623400       0.874747
    11104.941700       0.877797
    11117.287400       0.880813
    11129.660500       0.883796
    11142.061300       0.886744
    11154.489700       0.889657
    11166.945800       0.892536
    11179.429800       0.895379
    11191.941800       0.898188
    11204.481800       0.900961
    11217.049900       0.903698
    11229.646300       0.906399
    11242.270900       0.909063
    11254.924000       0.911692
    11267.605600       0.914284
    11280.315800       0.916839
    11293.054800       0.919357
    11305.822500       0.921838
    11318.619100       0.924282
    11331.444800       0.926688
    11344.299500       0.929056
    11357.183400       0.931387
    11370.096600       0.933679
    11383.039300       0.935934
    11396.011400       0.938150
    11409.013100       0.940328
    11422.044500       0.942467
    11435.105800       0.944568
    11448.196900       0.946629
    11461.318100       0.948652
    11474.469300       0.950636
    11487.650800       0.952581
    11500.862600       0.954487
    11514.104800       0.956354
    11527.377500       0.958181
    11540.680900       0.959969
    11554.015000       0.961717
    11567.380000       0.963426
    11580.775900       0.965096
    11594.202900       0.966726
    11607.661100       0.968316
    11621.150500       0.969867
    11634.671300       0.971378
    11648.223600       0.972850
    11661.807600       0.974282
    11675.423200       0.975674
    11689.070700       0.977027
    11702.750100       0.978340
    11716.461600       0.979614
    11730.205300       0.980848
    11743.981200       0.982042
    11757.789500       0.983197
    11771.630400       0.984313
    11785.503800       0.985389
    11799.410000       0.986426
    11813.349100       0.987424
    11827.321100       0.988383
    11841.326200       0.989303
    11855.364600       0.990183
    11869.436200       0.991025
    11883.541300       0.991828
    11897.680000       0.992593
    11911.852300       0.993319
    11926.058400       0.994006
    11940.298500       0.994656
    11954.572600       0.995267
    11968.880900       0.995840
    11983.223500       0.996376
    11997.600500       0.996873
    12012.012000       0.997334
    12026.458200       0.997757
    12040.939200       0.998142
    12055.455100       0.998491
    12070.006000       0.998803
    12084.592100       0.999079
    12099.213600       0.999318
    12113.870400       0.999521
    12128.562800       0.999688
    12143.290800       0.999819
    12158.054700       0.999914
    12172.854500       0.999975
    12187.690400       1.000000
    12202.562500       0.999990
    12217.471000       0.999946
    12232.415900       0.999868
    12247.397400       0.999755
    12262.415700       0.999609
    12277.470800       0.999429
    12292.563000       0.999216
    12307.692300       0.998970
    12322.858900       0.998692
    12338.062900       0.998381
    12353.304500       0.998038
    12368.583800       0.997663
    12383.900900       0.997256
    12399.256000       0.996819
    12414.649300       0.996350
    12430.080800       0.995851
    12445.550700       0.995322
    12461.059200       0.994763
    12476.606400       0.994175
    12492.192400       0.993557
    12507.817400       0.992910
    12523.481500       0.992235
    12539.185000       0.991532
    12554.927800       0.990801
    12570.710200       0.990042
    12586.532400       0.989256
    12602.394500       0.988444
    12618.296500       0.987606
    12634.238800       0.986741
    12650.221400       0.985851
    12666.244500       0.984935
    12682.308200       0.983995
    12698.412700       0.983031
    12714.558200       0.982042
    12730.744700       0.981030
    12746.972600       0.979995
    12763.241900       0.978936
    12779.552700       0.977856
    12795.905300       0.976753
    12812.299800       0.975629
    12828.736400       0.974484
    12845.215200       0.973318
    12861.736300       0.972131
    12878.300100       0.970925
    12894.906500       0.969699
    12911.555800       0.968454
    12928.248200       0.967191
    12944.983800       0.965909
    12961.762800       0.964610
    12978.585300       0.963293
    12995.451600       0.961960
    13012.361700       0.960609
    13029.316000       0.959243
    13046.314400       0.957862
    13063.357300       0.956465
    13080.444700       0.955054
    13097.576900       0.953628
    13114.754100       0.952189
    13131.976400       0.950736
    13149.243900       0.949271
    13166.556900       0.947793
    13183.915600       0.946303
    13201.320100       0.944802
    13218.770700       0.943289
    13236.267400       0.941766
    13253.810500       0.940233
    13271.400100       0.938690
    13289.036500       0.937138
    13306.719900       0.935577
    13324.450400       0.934007
    13342.228200       0.932430
    13360.053400       0.930845
    13377.926400       0.929254
    13395.847300       0.927655
    13413.816200       0.926051
    13431.833400       0.924441
    13449.899100       0.922826
    13468.013500       0.921206
    13486.176700       0.919582
    13504.388900       0.917954
    13522.650400       0.916322
    13540.961400       0.914688
    13559.322000       0.913051
    13577.732500       0.911412
    13596.193100       0.909771
    13614.703900       0.908129
    13633.265200       0.906486
    13651.877100       0.904843
    13670.540000       0.903200
    13689.253900       0.901558
    13708.019200       0.899916
    13726.836000       0.898276
    13745.704500       0.896637
    13764.624900       0.895001
    13783.597500       0.893367
    13802.622500       0.891737
    13821.700100       0.890109
    13840.830400       0.888486
    13860.013900       0.886867
    13879.250500       0.885252
    13898.540700       0.883642
    13917.884500       0.882038
    13937.282200       0.880440
    13956.734100       0.878847
    13976.240400       0.877262
    13995.801300       0.875683
    14015.417000       0.874111
    14035.087700       0.872548
    14054.813800       0.870992
    14074.595400       0.869444
    14094.432700       0.867906
    14114.326000       0.866376
    14134.275600       0.864856
    14154.281700       0.863345
    14174.344400       0.861845
    14194.464200       0.860355
    14214.641100       0.858876
    14234.875400       0.857408
    14255.167500       0.855951
    14275.517500       0.854506
    14295.925700       0.853073
    14316.392300       0.851653
    14336.917600       0.850245
    14357.501800       0.848850
    14378.145200       0.847468
    14398.848100       0.846099
    14419.610700       0.844744
    14440.433200       0.843403
    14461.316000       0.842076
    14482.259200       0.840764
    14503.263200       0.839466
    14524.328200       0.838184
    14545.454500       0.836916
    14566.642400       0.835664
    14587.892000       0.834428
    14609.203800       0.833207
    14630.577900       0.832003
    14652.014700       0.830815
    14673.514300       0.829643
    14695.077100       0.828487
    14716.703500       0.827349
    14738.393500       0.826227
    14760.147600       0.825123
    14781.966000       0.824036
    14803.849000       0.822966
    14825.796900       0.821914
    14847.809900       0.820879
    14869.888500       0.819862
    14892.032800       0.818863
    14914.243100       0.817883
    14936.519800       0.816920
    14958.863100       0.815975
    14981.273400       0.815049
    15003.750900       0.814141
    15026.296000       0.813252
    15048.909000       0.812381
    15071.590100       0.811529
    15094.339600       0.810695
    15117.158000       0.809880
    15140.045400       0.809083
    15163.002300       0.808305
    15186.028900       0.807546
    15209.125500       0.806806
    15232.292500       0.806084
    15255.530100       0.805381
    15278.838800       0.804697
    15302.218800       0.804031
    15325.670500       0.803384
    15349.194200       0.802755
    15372.790200       0.802145
    15396.458800       0.801553
    15420.200500       0.800979
    15444.015400       0.800424
    15467.904100       0.799886
    15491.866800       0.799367
    15515.903800       0.798866
    15540.015500       0.798383
    15564.202300       0.797917
    15588.464500       0.797469
    15612.802500       0.797038
    15637.216600       0.796624
    15661.707100       0.796227
    15686.274500       0.795848
    15710.919100       0.795485
    15735.641200       0.795138
    15760.441300       0.794808
    15785.319700       0.794494
    15810.276700       0.794196
    15835.312700       0.793913
    15860.428200       0.793646
    15885.623500       0.793394
    15910.899000       0.793157
    15936.255000       0.792935
    15961.691900       0.792727
    15987.210200       0.792533
    16012.810200       0.792353
    16038.492400       0.792186
    16064.257000       0.792032
    16090.104600       0.791892
    16116.035500       0.791764
    16142.050000       0.791648
    16168.148700       0.791544
    16194.332000       0.791452
    16220.600200       0.791370
    16246.953700       0.791300
    16273.393000       0.791240
    16299.918500       0.791190
    16326.530600       0.791149
    16353.229800       0.791118
    16380.016400       0.791096
    16406.890900       0.791082
    16433.853700       0.791075
    16460.905300       0.791077
    16488.046200       0.791085
    16515.276600       0.791100
    16542.597200       0.791122
    16570.008300       0.791149
    16597.510400       0.791181
    16625.103900       0.791217
    16652.789300       0.791259
    16680.567100       0.791303
    16708.437800       0.791351
    16736.401700       0.791402
    16764.459300       0.791455
    16792.611300       0.791509
    16820.857900       0.791565
    16849.199700       0.791621
    16877.637100       0.791677
    16906.170800       0.791732
    16934.801000       0.791787
    16963.528400       0.791840
    16992.353400       0.791890
    17021.276600       0.791937
    17050.298400       0.791982
    17079.419300       0.792022
    17108.639900       0.792057
    17137.960600       0.792087
    17167.382000       0.792111
    17196.904600       0.792129
    17226.528900       0.792139
    17256.255400       0.792142
    17286.084700       0.792136
    17316.017300       0.792121
    17346.053800       0.792096
    17376.194600       0.792061
    17406.440400       0.792015
    17436.791600       0.791957
    17467.248900       0.791887
    17497.812800       0.791803
    17528.483800       0.791706
    17559.262500       0.791595
    17590.149500       0.791468
    17621.145400       0.791326
    17652.250700       0.791167
    17683.466000       0.790990
    17714.791900       0.790796
    17746.228900       0.790583
    17777.777800       0.790351
    17809.439000       0.790099
    17841.213200       0.789826
    17873.101000       0.789532
    17905.103000       0.789215
    17937.219700       0.788876
    17969.451900       0.788512
    18001.800200       0.788125
    18034.265100       0.787712
    18066.847300       0.787274
    18099.547500       0.786809
    18132.366300       0.786316
    18165.304300       0.785796
    18198.362100       0.785247
    18231.540600       0.784668
    18264.840200       0.784059
    18298.261700       0.783420
    18331.805700       0.782748
    18365.472900       0.782044
    18399.264000       0.781308
    18433.179700       0.780537
    18467.220700       0.779731
    18501.387600       0.778891
    18535.681200       0.778014
    18570.102100       0.777101
    18604.651200       0.776150
    18639.329000       0.775161
    18674.136300       0.774133
    18709.073900       0.773066
    18744.142500       0.771958
    18779.342700       0.770809
    18814.675400       0.769618
    18850.141400       0.768386
    18885.741300       0.767110
    18921.475900       0.765790
    18957.346000       0.764426
    18993.352300       0.763016
    19029.495700       0.761561
    19065.776900       0.760060
    19102.196800       0.758511
    19138.756000       0.756915
    19175.455400       0.755270
    19212.295900       0.753577
    19249.278200       0.751833
    19286.403100       0.750040
    19323.671500       0.748195
    19361.084200       0.746299
    19398.642100       0.744351
    19436.346000       0.742351
    19474.196700       0.740297
    19512.195100       0.738189
    19550.342100       0.736027
    19588.638600       0.733810
    19627.085400       0.731538
    19665.683400       0.729209
    19704.433500       0.726825
    19743.336600       0.724383
    19782.393700       0.721884
    19821.605600       0.719327
    19860.973200       0.716711
    19900.497500       0.714037
    19940.179500       0.711303
    19980.020000       0.708510
    20020.020000       0.705657
    20060.180500       0.702743
    20100.502500       0.699768
    20140.986900       0.696733
    20181.634700       0.693635
    20222.446900       0.690476
    20263.424500       0.687254
    20304.568500       0.683970
    20345.880000       0.680623
    20387.359800       0.677214
    20429.009200       0.673740
    20470.829100       0.670204
    20512.820500       0.666603
    20554.984600       0.662939
    20597.322300       0.659210
    20639.834900       0.655418
    20682.523300       0.651561
    20725.388600       0.647639
    20768.432000       0.643653
    20811.654500       0.639603
    20855.057400       0.635488
    20898.641600       0.631308
    20942.408400       0.627063
    20986.358900       0.622754
    21030.494200       0.618380
    21074.815600       0.613942
    21119.324200       0.609439
    21164.021200       0.604872
    21208.907700       0.600241
    21253.985100       0.595546
    21299.254500       0.590788
    21344.717200       0.585965
    21390.374300       0.581080
    21436.227200       0.576131
    21482.277100       0.571120
    21528.525300       0.566047
    21574.973000       0.560912
    21621.621600       0.555715
    21668.472400       0.550457
    21715.526600       0.545138
    21762.785600       0.539760
    21810.250800       0.534321
    21857.923500       0.528824
    21905.805000       0.523268
    21953.896800       0.517655
    22002.200200       0.511984
    22050.716600       0.506256
    22099.447500       0.500473
    22148.394200       0.494635
    22197.558300       0.488743
    22246.941000       0.482797
    22296.544000       0.476799
    22346.368700       0.470749
    22396.416600       0.464649
    22446.689100       0.458499
    22497.187900       0.452300
    22547.914300       0.446054
    22598.870100       0.439761
    22650.056600       0.433422
    22701.475600       0.427040
    22753.128600       0.420614
    22805.017100       0.414147
    22857.142900       0.407640
    22909.507400       0.401093
    22962.112500       0.394508
    23014.959700       0.387888
    23068.050700       0.381232
    23121.387300       0.374543
    23174.971000       0.367822
    23228.803700       0.361072
    23282.887100       0.354293
    23337.222900       0.347487
    23391.812900       0.340656
    23446.658900       0.333801
    23501.762600       0.326926
    23557.126000       0.320031
    23612.750900       0.313118
    23668.639100       0.306190
    23724.792400       0.299248
    23781.212800       0.292294
    23837.902300       0.285332
    23894.862600       0.278362
    23952.095800       0.271387
    24009.603800       0.264410
    24067.388700       0.257433
    24125.452400       0.250457
    24183.796900       0.243487
    24242.424200       0.236523
    24301.336600       0.229569
    24360.535900       0.222628
    24420.024400       0.215701
    24479.804200       0.208792
    24539.877300       0.201904
    24600.246000       0.195039
    24660.912500       0.188201
    24721.878900       0.181391
    24783.147500       0.174614
    24844.720500       0.167873
    24906.600200       0.161169
    24968.789000       0.154508
    25031.289100       0.147892
    25094.102900       0.141324
    25157.232700       0.134807
    25220.681000       0.128346
    25284.450100       0.121944
    25348.542500       0.115604
    25412.960600       0.109330
    25477.707000       0.103126
