108,   108, MVIRI VIS channel from srf_MET7_2011033_2011034_1801-Release_S10EE_10.dat
Number of data points:
793
Wavenumber (cm-1)   Filter response
     8442.380800       0.000000
     8449.514200       0.000000
     8456.659600       0.000004
     8463.817200       0.000056
     8470.986900       0.000167
     8478.168700       0.000333
     8485.362700       0.000554
     8492.569000       0.000829
     8499.787500       0.001155
     8507.018300       0.001531
     8514.261400       0.001956
     8521.516800       0.002428
     8528.784600       0.002946
     8536.064900       0.003508
     8543.357500       0.004114
     8550.662700       0.004762
     8557.980300       0.005452
     8565.310500       0.006180
     8572.653200       0.006948
     8580.008600       0.007754
     8587.376600       0.008596
     8594.757200       0.009475
     8602.150500       0.010388
     8609.556600       0.011335
     8616.975400       0.012316
     8624.407100       0.013329
     8631.851500       0.014373
     8639.308900       0.015449
     8646.779100       0.016555
     8654.262200       0.017690
     8661.758300       0.018855
     8669.267400       0.020048
     8676.789600       0.021268
     8684.324800       0.022516
     8691.873100       0.023791
     8699.434500       0.025092
     8707.009100       0.026419
     8714.596900       0.027770
     8722.198000       0.029147
     8729.812300       0.030549
     8737.439900       0.031975
     8745.080900       0.033424
     8752.735200       0.034897
     8760.403000       0.036394
     8768.084200       0.037913
     8775.778900       0.039455
     8783.487000       0.041019
     8791.208800       0.042606
     8798.944100       0.044214
     8806.693100       0.045845
     8814.455700       0.047497
     8822.232000       0.049171
     8830.022100       0.050866
     8837.825900       0.052582
     8845.643500       0.054320
     8853.475000       0.056078
     8861.320300       0.057858
     8869.179600       0.059658
     8877.052800       0.061480
     8884.940000       0.063322
     8892.841300       0.065184
     8900.756600       0.067068
     8908.686000       0.068972
     8916.629500       0.070897
     8924.587200       0.072843
     8932.559200       0.074809
     8940.545400       0.076796
     8948.545900       0.078804
     8956.560700       0.080833
     8964.589900       0.082882
     8972.633500       0.084952
     8980.691500       0.087043
     8988.764000       0.089156
     8996.851100       0.091289
     9004.952700       0.093443
     9013.068900       0.095618
     9021.199800       0.097815
     9029.345400       0.100033
     9037.505600       0.102272
     9045.680700       0.104533
     9053.870500       0.106815
     9062.075200       0.109119
     9070.294800       0.111445
     9078.529300       0.113792
     9086.778700       0.116162
     9095.043200       0.118553
     9103.322700       0.120966
     9111.617300       0.123402
     9119.927000       0.125860
     9128.251900       0.128340
     9136.592100       0.130842
     9144.947400       0.133367
     9153.318100       0.135915
     9161.704100       0.138485
     9170.105500       0.141078
     9178.522300       0.143694
     9186.954500       0.146333
     9195.402300       0.148995
     9203.865600       0.151679
     9212.344500       0.154387
     9220.839100       0.157119
     9229.349300       0.159873
     9237.875300       0.162651
     9246.417000       0.165452
     9254.974500       0.168276
     9263.547900       0.171125
     9272.137200       0.173996
     9280.742500       0.176891
     9289.363700       0.179810
     9298.000900       0.182753
     9306.654300       0.185719
     9315.323700       0.188708
     9324.009300       0.191722
     9332.711200       0.194759
     9341.429200       0.197820
     9350.163600       0.200905
     9358.914400       0.204013
     9367.681500       0.207146
     9376.465100       0.210302
     9385.265100       0.213481
     9394.081700       0.216685
     9402.914900       0.219911
     9411.764700       0.223162
     9420.631200       0.226436
     9429.514400       0.229734
     9438.414300       0.233055
     9447.331100       0.236399
     9456.264800       0.239767
     9465.215300       0.243158
     9474.182900       0.246573
     9483.167400       0.250010
     9492.169000       0.253470
     9501.187600       0.256954
     9510.223500       0.260460
     9519.276500       0.263989
     9528.346800       0.267540
     9537.434400       0.271114
     9546.539400       0.274710
     9555.661700       0.278329
     9564.801500       0.281969
     9573.958800       0.285632
     9583.133700       0.289316
     9592.326100       0.293021
     9601.536200       0.296749
     9610.764100       0.300497
     9620.009600       0.304266
     9629.273000       0.308057
     9638.554200       0.311867
     9647.853400       0.315699
     9657.170400       0.319550
     9666.505600       0.323422
     9675.858700       0.327314
     9685.230000       0.331225
     9694.619500       0.335155
     9704.027200       0.339105
     9713.453100       0.343073
     9722.897400       0.347061
     9732.360100       0.351066
     9741.841200       0.355090
     9751.340800       0.359131
     9760.859000       0.363190
     9770.395700       0.367267
     9779.951100       0.371360
     9789.525200       0.375470
     9799.118100       0.379597
     9808.729800       0.383739
     9818.360300       0.387898
     9828.009800       0.392071
     9837.678300       0.396260
     9847.365800       0.400464
     9857.072400       0.404682
     9866.798200       0.408915
     9876.543200       0.413161
     9886.307500       0.417421
     9896.091000       0.421694
     9905.894000       0.425980
     9915.716400       0.430278
     9925.558300       0.434588
     9935.419800       0.438910
     9945.300800       0.443243
     9955.201600       0.447587
     9965.122100       0.451942
     9975.062300       0.456306
     9985.022500       0.460681
     9995.002500       0.465065
    10005.002500       0.469457
    10015.022500       0.473859
    10025.062700       0.478268
    10035.122900       0.482685
    10045.203400       0.487110
    10055.304200       0.491541
    10065.425300       0.495979
    10075.566800       0.500423
    10085.728700       0.504872
    10095.911200       0.509327
    10106.114200       0.513787
    10116.337900       0.518250
    10126.582300       0.522718
    10136.847400       0.527189
    10147.133400       0.531663
    10157.440300       0.536140
    10167.768200       0.540618
    10178.117000       0.545099
    10188.487000       0.549580
    10198.878100       0.554062
    10209.290500       0.558545
    10219.724100       0.563027
    10230.179000       0.567508
    10240.655400       0.571989
    10251.153300       0.576468
    10261.672700       0.580944
    10272.213700       0.585419
    10282.776300       0.589890
    10293.360800       0.594358
    10303.967000       0.598821
    10314.595200       0.603281
    10325.245200       0.607735
    10335.917300       0.612185
    10346.611500       0.616628
    10357.327800       0.621065
    10368.066400       0.625495
    10378.827200       0.629918
    10389.610400       0.634333
    10400.416000       0.638740
    10411.244100       0.643139
    10422.094800       0.647528
    10432.968200       0.651907
    10443.864200       0.656277
    10454.783100       0.660636
    10465.724800       0.664983
    10476.689400       0.669320
    10487.677000       0.673644
    10498.687700       0.677956
    10509.721500       0.682255
    10520.778500       0.686540
    10531.858900       0.690812
    10542.962600       0.695069
    10554.089700       0.699312
    10565.240400       0.703539
    10576.414600       0.707751
    10587.612500       0.711946
    10598.834100       0.716125
    10610.079600       0.720287
    10621.348900       0.724431
    10632.642200       0.728557
    10643.959600       0.732665
    10655.301000       0.736754
    10666.666700       0.740824
    10678.056600       0.744874
    10689.470900       0.748904
    10700.909600       0.752913
    10712.372800       0.756901
    10723.860600       0.760868
    10735.373100       0.764813
    10746.910300       0.768735
    10758.472300       0.772635
    10770.059200       0.776512
    10781.671200       0.780365
    10793.308100       0.784194
    10804.970300       0.787999
    10816.657700       0.791779
    10828.370300       0.795534
    10840.108400       0.799264
    10851.871900       0.802967
    10863.661100       0.806645
    10875.475800       0.810295
    10887.316300       0.813919
    10899.182600       0.817515
    10911.074700       0.821083
    10922.992900       0.824623
    10934.937100       0.828135
    10946.907500       0.831618
    10958.904100       0.835071
    10970.927000       0.838496
    10982.976400       0.841890
    10995.052200       0.845254
    11007.154700       0.848587
    11019.283700       0.851890
    11031.439600       0.855162
    11043.622300       0.858402
    11055.832000       0.861610
    11068.068600       0.864786
    11080.332400       0.867930
    11092.623400       0.871041
    11104.941700       0.874119
    11117.287400       0.877164
    11129.660500       0.880176
    11142.061300       0.883153
    11154.489700       0.886097
    11166.945800       0.889006
    11179.429800       0.891881
    11191.941800       0.894721
    11204.481800       0.897526
    11217.049900       0.900296
    11229.646300       0.903030
    11242.270900       0.905729
    11254.924000       0.908392
    11267.605600       0.911018
    11280.315800       0.913609
    11293.054800       0.916163
    11305.822500       0.918680
    11318.619100       0.921160
    11331.444800       0.923603
    11344.299500       0.926009
    11357.183400       0.928378
    11370.096600       0.930709
    11383.039300       0.933002
    11396.011400       0.935258
    11409.013100       0.937476
    11422.044500       0.939655
    11435.105800       0.941797
    11448.196900       0.943900
    11461.318100       0.945964
    11474.469300       0.947990
    11487.650800       0.949977
    11500.862600       0.951926
    11514.104800       0.953836
    11527.377500       0.955707
    11540.680900       0.957539
    11554.015000       0.959332
    11567.380000       0.961086
    11580.775900       0.962801
    11594.202900       0.964476
    11607.661100       0.966113
    11621.150500       0.967710
    11634.671300       0.969268
    11648.223600       0.970787
    11661.807600       0.972266
    11675.423200       0.973706
    11689.070700       0.975107
    11702.750100       0.976469
    11716.461600       0.977791
    11730.205300       0.979074
    11743.981200       0.980318
    11757.789500       0.981523
    11771.630400       0.982689
    11785.503800       0.983816
    11799.410000       0.984904
    11813.349100       0.985953
    11827.321100       0.986963
    11841.326200       0.987934
    11855.364600       0.988867
    11869.436200       0.989761
    11883.541300       0.990616
    11897.680000       0.991433
    11911.852300       0.992212
    11926.058400       0.992953
    11940.298500       0.993656
    11954.572600       0.994321
    11968.880900       0.994948
    11983.223500       0.995537
    11997.600500       0.996090
    12012.012000       0.996604
    12026.458200       0.997082
    12040.939200       0.997523
    12055.455100       0.997927
    12070.006000       0.998294
    12084.592100       0.998625
    12099.213600       0.998920
    12113.870400       0.999179
    12128.562800       0.999402
    12143.290800       0.999589
    12158.054700       0.999741
    12172.854500       0.999858
    12187.690400       0.999940
    12202.562500       0.999987
    12217.471000       1.000000
    12232.415900       0.999979
    12247.397400       0.999923
    12262.415700       0.999834
    12277.470800       0.999712
    12292.563000       0.999557
    12307.692300       0.999368
    12322.858900       0.999147
    12338.062900       0.998894
    12353.304500       0.998609
    12368.583800       0.998292
    12383.900900       0.997944
    12399.256000       0.997564
    12414.649300       0.997154
    12430.080800       0.996713
    12445.550700       0.996242
    12461.059200       0.995742
    12476.606400       0.995211
    12492.192400       0.994652
    12507.817400       0.994064
    12523.481500       0.993447
    12539.185000       0.992803
    12554.927800       0.992130
    12570.710200       0.991430
    12586.532400       0.990703
    12602.394500       0.989949
    12618.296500       0.989169
    12634.238800       0.988363
    12650.221400       0.987532
    12666.244500       0.986675
    12682.308200       0.985793
    12698.412700       0.984887
    12714.558200       0.983957
    12730.744700       0.983004
    12746.972600       0.982027
    12763.241900       0.981027
    12779.552700       0.980005
    12795.905300       0.978961
    12812.299800       0.977895
    12828.736400       0.976808
    12845.215200       0.975700
    12861.736300       0.974572
    12878.300100       0.973424
    12894.906500       0.972256
    12911.555800       0.971069
    12928.248200       0.969864
    12944.983800       0.968640
    12961.762800       0.967398
    12978.585300       0.966139
    12995.451600       0.964864
    13012.361700       0.963571
    13029.316000       0.962263
    13046.314400       0.960939
    13063.357300       0.959599
    13080.444700       0.958245
    13097.576900       0.956877
    13114.754100       0.955495
    13131.976400       0.954099
    13149.243900       0.952691
    13166.556900       0.951270
    13183.915600       0.949837
    13201.320100       0.948392
    13218.770700       0.946936
    13236.267400       0.945470
    13253.810500       0.943993
    13271.400100       0.942506
    13289.036500       0.941010
    13306.719900       0.939505
    13324.450400       0.937992
    13342.228200       0.936471
    13360.053400       0.934942
    13377.926400       0.933406
    13395.847300       0.931864
    13413.816200       0.930315
    13431.833400       0.928760
    13449.899100       0.927201
    13468.013500       0.925636
    13486.176700       0.924067
    13504.388900       0.922494
    13522.650400       0.920918
    13540.961400       0.919338
    13559.322000       0.917756
    13577.732500       0.916172
    13596.193100       0.914586
    13614.703900       0.912998
    13633.265200       0.911410
    13651.877100       0.909822
    13670.540000       0.908233
    13689.253900       0.906645
    13708.019200       0.905058
    13726.836000       0.903471
    13745.704500       0.901887
    13764.624900       0.900305
    13783.597500       0.898725
    13802.622500       0.897148
    13821.700100       0.895575
    13840.830400       0.894005
    13860.013900       0.892440
    13879.250500       0.890879
    13898.540700       0.889323
    13917.884500       0.887772
    13937.282200       0.886227
    13956.734100       0.884689
    13976.240400       0.883157
    13995.801300       0.881631
    14015.417000       0.880113
    14035.087700       0.878603
    14054.813800       0.877100
    14074.595400       0.875606
    14094.432700       0.874121
    14114.326000       0.872645
    14134.275600       0.871178
    14154.281700       0.869721
    14174.344400       0.868274
    14194.464200       0.866838
    14214.641100       0.865412
    14234.875400       0.863997
    14255.167500       0.862594
    14275.517500       0.861203
    14295.925700       0.859823
    14316.392300       0.858456
    14336.917600       0.857102
    14357.501800       0.855760
    14378.145200       0.854432
    14398.848100       0.853117
    14419.610700       0.851816
    14440.433200       0.850529
    14461.316000       0.849256
    14482.259200       0.847998
    14503.263200       0.846754
    14524.328200       0.845526
    14545.454500       0.844313
    14566.642400       0.843115
    14587.892000       0.841933
    14609.203800       0.840767
    14630.577900       0.839617
    14652.014700       0.838484
    14673.514300       0.837367
    14695.077100       0.836267
    14716.703500       0.835184
    14738.393500       0.834117
    14760.147600       0.833068
    14781.966000       0.832037
    14803.849000       0.831023
    14825.796900       0.830027
    14847.809900       0.829048
    14869.888500       0.828088
    14892.032800       0.827145
    14914.243100       0.826221
    14936.519800       0.825315
    14958.863100       0.824428
    14981.273400       0.823559
    15003.750900       0.822708
    15026.296000       0.821877
    15048.909000       0.821064
    15071.590100       0.820270
    15094.339600       0.819494
    15117.158000       0.818738
    15140.045400       0.818000
    15163.002300       0.817281
    15186.028900       0.816581
    15209.125500       0.815900
    15232.292500       0.815238
    15255.530100       0.814595
    15278.838800       0.813971
    15302.218800       0.813366
    15325.670500       0.812780
    15349.194200       0.812212
    15372.790200       0.811663
    15396.458800       0.811133
    15420.200500       0.810621
    15444.015400       0.810128
    15467.904100       0.809653
    15491.866800       0.809197
    15515.903800       0.808759
    15540.015500       0.808339
    15564.202300       0.807937
    15588.464500       0.807553
    15612.802500       0.807186
    15637.216600       0.806837
    15661.707100       0.806506
    15686.274500       0.806191
    15710.919100       0.805894
    15735.641200       0.805613
    15760.441300       0.805349
    15785.319700       0.805102
    15810.276700       0.804871
    15835.312700       0.804655
    15860.428200       0.804456
    15885.623500       0.804272
    15910.899000       0.804103
    15936.255000       0.803949
    15961.691900       0.803810
    15987.210200       0.803686
    16012.810200       0.803575
    16038.492400       0.803479
    16064.257000       0.803395
    16090.104600       0.803325
    16116.035500       0.803268
    16142.050000       0.803224
    16168.148700       0.803192
    16194.332000       0.803171
    16220.600200       0.803162
    16246.953700       0.803164
    16273.393000       0.803177
    16299.918500       0.803200
    16326.530600       0.803233
    16353.229800       0.803276
    16380.016400       0.803328
    16406.890900       0.803388
    16433.853700       0.803457
    16460.905300       0.803534
    16488.046200       0.803617
    16515.276600       0.803708
    16542.597200       0.803805
    16570.008300       0.803909
    16597.510400       0.804017
    16625.103900       0.804131
    16652.789300       0.804249
    16680.567100       0.804371
    16708.437800       0.804497
    16736.401700       0.804625
    16764.459300       0.804756
    16792.611300       0.804889
    16820.857900       0.805023
    16849.199700       0.805158
    16877.637100       0.805293
    16906.170800       0.805427
    16934.801000       0.805561
    16963.528400       0.805693
    16992.353400       0.805823
    17021.276600       0.805951
    17050.298400       0.806075
    17079.419300       0.806195
    17108.639900       0.806310
    17137.960600       0.806420
    17167.382000       0.806525
    17196.904600       0.806623
    17226.528900       0.806714
    17256.255400       0.806797
    17286.084700       0.806872
    17316.017300       0.806938
    17346.053800       0.806994
    17376.194600       0.807039
    17406.440400       0.807074
    17436.791600       0.807096
    17467.248900       0.807107
    17497.812800       0.807104
    17528.483800       0.807087
    17559.262500       0.807056
    17590.149500       0.807009
    17621.145400       0.806947
    17652.250700       0.806868
    17683.466000       0.806771
    17714.791900       0.806657
    17746.228900       0.806523
    17777.777800       0.806370
    17809.439000       0.806197
    17841.213200       0.806003
    17873.101000       0.805786
    17905.103000       0.805548
    17937.219700       0.805286
    17969.451900       0.805000
    18001.800200       0.804689
    18034.265100       0.804353
    18066.847300       0.803990
    18099.547500       0.803601
    18132.366300       0.803184
    18165.304300       0.802738
    18198.362100       0.802263
    18231.540600       0.801758
    18264.840200       0.801222
    18298.261700       0.800655
    18331.805700       0.800055
    18365.472900       0.799422
    18399.264000       0.798756
    18433.179700       0.798055
    18467.220700       0.797318
    18501.387600       0.796546
    18535.681200       0.795737
    18570.102100       0.794890
    18604.651200       0.794005
    18639.329000       0.793081
    18674.136300       0.792117
    18709.073900       0.791112
    18744.142500       0.790066
    18779.342700       0.788978
    18814.675400       0.787848
    18850.141400       0.786674
    18885.741300       0.785456
    18921.475900       0.784193
    18957.346000       0.782884
    18993.352300       0.781529
    19029.495700       0.780127
    19065.776900       0.778678
    19102.196800       0.777180
    19138.756000       0.775632
    19175.455400       0.774036
    19212.295900       0.772388
    19249.278200       0.770690
    19286.403100       0.768940
    19323.671500       0.767138
    19361.084200       0.765282
    19398.642100       0.763373
    19436.346000       0.761410
    19474.196700       0.759392
    19512.195100       0.757318
    19550.342100       0.755189
    19588.638600       0.753002
    19627.085400       0.750759
    19665.683400       0.748458
    19704.433500       0.746098
    19743.336600       0.743680
    19782.393700       0.741202
    19821.605600       0.738665
    19860.973200       0.736067
    19900.497500       0.733408
    19940.179500       0.730688
    19980.020000       0.727906
    20020.020000       0.725062
    20060.180500       0.722155
    20100.502500       0.719185
    20140.986900       0.716152
    20181.634700       0.713055
    20222.446900       0.709894
    20263.424500       0.706668
    20304.568500       0.703377
    20345.880000       0.700021
    20387.359800       0.696600
    20429.009200       0.693113
    20470.829100       0.689560
    20512.820500       0.685940
    20554.984600       0.682254
    20597.322300       0.678502
    20639.834900       0.674682
    20682.523300       0.670796
    20725.388600       0.666842
    20768.432000       0.662821
    20811.654500       0.658733
    20855.057400       0.654577
    20898.641600       0.650354
    20942.408400       0.646064
    20986.358900       0.641705
    21030.494200       0.637280
    21074.815600       0.632787
    21119.324200       0.628226
    21164.021200       0.623599
    21208.907700       0.618904
    21253.985100       0.614142
    21299.254500       0.609313
    21344.717200       0.604418
    21390.374300       0.599457
    21436.227200       0.594429
    21482.277100       0.589336
    21528.525300       0.584177
    21574.973000       0.578953
    21621.621600       0.573665
    21668.472400       0.568312
    21715.526600       0.562895
    21762.785600       0.557415
    21810.250800       0.551872
    21857.923500       0.546267
    21905.805000       0.540599
    21953.896800       0.534871
    22002.200200       0.529083
    22050.716600       0.523234
    22099.447500       0.517327
    22148.394200       0.511361
    22197.558300       0.505338
    22246.941000       0.499258
    22296.544000       0.493122
    22346.368700       0.486932
    22396.416600       0.480687
    22446.689100       0.474390
    22497.187900       0.468040
    22547.914300       0.461640
    22598.870100       0.455190
    22650.056600       0.448691
    22701.475600       0.442145
    22753.128600       0.435552
    22805.017100       0.428915
    22857.142900       0.422234
    22909.507400       0.415511
    22962.112500       0.408747
    23014.959700       0.401944
    23068.050700       0.395103
    23121.387300       0.388225
    23174.971000       0.381313
    23228.803700       0.374368
    23282.887100       0.367391
    23337.222900       0.360385
    23391.812900       0.353351
    23446.658900       0.346290
    23501.762600       0.339206
    23557.126000       0.332099
    23612.750900       0.324973
    23668.639100       0.317828
    23724.792400       0.310667
    23781.212800       0.303493
    23837.902300       0.296306
    23894.862600       0.289111
    23952.095800       0.281908
    24009.603800       0.274700
    24067.388700       0.267491
    24125.452400       0.260281
    24183.796900       0.253074
    24242.424200       0.245873
    24301.336600       0.238680
    24360.535900       0.231497
    24420.024400       0.224328
    24479.804200       0.217175
    24539.877300       0.210042
    24600.246000       0.202930
    24660.912500       0.195844
    24721.878900       0.188787
    24783.147500       0.181761
    24844.720500       0.174770
    24906.600200       0.167817
    24968.789000       0.160905
    25031.289100       0.154038
    25094.102900       0.147220
    25157.232700       0.140453
    25220.681000       0.133742
    25284.450100       0.127090
    25348.542500       0.120501
    25412.960600       0.113979
    25477.707000       0.107527
