20,   20, MVIRI VIS channel from srf_MET3_1991123_1991124_1801-Release_S10EE_10.dat
Number of data points:
743
Wavenumber (cm-1)   Filter response
     8814.455700       0.000000
     8822.232000       0.000000
     8830.022100       0.000713
     8837.825900       0.002990
     8845.643500       0.005287
     8853.475000       0.007603
     8861.320300       0.009936
     8869.179600       0.012285
     8877.052800       0.014650
     8884.940000       0.017028
     8892.841300       0.019420
     8900.756600       0.021824
     8908.686000       0.024239
     8916.629500       0.026665
     8924.587200       0.029100
     8932.559200       0.031545
     8940.545400       0.033998
     8948.545900       0.036458
     8956.560700       0.038926
     8964.589900       0.041401
     8972.633500       0.043881
     8980.691500       0.046367
     8988.764000       0.048859
     8996.851100       0.051355
     9004.952700       0.053856
     9013.068900       0.056361
     9021.199800       0.058870
     9029.345400       0.061383
     9037.505600       0.063899
     9045.680700       0.066418
     9053.870500       0.068941
     9062.075200       0.071467
     9070.294800       0.073995
     9078.529300       0.076526
     9086.778700       0.079061
     9095.043200       0.081598
     9103.322700       0.084138
     9111.617300       0.086680
     9119.927000       0.089225
     9128.251900       0.091774
     9136.592100       0.094325
     9144.947400       0.096879
     9153.318100       0.099437
     9161.704100       0.101997
     9170.105500       0.104562
     9178.522300       0.107130
     9186.954500       0.109701
     9195.402300       0.112277
     9203.865600       0.114857
     9212.344500       0.117441
     9220.839100       0.120030
     9229.349300       0.122623
     9237.875300       0.125222
     9246.417000       0.127826
     9254.974500       0.130435
     9263.547900       0.133051
     9272.137200       0.135672
     9280.742500       0.138300
     9289.363700       0.140934
     9298.000900       0.143576
     9306.654300       0.146225
     9315.323700       0.148881
     9324.009300       0.151545
     9332.711200       0.154217
     9341.429200       0.156898
     9350.163600       0.159587
     9358.914400       0.162285
     9367.681500       0.164993
     9376.465100       0.167710
     9385.265100       0.170437
     9394.081700       0.173175
     9402.914900       0.175923
     9411.764700       0.178682
     9420.631200       0.181452
     9429.514400       0.184233
     9438.414300       0.187027
     9447.331100       0.189832
     9456.264800       0.192649
     9465.215300       0.195480
     9474.182900       0.198323
     9483.167400       0.201179
     9492.169000       0.204048
     9501.187600       0.206932
     9510.223500       0.209829
     9519.276500       0.212741
     9528.346800       0.215667
     9537.434400       0.218608
     9546.539400       0.221563
     9555.661700       0.224534
     9564.801500       0.227520
     9573.958800       0.230522
     9583.133700       0.233540
     9592.326100       0.236573
     9601.536200       0.239623
     9610.764100       0.242690
     9620.009600       0.245773
     9629.273000       0.248873
     9638.554200       0.251989
     9647.853400       0.255123
     9657.170400       0.258274
     9666.505600       0.261443
     9675.858700       0.264629
     9685.230000       0.267832
     9694.619500       0.271054
     9704.027200       0.274293
     9713.453100       0.277551
     9722.897400       0.280826
     9732.360100       0.284119
     9741.841200       0.287431
     9751.340800       0.290761
     9760.859000       0.294110
     9770.395700       0.297477
     9779.951100       0.300861
     9789.525200       0.304265
     9799.118100       0.307687
     9808.729800       0.311128
     9818.360300       0.314587
     9828.009800       0.318064
     9837.678300       0.321560
     9847.365800       0.325075
     9857.072400       0.328607
     9866.798200       0.332158
     9876.543200       0.335727
     9886.307500       0.339315
     9896.091000       0.342921
     9905.894000       0.346544
     9915.716400       0.350186
     9925.558300       0.353845
     9935.419800       0.357522
     9945.300800       0.361217
     9955.201600       0.364929
     9965.122100       0.368659
     9975.062300       0.372405
     9985.022500       0.376169
     9995.002500       0.379950
    10005.002500       0.383747
    10015.022500       0.387561
    10025.062700       0.391391
    10035.122900       0.395237
    10045.203400       0.399100
    10055.304200       0.402978
    10065.425300       0.406871
    10075.566800       0.410780
    10085.728700       0.414704
    10095.911200       0.418642
    10106.114200       0.422596
    10116.337900       0.426563
    10126.582300       0.430544
    10136.847400       0.434539
    10147.133400       0.438548
    10157.440300       0.442570
    10167.768200       0.446604
    10178.117000       0.450651
    10188.487000       0.454711
    10198.878100       0.458782
    10209.290500       0.462865
    10219.724100       0.466959
    10230.179000       0.471065
    10240.655400       0.475181
    10251.153300       0.479307
    10261.672700       0.483443
    10272.213700       0.487588
    10282.776300       0.491743
    10293.360800       0.495907
    10303.967000       0.500079
    10314.595200       0.504259
    10325.245200       0.508447
    10335.917300       0.512642
    10346.611500       0.516844
    10357.327800       0.521053
    10368.066400       0.525267
    10378.827200       0.529488
    10389.610400       0.533713
    10400.416000       0.537944
    10411.244100       0.542179
    10422.094800       0.546418
    10432.968200       0.550661
    10443.864200       0.554907
    10454.783100       0.559155
    10465.724800       0.563406
    10476.689400       0.567659
    10487.677000       0.571914
    10498.687700       0.576169
    10509.721500       0.580425
    10520.778500       0.584681
    10531.858900       0.588936
    10542.962600       0.593191
    10554.089700       0.597445
    10565.240400       0.601697
    10576.414600       0.605947
    10587.612500       0.610194
    10598.834100       0.614438
    10610.079600       0.618679
    10621.348900       0.622915
    10632.642200       0.627147
    10643.959600       0.631375
    10655.301000       0.635596
    10666.666700       0.639812
    10678.056600       0.644022
    10689.470900       0.648225
    10700.909600       0.652421
    10712.372800       0.656609
    10723.860600       0.660788
    10735.373100       0.664959
    10746.910300       0.669122
    10758.472300       0.673274
    10770.059200       0.677416
    10781.671200       0.681548
    10793.308100       0.685669
    10804.970300       0.689779
    10816.657700       0.693877
    10828.370300       0.697962
    10840.108400       0.702035
    10851.871900       0.706094
    10863.661100       0.710140
    10875.475800       0.714171
    10887.316300       0.718188
    10899.182600       0.722190
    10911.074700       0.726177
    10922.992900       0.730147
    10934.937100       0.734101
    10946.907500       0.738038
    10958.904100       0.741959
    10970.927000       0.745861
    10982.976400       0.749746
    10995.052200       0.753611
    11007.154700       0.757458
    11019.283700       0.761286
    11031.439600       0.765094
    11043.622300       0.768881
    11055.832000       0.772648
    11068.068600       0.776394
    11080.332400       0.780119
    11092.623400       0.783822
    11104.941700       0.787502
    11117.287400       0.791160
    11129.660500       0.794795
    11142.061300       0.798407
    11154.489700       0.801995
    11166.945800       0.805558
    11179.429800       0.809098
    11191.941800       0.812612
    11204.481800       0.816102
    11217.049900       0.819565
    11229.646300       0.823003
    11242.270900       0.826414
    11254.924000       0.829799
    11267.605600       0.833157
    11280.315800       0.836488
    11293.054800       0.839791
    11305.822500       0.843066
    11318.619100       0.846313
    11331.444800       0.849532
    11344.299500       0.852721
    11357.183400       0.855882
    11370.096600       0.859013
    11383.039300       0.862114
    11396.011400       0.865185
    11409.013100       0.868226
    11422.044500       0.871236
    11435.105800       0.874215
    11448.196900       0.877163
    11461.318100       0.880080
    11474.469300       0.882966
    11487.650800       0.885819
    11500.862600       0.888640
    11514.104800       0.891429
    11527.377500       0.894186
    11540.680900       0.896909
    11554.015000       0.899600
    11567.380000       0.902257
    11580.775900       0.904881
    11594.202900       0.907471
    11607.661100       0.910027
    11621.150500       0.912550
    11634.671300       0.915038
    11648.223600       0.917492
    11661.807600       0.919911
    11675.423200       0.922296
    11689.070700       0.924646
    11702.750100       0.926961
    11716.461600       0.929240
    11730.205300       0.931485
    11743.981200       0.933694
    11757.789500       0.935867
    11771.630400       0.938005
    11785.503800       0.940107
    11799.410000       0.942173
    11813.349100       0.944203
    11827.321100       0.946197
    11841.326200       0.948155
    11855.364600       0.950076
    11869.436200       0.951962
    11883.541300       0.953810
    11897.680000       0.955623
    11911.852300       0.957399
    11926.058400       0.959138
    11940.298500       0.960841
    11954.572600       0.962507
    11968.880900       0.964136
    11983.223500       0.965728
    11997.600500       0.967284
    12012.012000       0.968803
    12026.458200       0.970286
    12040.939200       0.971731
    12055.455100       0.973140
    12070.006000       0.974512
    12084.592100       0.975847
    12099.213600       0.977145
    12113.870400       0.978407
    12128.562800       0.979632
    12143.290800       0.980820
    12158.054700       0.981972
    12172.854500       0.983087
    12187.690400       0.984165
    12202.562500       0.985207
    12217.471000       0.986213
    12232.415900       0.987182
    12247.397400       0.988115
    12262.415700       0.989012
    12277.470800       0.989873
    12292.563000       0.990698
    12307.692300       0.991487
    12322.858900       0.992240
    12338.062900       0.992957
    12353.304500       0.993639
    12368.583800       0.994285
    12383.900900       0.994895
    12399.256000       0.995471
    12414.649300       0.996011
    12430.080800       0.996517
    12445.550700       0.996987
    12461.059200       0.997423
    12476.606400       0.997824
    12492.192400       0.998191
    12507.817400       0.998523
    12523.481500       0.998821
    12539.185000       0.999086
    12554.927800       0.999316
    12570.710200       0.999513
    12586.532400       0.999677
    12602.394500       0.999807
    12618.296500       0.999904
    12634.238800       0.999968
    12650.221400       1.000000
    12666.244500       0.999999
    12682.308200       0.999966
    12698.412700       0.999900
    12714.558200       0.999803
    12730.744700       0.999674
    12746.972600       0.999514
    12763.241900       0.999322
    12779.552700       0.999099
    12795.905300       0.998846
    12812.299800       0.998562
    12828.736400       0.998247
    12845.215200       0.997902
    12861.736300       0.997528
    12878.300100       0.997123
    12894.906500       0.996690
    12911.555800       0.996227
    12928.248200       0.995735
    12944.983800       0.995214
    12961.762800       0.994665
    12978.585300       0.994088
    12995.451600       0.993483
    13012.361700       0.992850
    13029.316000       0.992189
    13046.314400       0.991502
    13063.357300       0.990787
    13080.444700       0.990046
    13097.576900       0.989278
    13114.754100       0.988485
    13131.976400       0.987665
    13149.243900       0.986820
    13166.556900       0.985949
    13183.915600       0.985054
    13201.320100       0.984133
    13218.770700       0.983188
    13236.267400       0.982219
    13253.810500       0.981226
    13271.400100       0.980209
    13289.036500       0.979169
    13306.719900       0.978106
    13324.450400       0.977020
    13342.228200       0.975911
    13360.053400       0.974780
    13377.926400       0.973627
    13395.847300       0.972452
    13413.816200       0.971256
    13431.833400       0.970038
    13449.899100       0.968800
    13468.013500       0.967541
    13486.176700       0.966262
    13504.388900       0.964962
    13522.650400       0.963643
    13540.961400       0.962305
    13559.322000       0.960947
    13577.732500       0.959571
    13596.193100       0.958175
    13614.703900       0.956761
    13633.265200       0.955330
    13651.877100       0.953880
    13670.540000       0.952413
    13689.253900       0.950929
    13708.019200       0.949427
    13726.836000       0.947909
    13745.704500       0.946375
    13764.624900       0.944824
    13783.597500       0.943258
    13802.622500       0.941676
    13821.700100       0.940078
    13840.830400       0.938465
    13860.013900       0.936838
    13879.250500       0.935196
    13898.540700       0.933540
    13917.884500       0.931870
    13937.282200       0.930186
    13956.734100       0.928488
    13976.240400       0.926777
    13995.801300       0.925053
    14015.417000       0.923317
    14035.087700       0.921568
    14054.813800       0.919806
    14074.595400       0.918033
    14094.432700       0.916248
    14114.326000       0.914452
    14134.275600       0.912644
    14154.281700       0.910825
    14174.344400       0.908995
    14194.464200       0.907155
    14214.641100       0.905304
    14234.875400       0.903443
    14255.167500       0.901572
    14275.517500       0.899692
    14295.925700       0.897802
    14316.392300       0.895903
    14336.917600       0.893995
    14357.501800       0.892078
    14378.145200       0.890153
    14398.848100       0.888219
    14419.610700       0.886277
    14440.433200       0.884327
    14461.316000       0.882369
    14482.259200       0.880403
    14503.263200       0.878430
    14524.328200       0.876450
    14545.454500       0.874463
    14566.642400       0.872469
    14587.892000       0.870468
    14609.203800       0.868461
    14630.577900       0.866447
    14652.014700       0.864427
    14673.514300       0.862401
    14695.077100       0.860370
    14716.703500       0.858332
    14738.393500       0.856289
    14760.147600       0.854241
    14781.966000       0.852188
    14803.849000       0.850129
    14825.796900       0.848065
    14847.809900       0.845997
    14869.888500       0.843924
    14892.032800       0.841846
    14914.243100       0.839764
    14936.519800       0.837678
    14958.863100       0.835588
    14981.273400       0.833493
    15003.750900       0.831394
    15026.296000       0.829292
    15048.909000       0.827186
    15071.590100       0.825076
    15094.339600       0.822963
    15117.158000       0.820846
    15140.045400       0.818726
    15163.002300       0.816603
    15186.028900       0.814477
    15209.125500       0.812347
    15232.292500       0.810215
    15255.530100       0.808079
    15278.838800       0.805941
    15302.218800       0.803800
    15325.670500       0.801656
    15349.194200       0.799509
    15372.790200       0.797360
    15396.458800       0.795208
    15420.200500       0.793054
    15444.015400       0.790897
    15467.904100       0.788738
    15491.866800       0.786576
    15515.903800       0.784412
    15540.015500       0.782246
    15564.202300       0.780077
    15588.464500       0.777907
    15612.802500       0.775734
    15637.216600       0.773558
    15661.707100       0.771381
    15686.274500       0.769201
    15710.919100       0.767019
    15735.641200       0.764835
    15760.441300       0.762649
    15785.319700       0.760460
    15810.276700       0.758269
    15835.312700       0.756077
    15860.428200       0.753882
    15885.623500       0.751684
    15910.899000       0.749485
    15936.255000       0.747283
    15961.691900       0.745079
    15987.210200       0.742873
    16012.810200       0.740664
    16038.492400       0.738453
    16064.257000       0.736240
    16090.104600       0.734024
    16116.035500       0.731806
    16142.050000       0.729585
    16168.148700       0.727362
    16194.332000       0.725136
    16220.600200       0.722908
    16246.953700       0.720677
    16273.393000       0.718443
    16299.918500       0.716206
    16326.530600       0.713967
    16353.229800       0.711725
    16380.016400       0.709479
    16406.890900       0.707231
    16433.853700       0.704980
    16460.905300       0.702725
    16488.046200       0.700468
    16515.276600       0.698207
    16542.597200       0.695942
    16570.008300       0.693675
    16597.510400       0.691403
    16625.103900       0.689129
    16652.789300       0.686850
    16680.567100       0.684568
    16708.437800       0.682282
    16736.401700       0.679992
    16764.459300       0.677698
    16792.611300       0.675400
    16820.857900       0.673098
    16849.199700       0.670792
    16877.637100       0.668482
    16906.170800       0.666167
    16934.801000       0.663847
    16963.528400       0.661523
    16992.353400       0.659195
    17021.276600       0.656861
    17050.298400       0.654523
    17079.419300       0.652180
    17108.639900       0.649832
    17137.960600       0.647478
    17167.382000       0.645120
    17196.904600       0.642756
    17226.528900       0.640387
    17256.255400       0.638012
    17286.084700       0.635632
    17316.017300       0.633246
    17346.053800       0.630854
    17376.194600       0.628457
    17406.440400       0.626054
    17436.791600       0.623644
    17467.248900       0.621229
    17497.812800       0.618807
    17528.483800       0.616379
    17559.262500       0.613945
    17590.149500       0.611504
    17621.145400       0.609056
    17652.250700       0.606602
    17683.466000       0.604142
    17714.791900       0.601674
    17746.228900       0.599200
    17777.777800       0.596719
    17809.439000       0.594231
    17841.213200       0.591735
    17873.101000       0.589233
    17905.103000       0.586723
    17937.219700       0.584206
    17969.451900       0.581681
    18001.800200       0.579149
    18034.265100       0.576610
    18066.847300       0.574063
    18099.547500       0.571509
    18132.366300       0.568946
    18165.304300       0.566376
    18198.362100       0.563798
    18231.540600       0.561213
    18264.840200       0.558619
    18298.261700       0.556018
    18331.805700       0.553408
    18365.472900       0.550791
    18399.264000       0.548165
    18433.179700       0.545531
    18467.220700       0.542889
    18501.387600       0.540239
    18535.681200       0.537581
    18570.102100       0.534915
    18604.651200       0.532240
    18639.329000       0.529557
    18674.136300       0.526866
    18709.073900       0.524167
    18744.142500       0.521459
    18779.342700       0.518744
    18814.675400       0.516019
    18850.141400       0.513287
    18885.741300       0.510546
    18921.475900       0.507797
    18957.346000       0.505040
    18993.352300       0.502275
    19029.495700       0.499501
    19065.776900       0.496719
    19102.196800       0.493929
    19138.756000       0.491131
    19175.455400       0.488325
    19212.295900       0.485511
    19249.278200       0.482689
    19286.403100       0.479859
    19323.671500       0.477021
    19361.084200       0.474176
    19398.642100       0.471322
    19436.346000       0.468461
    19474.196700       0.465593
    19512.195100       0.462717
    19550.342100       0.459833
    19588.638600       0.456942
    19627.085400       0.454044
    19665.683400       0.451139
    19704.433500       0.448226
    19743.336600       0.445307
    19782.393700       0.442381
    19821.605600       0.439448
    19860.973200       0.436508
    19900.497500       0.433562
    19940.179500       0.430610
    19980.020000       0.427651
    20020.020000       0.424687
    20060.180500       0.421716
    20100.502500       0.418739
    20140.986900       0.415757
    20181.634700       0.412770
    20222.446900       0.409777
    20263.424500       0.406779
    20304.568500       0.403775
    20345.880000       0.400767
    20387.359800       0.397755
    20429.009200       0.394738
    20470.829100       0.391716
    20512.820500       0.388691
    20554.984600       0.385662
    20597.322300       0.382629
    20639.834900       0.379592
    20682.523300       0.376552
    20725.388600       0.373510
    20768.432000       0.370464
    20811.654500       0.367416
    20855.057400       0.364365
    20898.641600       0.361312
    20942.408400       0.358257
    20986.358900       0.355201
    21030.494200       0.352143
    21074.815600       0.349084
    21119.324200       0.346024
    21164.021200       0.342963
    21208.907700       0.339902
    21253.985100       0.336841
    21299.254500       0.333780
    21344.717200       0.330719
    21390.374300       0.327659
    21436.227200       0.324600
    21482.277100       0.321542
    21528.525300       0.318485
    21574.973000       0.315431
    21621.621600       0.312378
    21668.472400       0.309328
    21715.526600       0.306280
    21762.785600       0.303235
    21810.250800       0.300194
    21857.923500       0.297156
    21905.805000       0.294122
    21953.896800       0.291092
    22002.200200       0.288067
    22050.716600       0.285047
    22099.447500       0.282031
    22148.394200       0.279021
    22197.558300       0.276017
    22246.941000       0.273019
    22296.544000       0.270027
    22346.368700       0.267042
    22396.416600       0.264064
    22446.689100       0.261093
    22497.187900       0.258130
    22547.914300       0.255175
    22598.870100       0.252228
    22650.056600       0.249290
    22701.475600       0.246361
    22753.128600       0.243441
    22805.017100       0.240531
    22857.142900       0.237630
    22909.507400       0.234740
    22962.112500       0.231861
    23014.959700       0.228992
    23068.050700       0.226135
    23121.387300       0.223289
    23174.971000       0.220455
    23228.803700       0.217633
    23282.887100       0.214824
    23337.222900       0.212028
    23391.812900       0.209244
    23446.658900       0.206474
    23501.762600       0.203718
    23557.126000       0.200975
    23612.750900       0.198247
    23668.639100       0.195534
    23724.792400       0.192835
    23781.212800       0.190152
    23837.902300       0.187483
    23894.862600       0.184831
    23952.095800       0.182194
    24009.603800       0.179574
    24067.388700       0.176970
    24125.452400       0.174383
    24183.796900       0.171813
    24242.424200       0.169260
    24301.336600       0.166724
    24360.535900       0.164206
    24420.024400       0.161706
    24479.804200       0.159224
    24539.877300       0.156760
    24600.246000       0.154315
    24660.912500       0.151888
    24721.878900       0.149480
    24783.147500       0.147091
    24844.720500       0.144721
    24906.600200       0.142370
    24968.789000       0.140039
    25031.289100       0.137727
    25094.102900       0.135435
    25157.232700       0.133163
    25220.681000       0.130910
    25284.450100       0.128677
    25348.542500       0.126464
    25412.960600       0.124271
    25477.707000       0.122098
