           8  , Jan 12th 2012 http://fy3.satellite.cma.gov.cn/ArssEn/Download/FY3A_calibration_info_params.rar
Number of data points:
1308
Wavenumber (cm-1)   Filter response
      722.543300       0.000045
      722.647800       0.000157
      722.752200       0.000315
      722.856800       0.000485
      722.961200       0.000663
      723.065800       0.000811
      723.170300       0.000943
      723.275000       0.001030
      723.379600       0.001100
      723.484300       0.001145
      723.589000       0.001183
      723.693700       0.001225
      723.798500       0.001266
      723.903300       0.001316
      724.008100       0.001365
      724.112900       0.001406
      724.217900       0.001446
      724.322800       0.001476
      724.427700       0.001503
      724.532700       0.001521
      724.637700       0.001535
      724.742700       0.001539
      724.847800       0.001535
      724.952900       0.001522
      725.058000       0.001506
      725.163100       0.001488
      725.268400       0.001490
      725.373500       0.001503
      725.478800       0.001554
      725.584100       0.001617
      725.689400       0.001693
      725.794700       0.001772
      725.900100       0.001807
      726.005500       0.001836
      726.111000       0.001786
      726.216400       0.001725
      726.321900       0.001597
      726.427400       0.001463
      726.533000       0.001306
      726.638500       0.001154
      726.744200       0.001011
      726.849800       0.000890
      726.955500       0.000791
      727.061200       0.000731
      727.167000       0.000701
      727.272700       0.000724
      727.378500       0.000773
      727.484300       0.000881
      727.590200       0.001004
      727.696100       0.001164
      727.802100       0.001327
      727.908000       0.001486
      728.014000       0.001637
      728.120000       0.001747
      728.226000       0.001839
      728.332200       0.001880
      728.438200       0.001894
      728.544400       0.001859
      728.650500       0.001793
      728.756700       0.001692
      728.863000       0.001574
      728.969200       0.001443
      729.075600       0.001331
      729.181900       0.001226
      729.288200       0.001175
      729.394600       0.001135
      729.501000       0.001153
      729.607500       0.001177
      729.713900       0.001219
      729.820500       0.001255
      729.927000       0.001267
      730.033600       0.001276
      730.140200       0.001244
      730.246800       0.001200
      730.353500       0.001140
      730.460200       0.001080
      730.567000       0.001019
      730.673700       0.000966
      730.780500       0.000916
      730.887300       0.000874
      730.994100       0.000834
      731.101000       0.000804
      731.207900       0.000776
      731.314900       0.000770
      731.421900       0.000772
      731.528900       0.000805
      731.635900       0.000854
      731.743000       0.000937
      731.850200       0.001033
      731.957300       0.001146
      732.064500       0.001258
      732.171600       0.001371
      732.278900       0.001461
      732.386100       0.001544
      732.493400       0.001597
      732.600800       0.001646
      732.708100       0.001672
      732.815500       0.001697
      732.922900       0.001722
      733.030300       0.001752
      733.137800       0.001792
      733.245400       0.001839
      733.352900       0.001896
      733.460400       0.001963
      733.568100       0.002036
      733.675700       0.002112
      733.783400       0.002189
      733.891100       0.002236
      733.998800       0.002278
      734.106600       0.002258
      734.214400       0.002228
      734.322200       0.002139
      734.430100       0.002044
      734.538000       0.001927
      734.645900       0.001820
      734.753900       0.001727
      734.861900       0.001666
      734.969800       0.001628
      735.077900       0.001630
      735.186000       0.001646
      735.294100       0.001691
      735.402300       0.001738
      735.510400       0.001787
      735.618700       0.001832
      735.726900       0.001851
      735.835100       0.001856
      735.943500       0.001827
      736.051800       0.001774
      736.160200       0.001693
      736.268600       0.001591
      736.377000       0.001476
      736.485500       0.001361
      736.594000       0.001248
      736.702500       0.001170
      736.811100       0.001101
      736.919700       0.001094
      737.028300       0.001107
      737.137000       0.001175
      737.245700       0.001266
      737.354400       0.001391
      737.463100       0.001526
      737.572000       0.001668
      737.680700       0.001788
      737.789600       0.001902
      737.898400       0.001956
      738.007400       0.002000
      738.116300       0.001986
      738.225300       0.001963
      738.334400       0.001912
      738.443400       0.001863
      738.552400       0.001820
      738.661600       0.001798
      738.770700       0.001800
      738.879800       0.001834
      738.989100       0.001880
      739.098300       0.001946
      739.207600       0.002013
      739.316900       0.002057
      739.426200       0.002086
      739.535600       0.002068
      739.645000       0.002019
      739.754400       0.001920
      739.863900       0.001801
      739.973400       0.001666
      740.082900       0.001557
      740.192400       0.001456
      740.302000       0.001453
      740.411700       0.001469
      740.521400       0.001587
      740.631000       0.001720
      740.740700       0.001894
      740.850500       0.001978
      740.960300       0.002128
      741.070100       0.002224
      741.180000       0.002291
      741.289900       0.002300
      741.399800       0.002295
      741.509700       0.002269
      741.619700       0.002245
      741.729700       0.002234
      741.839800       0.002233
      741.949900       0.002249
      742.060000       0.002265
      742.170100       0.002290
      742.280300       0.002323
      742.390500       0.002359
      742.500700       0.002404
      742.611000       0.002449
      742.721400       0.002493
      742.831700       0.002526
      742.942100       0.002534
      743.052400       0.002517
      743.162900       0.002447
      743.273400       0.002326
      743.383900       0.002178
      743.494400       0.002003
      743.605000       0.001826
      743.715600       0.001714
      743.826200       0.001636
      743.936900       0.001670
      744.047700       0.001767
      744.158400       0.001960
      744.269200       0.002190
      744.379900       0.002449
      744.490800       0.002691
      744.601600       0.002928
      744.712500       0.003079
      744.823500       0.003211
      744.934400       0.003267
      745.045500       0.003300
      745.156500       0.003298
      745.267500       0.003307
      745.378700       0.003289
      745.489800       0.003272
      745.601000       0.003256
      745.712200       0.003237
      745.823400       0.003214
      745.934600       0.003177
      746.046000       0.003130
      746.157300       0.003070
      746.268700       0.003008
      746.380100       0.002963
      746.491500       0.002910
      746.603000       0.002861
      746.714400       0.002847
      746.826000       0.002842
      746.937600       0.002869
      747.049200       0.002907
      747.160800       0.002959
      747.272500       0.003014
      747.384200       0.003071
      747.495800       0.003132
      747.607600       0.003166
      747.719500       0.003166
      747.831300       0.003154
      747.943200       0.003111
      748.055100       0.003052
      748.167000       0.002975
      748.278900       0.002888
      748.390900       0.002798
      748.503000       0.002717
      748.615100       0.002659
      748.727200       0.002610
      748.839300       0.002575
      748.951500       0.002568
      749.063700       0.002585
      749.175900       0.002619
      749.288200       0.002665
      749.400500       0.002715
      749.512800       0.002761
      749.625200       0.002801
      749.737500       0.002840
      749.850000       0.002855
      749.962500       0.002861
      750.075000       0.002869
      750.187600       0.002878
      750.300100       0.002914
      750.412700       0.002959
      750.525300       0.003049
      750.638100       0.003156
      750.750800       0.003299
      750.863500       0.003481
      750.976300       0.003660
      751.089100       0.003855
      751.201900       0.004055
      751.314800       0.004248
      751.427700       0.004431
      751.540600       0.004587
      751.653600       0.004711
      751.766700       0.004798
      751.879700       0.004833
      751.992700       0.004517
      752.105900       0.004523
      752.219100       0.004526
      752.332200       0.004536
      752.445400       0.004568
      752.558700       0.004633
      752.672000       0.004747
      752.785300       0.004890
      752.898700       0.005089
      753.012100       0.005300
      753.125500       0.005516
      753.239000       0.005675
      753.352400       0.005811
      753.465900       0.005906
      753.579500       0.005972
      753.693100       0.005963
      753.806800       0.005933
      753.920400       0.005829
      754.034100       0.005710
      754.147800       0.005558
      754.261500       0.005447
      754.375400       0.005290
      754.489300       0.005150
      754.603100       0.005015
      754.717000       0.004900
      754.830900       0.004797
      754.944900       0.004723
      755.058900       0.004703
      755.173000       0.004732
      755.287000       0.004878
      755.401100       0.005101
      755.515300       0.005410
      755.629500       0.005720
      755.743700       0.006027
      755.857900       0.006260
      755.972200       0.006422
      756.086500       0.006435
      756.200900       0.006402
      756.315200       0.006253
      756.429600       0.006114
      756.544100       0.006052
      756.658600       0.006027
      756.773100       0.006083
      756.887700       0.006268
      757.002300       0.006494
      757.116900       0.006783
      757.231600       0.007058
      757.346300       0.007296
      757.461000       0.007489
      757.575700       0.007644
      757.690600       0.007833
      757.805400       0.007951
      757.920200       0.008078
      758.035200       0.008208
      758.150100       0.008341
      758.265100       0.008447
      758.380100       0.008532
      758.495100       0.008555
      758.610200       0.008560
      758.725300       0.008505
      758.840500       0.008516
      758.955700       0.008430
      759.070900       0.008344
      759.186200       0.008256
      759.301500       0.008184
      759.416700       0.008121
      759.532100       0.008103
      759.647500       0.008125
      759.763000       0.008205
      759.878400       0.008370
      759.993900       0.008658
      760.109400       0.008957
      760.225000       0.009267
      760.340600       0.009592
      760.456300       0.009884
      760.572000       0.010141
      760.687700       0.010300
      760.803400       0.010423
      760.919200       0.010414
      761.035000       0.010382
      761.150900       0.010405
      761.266800       0.010323
      761.382700       0.010244
      761.498700       0.010231
      761.614600       0.010241
      761.730700       0.010332
      761.846700       0.010450
      761.962800       0.010608
      762.079000       0.010781
      762.195100       0.010961
      762.311300       0.011240
      762.427600       0.011389
      762.543800       0.011506
      762.660200       0.011607
      762.776600       0.011693
      762.892900       0.011779
      763.009300       0.011869
      763.125700       0.011986
      763.242200       0.012118
      763.358800       0.012276
      763.475300       0.013629
      763.592000       0.013715
      763.708600       0.013803
      763.825300       0.013883
      763.942000       0.013938
      764.058700       0.013970
      764.175400       0.013981
      764.292300       0.013964
      764.409100       0.013936
      764.526000       0.013884
      764.642900       0.013839
      764.759800       0.013959
      764.876800       0.014086
      764.993900       0.014215
      765.111000       0.014366
      765.228000       0.014527
      765.345200       0.014719
      765.462300       0.014938
      765.579500       0.015181
      765.696800       0.015447
      765.814100       0.015519
      765.931400       0.015783
      766.048700       0.016029
      766.166100       0.016247
      766.283500       0.016421
      766.400900       0.016578
      766.518500       0.016702
      766.636000       0.016831
      766.753600       0.016971
      766.871200       0.017151
      766.988800       0.017132
      767.106400       0.017415
      767.224200       0.017721
      767.342000       0.018078
      767.459700       0.018447
      767.577500       0.018829
      767.695400       0.019209
      767.813200       0.019606
      767.931200       0.019973
      768.049100       0.020323
      768.167200       0.020380
      768.285200       0.020680
      768.403300       0.020973
      768.521400       0.021254
      768.639500       0.021544
      768.757700       0.021848
      768.875900       0.022185
      768.994200       0.022540
      769.112400       0.022958
      769.230800       0.023396
      769.349100       0.023564
      769.467500       0.024047
      769.585900       0.024537
      769.704500       0.025012
      769.822900       0.025482
      769.941500       0.025932
      770.060100       0.026386
      770.178600       0.026844
      770.297300       0.027337
      770.416100       0.027842
      770.534800       0.028004
      770.653500       0.028529
      770.772300       0.029058
      770.891100       0.029585
      771.010000       0.030118
      771.128900       0.030705
      771.247900       0.031342
      771.366900       0.032053
      771.485900       0.032875
      771.604900       0.033758
      771.724000       0.034275
      771.843100       0.035225
      771.962300       0.036158
      772.081500       0.037005
      772.200800       0.037816
      772.320100       0.038480
      772.439300       0.039116
      772.558700       0.039687
      772.678100       0.040248
      772.797500       0.040805
      772.917000       0.040855
      773.036500       0.041458
      773.156000       0.042098
      773.275600       0.042774
      773.395200       0.043473
      773.514800       0.044239
      773.634600       0.045035
      773.754300       0.045894
      773.874000       0.046783
      773.993800       0.047691
      774.113600       0.047962
      774.233500       0.048876
      774.353500       0.049798
      774.473400       0.050778
      774.593300       0.051798
      774.713400       0.052971
      774.833400       0.054202
      774.953500       0.055551
      775.073600       0.056957
      775.193800       0.058402
      775.314000       0.053316
      775.434300       0.055338
      775.554500       0.057346
      775.674800       0.059371
      775.795200       0.061420
      775.915600       0.063472
      776.036000       0.065541
      776.156500       0.067604
      776.277000       0.069663
      776.397500       0.071733
      776.518100       0.073808
      776.638700       0.074831
      776.759400       0.075872
      776.880100       0.076952
      777.000800       0.078050
      777.121500       0.079201
      777.242300       0.080367
      777.363200       0.081561
      777.484000       0.082791
      777.605000       0.084038
      777.726000       0.086675
      777.846900       0.088067
      777.968000       0.089539
      778.089000       0.091117
      778.210100       0.092743
      778.331300       0.094492
      778.452500       0.096281
      778.573700       0.098126
      778.694900       0.100002
      778.816200       0.101888
      778.937500       0.105448
      779.058900       0.107370
      779.180300       0.109285
      779.301800       0.111172
      779.423200       0.113035
      779.544700       0.114875
      779.666300       0.116706
      779.787900       0.118530
      779.909500       0.120391
      780.031300       0.122277
      780.152900       0.126291
      780.274700       0.128369
      780.396400       0.130506
      780.518200       0.132813
      780.640100       0.135176
      780.762000       0.137647
      780.884000       0.140158
      781.005900       0.142685
      781.127900       0.145170
      781.250000       0.147609
      781.372100       0.152490
      781.494300       0.154864
      781.616400       0.157240
      781.738600       0.159720
      781.860800       0.162350
      781.983100       0.165128
      782.105400       0.168216
      782.227800       0.171406
      782.350200       0.174788
      782.472700       0.178207
      782.595100       0.184660
      782.717600       0.188114
      782.840100       0.191535
      782.962700       0.194900
      783.085300       0.198255
      783.208100       0.201645
      783.330700       0.205099
      783.453500       0.208595
      783.576200       0.212143
      783.699000       0.215794
      783.821900       0.223025
      783.944800       0.226875
      784.067700       0.230787
      784.190700       0.234749
      784.313700       0.238853
      784.436800       0.243023
      784.559800       0.247331
      784.683000       0.251785
      784.806200       0.256315
      784.929400       0.260991
      785.052600       0.269880
      785.175900       0.274684
      785.299200       0.279442
      785.422500       0.284172
      785.546000       0.288838
      785.669400       0.293500
      785.792800       0.298155
      785.916400       0.302888
      786.039900       0.307670
      786.163500       0.312554
      786.287100       0.322522
      786.410800       0.327697
      786.534500       0.333090
      786.658300       0.338591
      786.782000       0.344209
      786.905900       0.350000
      787.029700       0.355923
      787.153600       0.362002
      787.277600       0.368113
      787.401600       0.374242
      787.525600       0.376639
      787.649700       0.383983
      787.773700       0.391384
      787.897900       0.398859
      788.022100       0.406381
      788.146300       0.413946
      788.270600       0.421516
      788.394800       0.429100
      788.519200       0.436622
      788.643500       0.444146
      788.767900       0.451818
      788.892400       0.458612
      789.016900       0.465445
      789.141400       0.472423
      789.266000       0.479538
      789.390600       0.486779
      789.515200       0.494243
      789.640000       0.501761
      789.764600       0.509340
      789.889400       0.516819
      790.014200       0.525250
      790.139000       0.532398
      790.263900       0.539386
      790.388900       0.546221
      790.513900       0.552889
      790.638900       0.559548
      790.763900       0.566214
      790.889000       0.573248
      791.014000       0.580531
      791.139200       0.587898
      791.264500       0.596400
      791.389700       0.603816
      791.515000       0.611230
      791.640300       0.618662
      791.765600       0.626099
      791.891000       0.633535
      792.016400       0.640982
      792.142000       0.648425
      792.267500       0.655849
      792.393000       0.663262
      792.518600       0.671827
      792.644200       0.679134
      792.769900       0.686368
      792.895600       0.693469
      793.021400       0.700495
      793.147200       0.707321
      793.273100       0.713939
      793.398900       0.720408
      793.524800       0.726453
      793.650800       0.732345
      793.776800       0.739685
      793.902800       0.745093
      794.028900       0.750416
      794.155000       0.755605
      794.281200       0.760697
      794.407300       0.765738
      794.533600       0.770740
      794.659900       0.775806
      794.786200       0.780649
      794.912500       0.785753
      795.038900       0.793252
      795.165400       0.798699
      795.291900       0.804227
      795.418400       0.809758
      795.545000       0.815117
      795.671600       0.820196
      795.798200       0.825061
      795.924900       0.829313
      796.051600       0.833318
      796.178300       0.836966
      796.305200       0.843280
      796.432000       0.846337
      796.558900       0.849243
      796.685800       0.852207
      796.812700       0.855232
      796.939800       0.858511
      797.066800       0.861908
      797.193900       0.865410
      797.321000       0.868896
      797.448200       0.872302
      797.575400       0.879089
      797.702600       0.882057
      797.829900       0.884886
      797.957300       0.887470
      798.084600       0.889871
      798.212000       0.892170
      798.339500       0.894317
      798.466900       0.896460
      798.594500       0.898510
      798.722000       0.900600
      798.849700       0.906452
      798.977300       0.908729
      799.105000       0.911031
      799.232700       0.913315
      799.360500       0.915519
      799.488300       0.917574
      799.616200       0.919540
      799.744100       0.921343
      799.872000       0.923071
      800.000000       0.924735
      800.128000       0.967814
      800.256000       0.964694
      800.384200       0.961525
      800.512300       0.958384
      800.640500       0.955272
      800.768700       0.952230
      800.897000       0.949279
      801.025300       0.946348
      801.153600       0.943429
      801.282100       0.940465
      801.410500       0.938446
      801.538900       0.941195
      801.667500       0.943938
      801.796000       0.946676
      801.924600       0.949304
      802.053200       0.951812
      802.181900       0.954145
      802.310700       0.956102
      802.439500       0.958168
      802.568200       0.960356
      802.697000       0.956743
      802.825900       0.958817
      802.954800       0.960961
      803.083900       0.963321
      803.212900       0.965833
      803.341900       0.968647
      803.471000       0.971549
      803.600100       0.974527
      803.729300       0.977440
      803.858500       0.980255
      803.987800       0.976721
      804.117100       0.979169
      804.246400       0.981477
      804.375800       0.983577
      804.505200       0.985443
      804.634600       0.987219
      804.764200       0.988895
      804.893700       0.990615
      805.023400       0.992375
      805.153000       0.994267
      805.282700       0.989881
      805.412400       0.991780
      805.542200       0.993486
      805.671900       0.994998
      805.801800       0.996344
      805.931600       0.997389
      806.061600       0.998374
      806.191500       0.999297
      806.321500       0.999798
      806.451700       1.000000
      806.581700       0.994155
      806.711900       0.994027
      806.842000       0.993726
      806.972200       0.993143
      807.102500       0.992153
      807.232800       0.990895
      807.363200       0.989195
      807.493500       0.987165
      807.624000       0.984960
      807.754500       0.982601
      807.884900       0.975042
      808.015500       0.972821
      808.146100       0.970857
      808.276800       0.968949
      808.407500       0.967063
      808.538100       0.964943
      808.668900       0.962496
      808.799700       0.959755
      808.930500       0.956217
      809.061500       0.952326
      809.192400       0.943268
      809.323400       0.938456
      809.454400       0.933513
      809.585400       0.928431
      809.716600       0.923302
      809.847800       0.918137
      809.978900       0.912932
      810.110200       0.907422
      810.241500       0.900816
      810.372700       0.893900
      810.504100       0.882416
      810.635500       0.875140
      810.767000       0.867829
      810.898500       0.860714
      811.030000       0.853721
      811.161600       0.846954
      811.293200       0.840193
      811.424900       0.833379
      811.556600       0.826348
      811.688400       0.819060
      811.820100       0.807687
      811.951900       0.800033
      812.083800       0.792300
      812.215700       0.784506
      812.347700       0.776652
      812.479700       0.768710
      812.611800       0.760680
      812.743800       0.752385
      812.876000       0.743855
      813.008100       0.735121
      813.140300       0.718062
      813.272600       0.709433
      813.404900       0.700647
      813.537300       0.691723
      813.669700       0.682813
      813.802100       0.673925
      813.934600       0.665234
      814.067100       0.656622
      814.199600       0.648111
      814.332300       0.639744
      814.464900       0.632033
      814.597600       0.622565
      814.730300       0.612899
      814.863100       0.603171
      814.995900       0.593378
      815.128800       0.583693
      815.261700       0.574158
      815.394700       0.564787
      815.527600       0.555787
      815.660600       0.546929
      815.793800       0.539627
      815.926900       0.531055
      816.060100       0.522513
      816.193300       0.514002
      816.326500       0.505499
      816.459800       0.497000
      816.593100       0.488499
      816.726500       0.479997
      816.860000       0.471512
      816.993500       0.463048
      817.127000       0.455761
      817.260600       0.447492
      817.394100       0.439306
      817.527800       0.431306
      817.661500       0.423377
      817.795200       0.415519
      817.929000       0.408534
      818.062800       0.401724
      818.196700       0.394967
      818.330600       0.388343
      818.464500       0.382511
      818.598600       0.376061
      818.732600       0.369805
      818.866700       0.363661
      819.000800       0.357637
      819.135000       0.351778
      819.269200       0.345942
      819.403400       0.340124
      819.537800       0.334271
      819.672100       0.328402
      819.806500       0.322912
      819.941000       0.317179
      820.075400       0.311592
      820.210000       0.306144
      820.344500       0.301040
      820.479200       0.296110
      820.613800       0.291316
      820.748500       0.286701
      820.883200       0.282151
      821.018100       0.277641
      821.152900       0.273388
      821.287800       0.268921
      821.422700       0.264454
      821.557700       0.259981
      821.692700       0.255472
      821.827800       0.250752
      821.962800       0.246076
      822.098000       0.241467
      822.233200       0.236923
      822.368400       0.232510
      822.503700       0.228364
      822.639000       0.224071
      822.774400       0.219815
      822.909800       0.215536
      823.045300       0.211247
      823.180800       0.206957
      823.316300       0.202834
      823.451900       0.198869
      823.587500       0.195112
      823.723200       0.191740
      823.859000       0.188850
      823.994800       0.185822
      824.130600       0.182999
      824.266400       0.180203
      824.402300       0.177430
      824.538300       0.174592
      824.674300       0.171692
      824.810300       0.168734
      824.946400       0.165695
      825.082500       0.162666
      825.218700       0.160113
      825.354900       0.157225
      825.491100       0.154480
      825.627400       0.151291
      825.763900       0.148037
      825.900300       0.144822
      826.036700       0.141618
      826.173200       0.138388
      826.309700       0.135132
      826.446200       0.131917
      826.582900       0.126268
      826.719600       0.123759
      826.856300       0.121393
      826.993000       0.119193
      827.129800       0.117151
      827.266700       0.115110
      827.403600       0.113058
      827.540600       0.110884
      827.677600       0.108648
      827.814600       0.106365
      827.951700       0.104457
      828.088700       0.101911
      828.225900       0.099444
      828.363200       0.097082
      828.500400       0.094755
      828.637800       0.092445
      828.775100       0.090131
      828.912500       0.087828
      829.049900       0.085581
      829.187400       0.083417
      829.325000       0.081972
      829.462500       0.080067
      829.600200       0.078259
      829.737800       0.076514
      829.875500       0.074824
      830.013200       0.073192
      830.151100       0.071685
      830.288900       0.070256
      830.426900       0.068880
      830.564800       0.067533
      830.702800       0.066574
      830.840800       0.065200
      830.978900       0.063849
      831.117100       0.062646
      831.255200       0.061574
      831.393400       0.060655
      831.531700       0.059904
      831.670000       0.059169
      831.808300       0.058432
      831.946700       0.057548
      832.085200       0.056825
      832.223700       0.055740
      832.362200       0.054553
      832.500900       0.053324
      832.639500       0.052074
      832.778100       0.050806
      832.916900       0.049512
      833.055700       0.048206
      833.194500       0.046888
      833.333300       0.045829
      833.472200       0.045135
      833.611200       0.044392
      833.750200       0.043870
      833.889300       0.043449
      834.028400       0.043087
      834.167500       0.042730
      834.306700       0.042316
      834.445900       0.041865
      834.585200       0.041377
      834.724500       0.040909
      834.864000       0.040580
      835.003400       0.040164
      835.142800       0.039707
      835.282300       0.039178
      835.421900       0.038571
      835.561500       0.037816
      835.701200       0.037017
      835.840900       0.036238
      835.980600       0.035545
      836.120400       0.035095
      836.260300       0.034897
      836.400100       0.034763
      836.540000       0.034703
      836.680100       0.034533
      836.820100       0.034229
      836.960100       0.033622
      837.100300       0.032834
      837.240400       0.031951
      837.380700       0.031048
      837.521000       0.030301
      837.661300       0.029770
      837.801600       0.029276
      837.942000       0.028948
      838.082500       0.028676
      838.223000       0.028458
      838.363500       0.028306
      838.504200       0.028218
      838.644800       0.028167
      838.785500       0.028146
      838.926100       0.028119
      839.067000       0.028169
      839.207800       0.028098
      839.348700       0.027991
      839.489600       0.027841
      839.630600       0.027643
      839.771600       0.027362
      839.912700       0.026997
      840.053800       0.026587
      840.194900       0.026137
      840.336200       0.025673
      840.477400       0.025497
      840.618700       0.025003
      840.760100       0.024509
      840.901400       0.024049
      841.042800       0.023621
      841.184400       0.023262
      841.325900       0.023055
      841.467500       0.022926
      841.609100       0.022863
      841.750900       0.022791
      841.892600       0.022625
      842.034300       0.022376
      842.176200       0.021967
      842.318100       0.021428
      842.460000       0.020841
      842.601900       0.020226
      842.744000       0.019685
      842.886000       0.019226
      843.028100       0.018854
      843.170300       0.018615
      843.312600       0.018470
      843.454800       0.018414
      843.597100       0.018422
      843.739400       0.018465
      843.881800       0.018482
      844.024400       0.018459
      844.166800       0.018327
      844.309400       0.018113
      844.452000       0.017856
      844.594600       0.017572
      844.737200       0.017266
      844.880000       0.016985
      845.022800       0.016710
      845.165600       0.016442
      845.308500       0.016220
      845.451500       0.016062
      845.594400       0.015994
      845.737500       0.016101
      845.880600       0.016268
      846.023700       0.016464
      846.166900       0.016587
      846.310100       0.016548
      846.453400       0.016367
      846.596700       0.016033
      846.740000       0.015535
      846.883500       0.015034
      847.027000       0.014555
      847.170500       0.014178
      847.314000       0.013934
      847.457600       0.013757
      847.601300       0.013621
      847.745100       0.013490
      847.888800       0.013324
      848.032600       0.013136
      848.176500       0.012954
      848.320300       0.012878
      848.464200       0.012902
      848.608300       0.013032
      848.752400       0.013247
      848.896500       0.013412
      849.040600       0.013500
      849.184800       0.013478
      849.329000       0.013322
      849.473300       0.013134
      849.617600       0.012937
      849.762100       0.012799
      849.906600       0.012759
      850.051000       0.012793
      850.195600       0.012898
      850.340100       0.013051
      850.484700       0.013160
      850.629500       0.013222
      850.774200       0.013137
      850.919000       0.012871
      851.063800       0.012489
      851.208700       0.012010
      851.353600       0.011528
      851.498600       0.011131
      851.643700       0.010822
      851.788800       0.010620
      851.933900       0.010467
      852.079000       0.010307
      852.224300       0.010108
      852.369600       0.009840
      852.515000       0.009565
      852.660300       0.009353
      852.805700       0.009242
      852.951200       0.009370
      853.096700       0.009631
      853.242300       0.009967
      853.387900       0.010303
      853.533600       0.010512
      853.679400       0.010594
      853.825100       0.010559
      853.970900       0.010422
      854.116800       0.010325
      854.262800       0.010317
      854.408700       0.010424
      854.554800       0.010701
      854.700900       0.010991
      854.847000       0.011244
      854.993200       0.011376
      855.139300       0.011235
      855.285600       0.010941
      855.432000       0.010531
      855.578400       0.010059
      855.724800       0.009623
      855.871300       0.009225
      856.017800       0.008857
      856.164400       0.008468
      856.311000       0.008014
      856.457700       0.007526
      856.604400       0.007037
      856.751200       0.006694
      856.898000       0.006552
      857.044900       0.006610
      857.191800       0.006892
      857.338900       0.007351
      857.485900       0.007821
      857.632900       0.008258
      857.780100       0.008580
      857.927200       0.008700
      858.074500       0.008678
      858.221700       0.008523
      858.369100       0.008218
      858.516500       0.007805
      858.663900       0.007343
      858.811400       0.006859
      858.958900       0.006448
      859.106500       0.006184
      859.254200       0.006063
      859.401900       0.006087
      859.549600       0.006255
      859.697400       0.006418
      859.845200       0.006527
      859.993100       0.006520
      860.141100       0.006276
      860.289100       0.005887
      860.437100       0.005391
      860.585200       0.004838
      860.733300       0.004402
      860.881500       0.004140
      861.029800       0.004067
      861.178000       0.004237
      861.326500       0.004539
      861.474900       0.004837
      861.623300       0.005081
      861.771800       0.005175
      861.920300       0.005169
      862.068900       0.005153
      862.217700       0.005165
      862.366300       0.005336
      862.515100       0.005624
      862.663900       0.005932
      862.812700       0.006201
      862.961700       0.006269
      863.110600       0.006160
      863.259700       0.005954
      863.408800       0.005698
      863.557900       0.005515
      863.707000       0.005404
      863.856300       0.005348
      864.005500       0.005327
      864.154900       0.005325
      864.304300       0.005369
      864.453700       0.005482
      864.603100       0.005684
      864.752700       0.005966
      864.902200       0.006240
      865.051900       0.006487
      865.201600       0.006695
      865.351400       0.006816
      865.501200       0.006860
      865.650900       0.006807
      865.800800       0.006637
      865.950800       0.006243
      866.100800       0.005749
      866.250900       0.005203
      866.401000       0.004654
      866.551100       0.004305
      866.701400       0.004161
      866.851600       0.004207
      867.001900       0.004449
      867.152300       0.004883
      867.302700       0.005333
      867.453200       0.005751
      867.603700       0.006093
      867.754200       0.006224
      867.904800       0.006181
      868.055500       0.005986
      868.206300       0.005673
      868.357100       0.005321
      868.507900       0.005123
      868.658800       0.005107
      868.809700       0.005292
      868.960700       0.005639
      869.111800       0.005865
      869.262900       0.005872
      869.414000       0.005597
      869.565200       0.004969
      869.716500       0.003957
      869.867700       0.003405
      870.019100       0.003000
      870.170600       0.002884
      870.322000       0.002980
      870.473600       0.003172
      870.625100       0.003411
      870.776700       0.003633
      870.928400       0.003823
      871.080200       0.003996
      871.231900       0.004152
      871.383800       0.004228
      871.535600       0.004190
      871.687600       0.004053
      871.839500       0.003843
      871.991600       0.003606
      872.143700       0.003495
      872.295900       0.003515
      872.448100       0.003645
      872.600300       0.003858
      872.752600       0.003996
      872.905000       0.003891
      873.057400       0.003599
      873.210000       0.003149
      873.362500       0.002679
      873.515000       0.002387
      873.667700       0.002294
      873.820300       0.002405
      873.973000       0.002684
      874.125900       0.002977
      874.278700       0.003261
      874.431600       0.003468
      874.584600       0.003632
      874.737500       0.003752
      874.890600       0.003802
      875.043700       0.003759
      875.197000       0.003596
      875.350200       0.003323
      875.503400       0.003046
      875.656700       0.002814
      875.810100       0.002691
      875.963600       0.002681
      876.117100       0.002737
      876.270600       0.002834
      876.424200       0.002961
      876.577800       0.003116
      876.731500       0.003331
      876.885300       0.003619
      877.039100       0.003967
      877.193000       0.004341
      877.346900       0.004663
      877.500900       0.004787
      877.654900       0.004737
      877.809000       0.004508
      877.963100       0.004100
      878.117400       0.003672
      878.271600       0.003287
      878.425900       0.002990
      878.580200       0.002832
      878.734600       0.002818
      878.889000       0.002919
      879.043600       0.003044
      879.198200       0.003175
      879.352800       0.003244
      879.507500       0.003233
      879.662200       0.003130
      879.817000       0.002928
      879.971800       0.002622
      880.126700       0.002264
      880.281700       0.001899
      880.436700       0.001578
      880.591700       0.001319
      880.746900       0.001246
      880.902000       0.001333
      881.057300       0.001572
      881.212600       0.001946
      881.367900       0.002420
      881.523300       0.002856
      881.678700       0.003201
      881.834200       0.003428
      881.989700       0.003549
      882.145300       0.003566
      882.301100       0.003614
      882.456800       0.003724
      882.612500       0.003914
      882.768400       0.004155
      882.924300       0.004336
      883.080100       0.004390
      883.236200       0.004280
      883.392300       0.003972
      883.548300       0.003505
      883.704500       0.002939
      883.860700       0.002379
      884.017000       0.001882
      884.173300       0.001537
      884.329700       0.001380
      884.486100       0.001387
      884.642600       0.001525
      884.799100       0.001742
      884.955700       0.001899
      885.112400       0.001902
      885.269200       0.001814
      885.425900       0.001653
      885.582700       0.001503
      885.739600       0.001475
      885.896500       0.001525
      886.053500       0.001603
      886.210500       0.001648
      886.367700       0.001569
      886.524800       0.001412
      886.682100       0.001246
      886.839300       0.001115
      886.996600       0.001062
      887.154000       0.001119
      887.311400       0.001242
      887.469000       0.001404
      887.626500       0.001590
      887.784100       0.001803
      887.941800       0.002054
      888.099400       0.002330
      888.257200       0.002612
      888.415100       0.002863
      888.573000       0.002985
      888.730900       0.002904
      888.888900       0.002640
      889.046900       0.002224
      889.205000       0.001703
      889.363200       0.001225
      889.521500       0.000900
      889.679700       0.000760
      889.838100       0.000795
      889.996500       0.000953
      890.154800       0.001055
      890.313400       0.000979
      890.472000       0.000735
      890.630600       0.000374
      890.789200       0.000032
