14, GOES 11.2um ABI FM2 SRF CWG processed March 10, 2016
Number of data points:
1329
Wavenumber (cm-1)   Filter response
      827.200000       0.001054
      827.300000       0.001113
      827.400000       0.001171
      827.500000       0.001230
      827.600000       0.001287
      827.700000       0.001347
      827.800000       0.001404
      827.900000       0.001459
      828.000000       0.001510
      828.100000       0.001514
      828.200000       0.001516
      828.300000       0.001517
      828.400000       0.001511
      828.500000       0.001513
      828.600000       0.001514
      828.700000       0.001509
      828.800000       0.001510
      828.900000       0.001511
      829.000000       0.001517
      829.100000       0.001600
      829.200000       0.001695
      829.300000       0.001794
      829.400000       0.001887
      829.500000       0.001980
      829.600000       0.002073
      829.700000       0.002170
      829.800000       0.002268
      829.900000       0.002363
      830.000000       0.002452
      830.100000       0.002438
      830.200000       0.002414
      830.300000       0.002396
      830.400000       0.002372
      830.500000       0.002347
      830.600000       0.002329
      830.700000       0.002304
      830.800000       0.002283
      830.900000       0.002261
      831.000000       0.002226
      831.100000       0.002115
      831.200000       0.001993
      831.300000       0.001872
      831.400000       0.001750
      831.500000       0.001628
      831.600000       0.001505
      831.700000       0.001383
      831.800000       0.001253
      831.900000       0.001125
      832.000000       0.001025
      832.100000       0.001162
      832.200000       0.001319
      832.300000       0.001477
      832.400000       0.001631
      832.500000       0.001786
      832.600000       0.001934
      832.700000       0.002083
      832.800000       0.002224
      832.900000       0.002367
      833.000000       0.002497
      833.100000       0.002541
      833.200000       0.002567
      833.300000       0.002598
      833.400000       0.002629
      833.500000       0.002655
      833.600000       0.002683
      833.700000       0.002715
      833.800000       0.002745
      833.900000       0.002772
      834.000000       0.002790
      834.100000       0.002736
      834.200000       0.002665
      834.300000       0.002594
      834.400000       0.002522
      834.500000       0.002451
      834.600000       0.002379
      834.700000       0.002302
      834.800000       0.002227
      834.900000       0.002144
      835.000000       0.002066
      835.100000       0.002171
      835.200000       0.002281
      835.300000       0.002390
      835.400000       0.002500
      835.500000       0.002602
      835.600000       0.002713
      835.700000       0.002815
      835.800000       0.002918
      835.900000       0.003022
      836.000000       0.003116
      836.100000       0.003161
      836.200000       0.003188
      836.300000       0.003224
      836.400000       0.003259
      836.500000       0.003292
      836.600000       0.003323
      836.700000       0.003539
      836.800000       0.004332
      836.900000       0.004405
      837.000000       0.004474
      837.100000       0.004550
      837.200000       0.004619
      837.300000       0.004694
      837.400000       0.004761
      837.500000       0.004762
      837.600000       0.004750
      837.700000       0.004733
      837.800000       0.004718
      837.900000       0.004709
      838.000000       0.004695
      838.100000       0.004678
      838.200000       0.004663
      838.300000       0.004650
      838.400000       0.004627
      838.500000       0.004599
      838.600000       0.004568
      838.700000       0.004540
      838.800000       0.004509
      838.900000       0.004483
      839.000000       0.004455
      839.100000       0.004428
      839.200000       0.004402
      839.300000       0.004245
      839.400000       0.004001
      839.500000       0.003762
      839.600000       0.003526
      839.700000       0.003283
      839.800000       0.003041
      839.900000       0.002798
      840.000000       0.002557
      840.100000       0.002315
      840.200000       0.002240
      840.300000       0.002358
      840.400000       0.002465
      840.500000       0.002580
      840.600000       0.002693
      840.700000       0.002802
      840.800000       0.002914
      840.900000       0.003029
      841.000000       0.003137
      841.100000       0.003332
      841.200000       0.003658
      841.300000       0.003989
      841.400000       0.004321
      841.500000       0.004654
      841.600000       0.004988
      841.700000       0.005323
      841.800000       0.005658
      841.900000       0.005995
      842.000000       0.006260
      842.100000       0.006356
      842.200000       0.006430
      842.300000       0.006512
      842.400000       0.006588
      842.500000       0.006662
      842.600000       0.006741
      842.700000       0.006819
      842.800000       0.006892
      842.900000       0.006989
      843.000000       0.007259
      843.100000       0.007535
      843.200000       0.007807
      843.300000       0.008080
      843.400000       0.008345
      843.500000       0.008588
      843.600000       0.008861
      843.700000       0.009131
      843.800000       0.009455
      843.900000       0.009779
      844.000000       0.010181
      844.100000       0.010495
      844.200000       0.010891
      844.300000       0.011233
      844.400000       0.011569
      844.500000       0.011963
      844.600000       0.012280
      844.700000       0.012694
      844.800000       0.013106
      844.900000       0.013530
      845.000000       0.014011
      845.100000       0.014434
      845.200000       0.014849
      845.300000       0.015347
      845.400000       0.015770
      845.500000       0.016225
      845.600000       0.016704
      845.700000       0.017089
      845.800000       0.017466
      845.900000       0.017791
      846.000000       0.018160
      846.100000       0.018516
      846.200000       0.018869
      846.300000       0.019243
      846.400000       0.019567
      846.500000       0.019861
      846.600000       0.020157
      846.700000       0.020635
      846.800000       0.021208
      846.900000       0.021772
      847.000000       0.022338
      847.100000       0.022905
      847.200000       0.023472
      847.300000       0.024040
      847.400000       0.024609
      847.500000       0.025178
      847.600000       0.025747
      847.700000       0.026320
      847.800000       0.026893
      847.900000       0.027466
      848.000000       0.028039
      848.100000       0.028613
      848.200000       0.029188
      848.300000       0.029765
      848.400000       0.030342
      848.500000       0.030919
      848.600000       0.031498
      848.700000       0.032077
      848.800000       0.032650
      848.900000       0.033297
      849.000000       0.033904
      849.100000       0.034484
      849.200000       0.035066
      849.300000       0.035657
      849.400000       0.036319
      849.500000       0.036997
      849.600000       0.037676
      849.700000       0.038356
      849.800000       0.039038
      849.900000       0.039720
      850.000000       0.040424
      850.100000       0.041250
      850.200000       0.042113
      850.300000       0.042976
      850.400000       0.043840
      850.500000       0.044718
      850.600000       0.045816
      850.700000       0.046979
      850.800000       0.048148
      850.900000       0.049310
      851.000000       0.050481
      851.100000       0.051649
      851.200000       0.052783
      851.300000       0.053931
      851.400000       0.055096
      851.500000       0.056289
      851.600000       0.057547
      851.700000       0.059233
      851.800000       0.061062
      851.900000       0.062852
      852.000000       0.064642
      852.100000       0.066463
      852.200000       0.068235
      852.300000       0.070075
      852.400000       0.071849
      852.500000       0.073638
      852.600000       0.075445
      852.700000       0.077407
      852.800000       0.079492
      852.900000       0.081647
      853.000000       0.083792
      853.100000       0.085897
      853.200000       0.088006
      853.300000       0.090221
      853.400000       0.092441
      853.500000       0.094160
      853.600000       0.096688
      853.700000       0.098943
      853.800000       0.100688
      853.900000       0.103178
      854.000000       0.105649
      854.100000       0.108120
      854.200000       0.110591
      854.300000       0.113063
      854.400000       0.115534
      854.500000       0.118004
      854.600000       0.120474
      854.700000       0.122945
      854.800000       0.125493
      854.900000       0.128664
      855.000000       0.131596
      855.100000       0.135276
      855.200000       0.138187
      855.300000       0.141804
      855.400000       0.145539
      855.500000       0.148343
      855.600000       0.152055
      855.700000       0.155164
      855.800000       0.158558
      855.900000       0.162256
      856.000000       0.166600
      856.100000       0.170773
      856.200000       0.175280
      856.300000       0.179731
      856.400000       0.184037
      856.500000       0.188549
      856.600000       0.192470
      856.700000       0.196879
      856.800000       0.201263
      856.900000       0.206163
      857.000000       0.211208
      857.100000       0.216255
      857.200000       0.221316
      857.300000       0.226904
      857.400000       0.232363
      857.500000       0.237406
      857.600000       0.243012
      857.700000       0.248441
      857.800000       0.253463
      857.900000       0.258253
      858.000000       0.263643
      858.100000       0.269328
      858.200000       0.274470
      858.300000       0.280200
      858.400000       0.285543
      858.500000       0.290951
      858.600000       0.296725
      858.700000       0.301716
      858.800000       0.307514
      858.900000       0.312724
      859.000000       0.318161
      859.100000       0.324005
      859.200000       0.329828
      859.300000       0.335653
      859.400000       0.341474
      859.500000       0.348125
      859.600000       0.354104
      859.700000       0.359941
      859.800000       0.366347
      859.900000       0.372594
      860.000000       0.378429
      860.100000       0.384242
      860.200000       0.390670
      860.300000       0.396933
      860.400000       0.403464
      860.500000       0.409798
      860.600000       0.416391
      860.700000       0.422840
      860.800000       0.429040
      860.900000       0.435679
      861.000000       0.442113
      861.100000       0.448196
      861.200000       0.454525
      861.300000       0.460801
      861.400000       0.466822
      861.500000       0.473277
      861.600000       0.479365
      861.700000       0.485882
      861.800000       0.491926
      861.900000       0.498248
      862.000000       0.504625
      862.100000       0.510700
      862.200000       0.516490
      862.300000       0.523107
      862.400000       0.529087
      862.500000       0.535402
      862.600000       0.541654
      862.700000       0.547838
      862.800000       0.553489
      862.900000       0.559161
      863.000000       0.564820
      863.100000       0.570471
      863.200000       0.576119
      863.300000       0.582299
      863.400000       0.588287
      863.500000       0.593917
      863.600000       0.599543
      863.700000       0.605159
      863.800000       0.610771
      863.900000       0.616430
      864.000000       0.621401
      864.100000       0.626579
      864.200000       0.631545
      864.300000       0.636933
      864.400000       0.641708
      864.500000       0.647022
      864.600000       0.652052
      864.700000       0.656831
      864.800000       0.660742
      864.900000       0.665187
      865.000000       0.669730
      865.100000       0.674152
      865.200000       0.678816
      865.300000       0.682638
      865.400000       0.686038
      865.500000       0.690073
      865.600000       0.694142
      865.700000       0.698245
      865.800000       0.702183
      865.900000       0.705454
      866.000000       0.709492
      866.100000       0.713574
      866.200000       0.717666
      866.300000       0.721646
      866.400000       0.724973
      866.500000       0.728986
      866.600000       0.733016
      866.700000       0.736292
      866.800000       0.739418
      866.900000       0.742544
      867.000000       0.745670
      867.100000       0.748786
      867.200000       0.751836
      867.300000       0.754853
      867.400000       0.757878
      867.500000       0.760853
      867.600000       0.763848
      867.700000       0.766866
      867.800000       0.769895
      867.900000       0.772673
      868.000000       0.774867
      868.100000       0.777518
      868.200000       0.779880
      868.300000       0.782382
      868.400000       0.784197
      868.500000       0.786677
      868.600000       0.788998
      868.700000       0.791472
      868.800000       0.793650
      868.900000       0.795570
      869.000000       0.798123
      869.100000       0.800212
      869.200000       0.802074
      869.300000       0.803967
      869.400000       0.805697
      869.500000       0.806754
      869.600000       0.808791
      869.700000       0.810426
      869.800000       0.811752
      869.900000       0.813435
      870.000000       0.814858
      870.100000       0.816875
      870.200000       0.818444
      870.300000       0.820052
      870.400000       0.822149
      870.500000       0.823555
      870.600000       0.824588
      870.700000       0.825639
      870.800000       0.826687
      870.900000       0.827733
      871.000000       0.828778
      871.100000       0.829806
      871.200000       0.830786
      871.300000       0.831845
      871.400000       0.832893
      871.500000       0.834262
      871.600000       0.835947
      871.700000       0.837028
      871.800000       0.837627
      871.900000       0.838099
      872.000000       0.839012
      872.100000       0.840057
      872.200000       0.840338
      872.300000       0.840918
      872.400000       0.841815
      872.500000       0.842742
      872.600000       0.842725
      872.700000       0.843404
      872.800000       0.844227
      872.900000       0.845053
      873.000000       0.845242
      873.100000       0.846715
      873.200000       0.848024
      873.300000       0.848701
      873.400000       0.849971
      873.500000       0.850910
      873.600000       0.852127
      873.700000       0.853054
      873.800000       0.854237
      873.900000       0.855359
      874.000000       0.856510
      874.100000       0.857683
      874.200000       0.858668
      874.300000       0.859991
      874.400000       0.861010
      874.500000       0.861633
      874.600000       0.862321
      874.700000       0.863671
      874.800000       0.864554
      874.900000       0.865230
      875.000000       0.866640
      875.100000       0.867439
      875.200000       0.868059
      875.300000       0.869595
      875.400000       0.870318
      875.500000       0.871246
      875.600000       0.872737
      875.700000       0.873421
      875.800000       0.874150
      875.900000       0.874894
      876.000000       0.876058
      876.100000       0.877387
      876.200000       0.878168
      876.300000       0.878935
      876.400000       0.879665
      876.500000       0.881088
      876.600000       0.882205
      876.700000       0.882925
      876.800000       0.883654
      876.900000       0.884420
      877.000000       0.885837
      877.100000       0.886770
      877.200000       0.887436
      877.300000       0.888086
      877.400000       0.888745
      877.500000       0.889471
      877.600000       0.891017
      877.700000       0.891751
      877.800000       0.892411
      877.900000       0.893074
      878.000000       0.893715
      878.100000       0.894747
      878.200000       0.896081
      878.300000       0.896636
      878.400000       0.897780
      878.500000       0.899011
      878.600000       0.899688
      878.700000       0.900874
      878.800000       0.901997
      878.900000       0.902725
      879.000000       0.904081
      879.100000       0.905224
      879.200000       0.906683
      879.300000       0.907757
      879.400000       0.908478
      879.500000       0.910027
      879.600000       0.910899
      879.700000       0.911671
      879.800000       0.913168
      879.900000       0.913947
      880.000000       0.914616
      880.100000       0.915448
      880.200000       0.917094
      880.300000       0.917804
      880.400000       0.918732
      880.500000       0.920191
      880.600000       0.920958
      880.700000       0.921659
      880.800000       0.922705
      880.900000       0.924146
      881.000000       0.924877
      881.100000       0.925993
      881.200000       0.927412
      881.300000       0.928247
      881.400000       0.929071
      881.500000       0.930476
      881.600000       0.931945
      881.700000       0.932913
      881.800000       0.933924
      881.900000       0.935674
      882.000000       0.937280
      882.100000       0.938482
      882.200000       0.939651
      882.300000       0.940888
      882.400000       0.942831
      882.500000       0.944503
      882.600000       0.945736
      882.700000       0.946993
      882.800000       0.948269
      882.900000       0.949563
      883.000000       0.950750
      883.100000       0.952014
      883.200000       0.953386
      883.300000       0.955440
      883.400000       0.956672
      883.500000       0.957752
      883.600000       0.958778
      883.700000       0.959768
      883.800000       0.960710
      883.900000       0.961549
      884.000000       0.962453
      884.100000       0.963322
      884.200000       0.964173
      884.300000       0.965005
      884.400000       0.965821
      884.500000       0.966627
      884.600000       0.967428
      884.700000       0.968225
      884.800000       0.969019
      884.900000       0.969727
      885.000000       0.970226
      885.100000       0.970721
      885.200000       0.971212
      885.300000       0.971701
      885.400000       0.972188
      885.500000       0.972678
      885.600000       0.973055
      885.700000       0.973554
      885.800000       0.974061
      885.900000       0.974601
      886.000000       0.975167
      886.100000       0.975771
      886.200000       0.976417
      886.300000       0.977099
      886.400000       0.977803
      886.500000       0.978522
      886.600000       0.979261
      886.700000       0.980037
      886.800000       0.980837
      886.900000       0.981641
      887.000000       0.982438
      887.100000       0.983204
      887.200000       0.983972
      887.300000       0.985531
      887.400000       0.986304
      887.500000       0.986892
      887.600000       0.987455
      887.700000       0.987984
      887.800000       0.988474
      887.900000       0.988924
      888.000000       0.989327
      888.100000       0.989674
      888.200000       0.990876
      888.300000       0.991311
      888.400000       0.991545
      888.500000       0.991772
      888.600000       0.991997
      888.700000       0.992220
      888.800000       0.992453
      888.900000       0.992572
      889.000000       0.992882
      889.100000       0.992935
      889.200000       0.992333
      889.300000       0.992564
      889.400000       0.992815
      889.500000       0.993075
      889.600000       0.993337
      889.700000       0.993604
      889.800000       0.993871
      889.900000       0.994136
      890.000000       0.994398
      890.100000       0.994659
      890.200000       0.994919
      890.300000       0.995181
      890.400000       0.995453
      890.500000       0.995736
      890.600000       0.996039
      890.700000       0.996348
      890.800000       0.996664
      890.900000       0.996982
      891.000000       0.997312
      891.100000       0.997662
      891.200000       0.997690
      891.300000       0.997192
      891.400000       0.997541
      891.500000       0.997876
      891.600000       0.997969
      891.700000       0.998315
      891.800000       0.998636
      891.900000       0.998956
      892.000000       0.999285
      892.100000       0.999162
      892.200000       0.998856
      892.300000       0.999114
      892.400000       0.999428
      892.500000       0.999768
      892.600000       0.999570
      892.700000       0.999237
      892.800000       0.999555
      892.900000       0.999914
      893.000000       0.999686
      893.100000       0.999434
      893.200000       0.999805
      893.300000       0.999629
      893.400000       0.999406
      893.500000       0.999696
      893.600000       0.999596
      893.700000       0.999272
      893.800000       0.999041
      893.900000       0.998798
      894.000000       0.999157
      894.100000       0.998874
      894.200000       0.998620
      894.300000       0.998395
      894.400000       0.998055
      894.500000       0.997867
      894.600000       0.997650
      894.700000       0.997363
      894.800000       0.996976
      894.900000       0.996708
      895.000000       0.996359
      895.100000       0.996023
      895.200000       0.995596
      895.300000       0.995819
      895.400000       0.996019
      895.500000       0.996222
      895.600000       0.996432
      895.700000       0.996108
      895.800000       0.995800
      895.900000       0.995996
      896.000000       0.996235
      896.100000       0.996509
      896.200000       0.996164
      896.300000       0.995865
      896.400000       0.996008
      896.500000       0.996286
      896.600000       0.995937
      896.700000       0.995603
      896.800000       0.995811
      896.900000       0.996016
      897.000000       0.995634
      897.100000       0.995217
      897.200000       0.995373
      897.300000       0.995098
      897.400000       0.994649
      897.500000       0.994769
      897.600000       0.994917
      897.700000       0.994662
      897.800000       0.994166
      897.900000       0.993798
      898.000000       0.993286
      898.100000       0.993457
      898.200000       0.993139
      898.300000       0.992631
      898.400000       0.992629
      898.500000       0.992433
      898.600000       0.991801
      898.700000       0.991874
      898.800000       0.991631
      898.900000       0.990940
      899.000000       0.991059
      899.100000       0.990754
      899.200000       0.990013
      899.300000       0.989825
      899.400000       0.989004
      899.500000       0.988635
      899.600000       0.987959
      899.700000       0.987827
      899.800000       0.987043
      899.900000       0.986720
      900.000000       0.986032
      900.100000       0.985921
      900.200000       0.985099
      900.300000       0.984820
      900.400000       0.984074
      900.500000       0.984094
      900.600000       0.984144
      900.700000       0.984189
      900.800000       0.984234
      900.900000       0.984143
      901.000000       0.983230
      901.100000       0.983176
      901.200000       0.983175
      901.300000       0.983170
      901.400000       0.983165
      901.500000       0.982916
      901.600000       0.982103
      901.700000       0.981961
      901.800000       0.981947
      901.900000       0.981021
      902.000000       0.980642
      902.100000       0.979777
      902.200000       0.979668
      902.300000       0.978734
      902.400000       0.978393
      902.500000       0.977618
      902.600000       0.977426
      902.700000       0.977366
      902.800000       0.976524
      902.900000       0.976017
      903.000000       0.975020
      903.100000       0.974813
      903.200000       0.973958
      903.300000       0.973547
      903.400000       0.973478
      903.500000       0.972544
      903.600000       0.972101
      903.700000       0.971332
      903.800000       0.970836
      903.900000       0.969973
      904.000000       0.969505
      904.100000       0.969377
      904.200000       0.968615
      904.300000       0.968097
      904.400000       0.967282
      904.500000       0.966101
      904.600000       0.965449
      904.700000       0.964821
      904.800000       0.964182
      904.900000       0.963572
      905.000000       0.962782
      905.100000       0.962202
      905.200000       0.961467
      905.300000       0.960792
      905.400000       0.959589
      905.500000       0.958739
      905.600000       0.958266
      905.700000       0.957565
      905.800000       0.957170
      905.900000       0.956189
      906.000000       0.955844
      906.100000       0.954984
      906.200000       0.954556
      906.300000       0.953389
      906.400000       0.952407
      906.500000       0.951936
      906.600000       0.951006
      906.700000       0.950784
      906.800000       0.949706
      906.900000       0.949281
      907.000000       0.948286
      907.100000       0.946998
      907.200000       0.946815
      907.300000       0.945852
      907.400000       0.945329
      907.500000       0.944434
      907.600000       0.943145
      907.700000       0.942746
      907.800000       0.941866
      907.900000       0.940523
      908.000000       0.940135
      908.100000       0.939271
      908.200000       0.938697
      908.300000       0.938023
      908.400000       0.936748
      908.500000       0.936368
      908.600000       0.935760
      908.700000       0.934625
      908.800000       0.934068
      908.900000       0.933555
      909.000000       0.932975
      909.100000       0.932563
      909.200000       0.931416
      909.300000       0.930767
      909.400000       0.930352
      909.500000       0.929302
      909.600000       0.928532
      909.700000       0.928339
      909.800000       0.927281
      909.900000       0.926641
      910.000000       0.925478
      910.100000       0.925102
      910.200000       0.923940
      910.300000       0.923259
      910.400000       0.922079
      910.500000       0.921660
      910.600000       0.920431
      910.700000       0.919722
      910.800000       0.918616
      910.900000       0.917111
      911.000000       0.916599
      911.100000       0.915506
      911.200000       0.914074
      911.300000       0.913432
      911.400000       0.912412
      911.500000       0.911013
      911.600000       0.909612
      911.700000       0.908774
      911.800000       0.907930
      911.900000       0.906466
      912.000000       0.905489
      912.100000       0.904820
      912.200000       0.903317
      912.300000       0.901890
      912.400000       0.900462
      912.500000       0.899011
      912.600000       0.897533
      912.700000       0.896038
      912.800000       0.894537
      912.900000       0.893034
      913.000000       0.891520
      913.100000       0.890002
      913.200000       0.888487
      913.300000       0.886977
      913.400000       0.885460
      913.500000       0.883940
      913.600000       0.882341
      913.700000       0.880132
      913.800000       0.878290
      913.900000       0.876832
      914.000000       0.875376
      914.100000       0.873946
      914.200000       0.872570
      914.300000       0.870530
      914.400000       0.868652
      914.500000       0.867251
      914.600000       0.865876
      914.700000       0.864562
      914.800000       0.862823
      914.900000       0.860910
      915.000000       0.859333
      915.100000       0.857232
      915.200000       0.855819
      915.300000       0.853949
      915.400000       0.852517
      915.500000       0.850493
      915.600000       0.849414
      915.700000       0.848183
      915.800000       0.846378
      915.900000       0.845126
      916.000000       0.843231
      916.100000       0.841107
      916.200000       0.839385
      916.300000       0.836677
      916.400000       0.833892
      916.500000       0.831067
      916.600000       0.829077
      916.700000       0.826535
      916.800000       0.823634
      916.900000       0.820715
      917.000000       0.817767
      917.100000       0.814803
      917.200000       0.811595
      917.300000       0.807679
      917.400000       0.804412
      917.500000       0.800593
      917.600000       0.797478
      917.700000       0.794298
      917.800000       0.790187
      917.900000       0.786585
      918.000000       0.782736
      918.100000       0.778290
      918.200000       0.774902
      918.300000       0.770428
      918.400000       0.766563
      918.500000       0.762356
      918.600000       0.758681
      918.700000       0.754448
      918.800000       0.749912
      918.900000       0.745403
      919.000000       0.741048
      919.100000       0.736680
      919.200000       0.733311
      919.300000       0.729161
      919.400000       0.724856
      919.500000       0.720564
      919.600000       0.716276
      919.700000       0.712020
      919.800000       0.707040
      919.900000       0.702327
      920.000000       0.698143
      920.100000       0.693129
      920.200000       0.688477
      920.300000       0.684251
      920.400000       0.679516
      920.500000       0.674651
      920.600000       0.670068
      920.700000       0.665238
      920.800000       0.660010
      920.900000       0.654357
      921.000000       0.649011
      921.100000       0.644157
      921.200000       0.638697
      921.300000       0.633760
      921.400000       0.628201
      921.500000       0.622626
      921.600000       0.617963
      921.700000       0.612312
      921.800000       0.606673
      921.900000       0.600719
      922.000000       0.594245
      922.100000       0.588599
      922.200000       0.582949
      922.300000       0.577300
      922.400000       0.571650
      922.500000       0.566000
      922.600000       0.560355
      922.700000       0.554689
      922.800000       0.548360
      922.900000       0.542368
      923.000000       0.536828
      923.100000       0.530217
      923.200000       0.524310
      923.300000       0.518677
      923.400000       0.512915
      923.500000       0.506534
      923.600000       0.500636
      923.700000       0.495277
      923.800000       0.490066
      923.900000       0.484162
      924.000000       0.478715
      924.100000       0.473603
      924.200000       0.468513
      924.300000       0.462638
      924.400000       0.457148
      924.500000       0.452081
      924.600000       0.447047
      924.700000       0.441361
      924.800000       0.435764
      924.900000       0.430658
      925.000000       0.425574
      925.100000       0.420551
      925.200000       0.414952
      925.300000       0.409211
      925.400000       0.404072
      925.500000       0.398970
      925.600000       0.393857
      925.700000       0.388734
      925.800000       0.383577
      925.900000       0.378412
      926.000000       0.373256
      926.100000       0.368093
      926.200000       0.362923
      926.300000       0.357667
      926.400000       0.353119
      926.500000       0.348460
      926.600000       0.343203
      926.700000       0.338074
      926.800000       0.333924
      926.900000       0.328617
      927.000000       0.324017
      927.100000       0.319338
      927.200000       0.315031
      927.300000       0.309922
      927.400000       0.305029
      927.500000       0.300703
      927.600000       0.296087
      927.700000       0.291486
      927.800000       0.287340
      927.900000       0.283477
      928.000000       0.279594
      928.100000       0.275258
      928.200000       0.270735
      928.300000       0.266929
      928.400000       0.263091
      928.500000       0.259012
      928.600000       0.254290
      928.700000       0.250498
      928.800000       0.246686
      928.900000       0.242881
      929.000000       0.239079
      929.100000       0.235282
      929.200000       0.231486
      929.300000       0.227690
      929.400000       0.223894
      929.500000       0.220119
      929.600000       0.216107
      929.700000       0.211728
      929.800000       0.208723
      929.900000       0.204926
      930.000000       0.201203
      930.100000       0.198044
      930.200000       0.194651
      930.300000       0.191077
      930.400000       0.188106
      930.500000       0.184353
      930.600000       0.180605
      930.700000       0.177400
      930.800000       0.174202
      930.900000       0.171376
      931.000000       0.168882
      931.100000       0.165937
      931.200000       0.162664
      931.300000       0.160172
      931.400000       0.157667
      931.500000       0.154900
      931.600000       0.151574
      931.700000       0.148866
      931.800000       0.146243
      931.900000       0.143601
      932.000000       0.141212
      932.100000       0.139308
      932.200000       0.136872
      932.300000       0.134223
      932.400000       0.131585
      932.500000       0.129900
      932.600000       0.127451
      932.700000       0.124724
      932.800000       0.122793
      932.900000       0.120551
      933.000000       0.119006
      933.100000       0.117606
      933.200000       0.115221
      933.300000       0.113527
      933.400000       0.111504
      933.500000       0.110039
      933.600000       0.108271
      933.700000       0.106511
      933.800000       0.104730
      933.900000       0.103170
      934.000000       0.101754
      934.100000       0.100384
      934.200000       0.098967
      934.300000       0.097516
      934.400000       0.096149
      934.500000       0.094745
      934.600000       0.093314
      934.700000       0.091954
      934.800000       0.090522
      934.900000       0.089002
      935.000000       0.087421
      935.100000       0.085839
      935.200000       0.084265
      935.300000       0.082680
      935.400000       0.081093
      935.500000       0.079505
      935.600000       0.077916
      935.700000       0.076327
      935.800000       0.074737
      935.900000       0.073194
      936.000000       0.071680
      936.100000       0.070168
      936.200000       0.068683
      936.300000       0.067158
      936.400000       0.065623
      936.500000       0.064110
      936.600000       0.062572
      936.700000       0.061082
      936.800000       0.059583
      936.900000       0.058138
      937.000000       0.056926
      937.100000       0.055732
      937.200000       0.054536
      937.300000       0.053341
      937.400000       0.052146
      937.500000       0.050963
      937.600000       0.049848
      937.700000       0.048783
      937.800000       0.047713
      937.900000       0.046620
      938.000000       0.046008
      938.100000       0.045614
      938.200000       0.045165
      938.300000       0.044705
      938.400000       0.044299
      938.500000       0.043845
      938.600000       0.043390
      938.700000       0.043003
      938.800000       0.042529
      938.900000       0.042083
      939.000000       0.041699
      939.100000       0.041220
      939.200000       0.040746
      939.300000       0.040271
      939.400000       0.039798
      939.500000       0.039326
      939.600000       0.038854
      939.700000       0.038383
      939.800000       0.037913
      939.900000       0.037443
      940.000000       0.036970
      940.100000       0.036500
      940.200000       0.036030
      940.300000       0.035452
      940.400000       0.034968
      940.500000       0.034383
      940.600000       0.033837
      940.700000       0.033316
      940.800000       0.032789
      940.900000       0.032264
      941.000000       0.031731
      941.100000       0.031214
      941.200000       0.030630
      941.300000       0.030100
      941.400000       0.029576
      941.500000       0.028987
      941.600000       0.028403
      941.700000       0.027817
      941.800000       0.027331
      941.900000       0.026771
      942.000000       0.026187
      942.100000       0.025597
      942.200000       0.024953
      942.300000       0.024323
      942.400000       0.023648
      942.500000       0.023275
      942.600000       0.022874
      942.700000       0.022561
      942.800000       0.022183
      942.900000       0.021845
      943.000000       0.021481
      943.100000       0.021142
      943.200000       0.020771
      943.300000       0.020345
      943.400000       0.020054
      943.500000       0.019770
      943.600000       0.019488
      943.700000       0.019183
      943.800000       0.018829
      943.900000       0.018525
      944.000000       0.018245
      944.100000       0.017965
      944.200000       0.017684
      944.300000       0.017404
      944.400000       0.017124
      944.500000       0.016841
      944.600000       0.016602
      944.700000       0.016387
      944.800000       0.016118
      944.900000       0.015837
      945.000000       0.015573
      945.100000       0.015399
      945.200000       0.015120
      945.300000       0.014950
      945.400000       0.014881
      945.500000       0.014755
      945.600000       0.014694
      945.700000       0.014585
      945.800000       0.014556
      945.900000       0.014423
      946.000000       0.014332
      946.100000       0.014271
      946.200000       0.014175
      946.300000       0.013936
      946.400000       0.013728
      946.500000       0.013493
      946.600000       0.013226
      946.700000       0.013047
      946.800000       0.012775
      946.900000       0.012561
      947.000000       0.012329
      947.100000       0.012087
      947.200000       0.011937
      947.300000       0.011801
      947.400000       0.011565
      947.500000       0.011412
      947.600000       0.011275
      947.700000       0.011137
      947.800000       0.010989
      947.900000       0.010830
      948.000000       0.010681
      948.100000       0.010499
      948.200000       0.010231
      948.300000       0.009945
      948.400000       0.009667
      948.500000       0.009383
      948.600000       0.009098
      948.700000       0.008820
      948.800000       0.008535
      948.900000       0.008255
      949.000000       0.007975
      949.100000       0.007689
      949.200000       0.007403
      949.300000       0.007112
      949.400000       0.006821
      949.500000       0.006536
      949.600000       0.006251
      949.700000       0.005962
      949.800000       0.005669
      949.900000       0.005379
      950.000000       0.005205
      950.100000       0.005264
      950.200000       0.005373
      950.300000       0.005488
      950.400000       0.005597
      950.500000       0.005703
      950.600000       0.005810
      950.700000       0.005922
      950.800000       0.006031
      950.900000       0.006161
      951.000000       0.006399
      951.100000       0.006715
      951.200000       0.007035
      951.300000       0.007355
      951.400000       0.007674
      951.500000       0.007995
      951.600000       0.008321
      951.700000       0.008645
      951.800000       0.009004
      951.900000       0.009087
      952.000000       0.008942
      952.100000       0.008709
      952.200000       0.008492
      952.300000       0.008264
      952.400000       0.008040
      952.500000       0.007820
      952.600000       0.007597
      952.700000       0.007374
      952.800000       0.007136
      952.900000       0.006778
      953.000000       0.006350
      953.100000       0.005924
      953.200000       0.005506
      953.300000       0.005080
      953.400000       0.004654
      953.500000       0.004228
      953.600000       0.003762
      953.700000       0.004443
      953.800000       0.005112
      953.900000       0.004914
      954.000000       0.004735
      954.100000       0.004561
      954.200000       0.004377
      954.300000       0.004235
      954.400000       0.004226
      954.500000       0.004262
      954.600000       0.004301
      954.700000       0.004340
      954.800000       0.004379
      954.900000       0.004417
      955.000000       0.004456
      955.100000       0.004495
      955.200000       0.004533
      955.300000       0.004573
      955.400000       0.004611
      955.500000       0.004650
      955.600000       0.004689
      955.700000       0.004727
      955.800000       0.004766
      955.900000       0.004805
      956.000000       0.004844
      956.100000       0.004884
      956.200000       0.004917
      956.300000       0.004943
      956.400000       0.004969
      956.500000       0.004993
      956.600000       0.005009
      956.700000       0.005036
      956.800000       0.005062
      956.900000       0.005088
      957.000000       0.005109
      957.100000       0.005125
      957.200000       0.005100
      957.300000       0.005039
      957.400000       0.004973
      957.500000       0.004906
      957.600000       0.004840
      957.700000       0.004780
      957.800000       0.004719
      957.900000       0.004652
      958.000000       0.004589
      958.100000       0.004498
      958.200000       0.004363
      958.300000       0.004208
      958.400000       0.004054
      958.500000       0.003905
      958.600000       0.003754
      958.700000       0.003604
      958.800000       0.003455
      958.900000       0.003304
      959.000000       0.003156
      959.100000       0.002985
      959.200000       0.002808
      959.300000       0.002632
      959.400000       0.002456
      959.500000       0.002274
      959.600000       0.002100
      959.700000       0.001921
      959.800000       0.001751
      959.900000       0.001456
      960.000000       0.000870
