5,   from FY-3C_VIRR_SRF.xlsx (col D) Dr. Prof. SUN Ling (April 2019)
Number of data points:
145
Wavenumber (cm-1)   Filter response
    10964.912300       0.000213
    10976.948400       0.000323
    10989.011000       0.000154
    11001.100100       0.000338
    11013.215900       0.000169
    11025.358300       0.000177
    11037.527600       0.000146
    11049.723800       0.000081
    11061.946900       0.000308
    11074.197100       0.000256
    11086.474500       0.000122
    11098.779100       0.000239
    11111.111100       0.000199
    11123.470500       0.000135
    11135.857500       0.000136
    11148.272000       0.000142
    11160.714300       0.000113
    11173.184400       0.007639
    11185.682300       0.011240
    11198.208300       0.008027
    11210.762300       0.003307
    11223.344600       0.003443
    11235.955100       0.003056
    11248.593900       0.005929
    11261.261300       0.012050
    11273.957200       0.015270
    11286.681700       0.014890
    11299.435000       0.022380
    11312.217200       0.034430
    11325.028300       0.033930
    11337.868500       0.043760
    11350.737800       0.059410
    11363.636400       0.063710
    11376.564300       0.075390
    11389.521600       0.092210
    11402.508600       0.109900
    11415.525100       0.125900
    11428.571400       0.148900
    11441.647600       0.173600
    11454.753700       0.200500
    11467.889900       0.230400
    11481.056300       0.262900
    11494.252900       0.297700
    11507.479900       0.337000
    11520.737300       0.379400
    11534.025400       0.426300
    11547.344100       0.475300
    11560.693600       0.532100
    11574.074100       0.577900
    11587.485500       0.633300
    11600.928100       0.687200
    11614.401900       0.737700
    11627.907000       0.781700
    11641.443500       0.826500
    11655.011700       0.867100
    11668.611400       0.900900
    11682.243000       0.918200
    11695.906400       0.936500
    11709.601900       0.953800
    11723.329400       0.973600
    11737.089200       0.985500
    11750.881300       0.991500
    11764.705900       0.997900
    11778.563000       0.995100
    11792.452800       1.000000
    11806.375400       0.993700
    11820.331000       0.986200
    11834.319500       0.979500
    11848.341200       0.979200
    11862.396200       0.976700
    11876.484600       0.969300
    11890.606400       0.964400
    11904.761900       0.963000
    11918.951100       0.955200
    11933.174200       0.940100
    11947.431300       0.936900
    11961.722500       0.920700
    11976.047900       0.915700
    11990.407700       0.906200
    12004.801900       0.900200
    12019.230800       0.887200
    12033.694300       0.870200
    12048.192800       0.864200
    12062.726200       0.853000
    12077.294700       0.856100
    12091.898400       0.837400
    12106.537500       0.827200
    12121.212100       0.804300
    12135.922300       0.790200
    12150.668300       0.754600
    12165.450100       0.728800
    12180.268000       0.689700
    12195.122000       0.650900
    12210.012200       0.603700
    12224.938900       0.558200
    12239.902100       0.494400
    12254.902000       0.432700
    12269.938700       0.382900
    12285.012300       0.336100
    12300.123000       0.280800
    12315.270900       0.235100
    12330.456200       0.196800
    12345.679000       0.161200
    12360.939400       0.125300
    12376.237600       0.099680
    12391.573700       0.073200
    12406.947900       0.053350
    12422.360200       0.044710
    12437.810900       0.034330
    12453.300100       0.018940
    12468.827900       0.013760
    12484.394500       0.001723
    12500.000000       0.000012
    12515.644600       0.000248
    12531.328300       0.000330
    12547.051400       0.000285
    12562.814100       0.000152
    12578.616400       0.000103
    12594.458400       0.000313
    12610.340500       0.000226
    12626.262600       0.000247
    12642.225000       0.000164
    12658.227800       0.000191
    12674.271200       0.000055
    12690.355300       0.000156
    12706.480300       0.000105
    12722.646300       0.000304
    12738.853500       0.000080
    12755.102000       0.000159
    12771.392100       0.000172
    12787.723800       0.000014
    12804.097300       0.000341
    12820.512800       0.000090
    12836.970500       0.000205
    12853.470400       0.000043
    12870.012900       0.000193
    12886.597900       0.000274
    12903.225800       0.000133
    12919.896600       0.000255
    12936.610600       0.000129
    12953.367900       0.000287
    12970.168600       0.000121
    12987.013000       0.000228
    13003.901200       0.000193
    13020.833300       0.000246
