3,   3, MVIRI VIS channel from srf_MET6_1997123_1997124_1801-Release_S10EL_10.dat
Number of data points:
750
Wavenumber (cm-1)   Filter response
     8760.403000       0.000000
     8768.084200       0.000000
     8775.778900       0.000000
     8783.487000       0.000002
     8791.208800       0.000005
     8798.944100       0.000011
     8806.693100       0.000020
     8814.455700       0.000033
     8822.232000       0.000052
     8830.022100       0.000076
     8837.825900       0.000106
     8845.643500       0.000144
     8853.475000       0.000190
     8861.320300       0.000245
     8869.179600       0.000310
     8877.052800       0.000386
     8884.940000       0.000473
     8892.841300       0.000573
     8900.756600       0.000686
     8908.686000       0.000813
     8916.629500       0.000955
     8924.587200       0.001112
     8932.559200       0.001286
     8940.545400       0.001478
     8948.545900       0.001688
     8956.560700       0.001917
     8964.589900       0.002166
     8972.633500       0.002436
     8980.691500       0.002728
     8988.764000       0.003042
     8996.851100       0.003379
     9004.952700       0.003741
     9013.068900       0.004127
     9021.199800       0.004539
     9029.345400       0.004978
     9037.505600       0.005444
     9045.680700       0.005939
     9053.870500       0.006462
     9062.075200       0.007015
     9070.294800       0.007598
     9078.529300       0.008213
     9086.778700       0.008860
     9095.043200       0.009539
     9103.322700       0.010252
     9111.617300       0.010998
     9119.927000       0.011780
     9128.251900       0.012597
     9136.592100       0.013451
     9144.947400       0.014341
     9153.318100       0.015268
     9161.704100       0.016234
     9170.105500       0.017239
     9178.522300       0.018282
     9186.954500       0.019366
     9195.402300       0.020490
     9203.865600       0.021656
     9212.344500       0.022863
     9220.839100       0.024112
     9229.349300       0.025404
     9237.875300       0.026739
     9246.417000       0.028118
     9254.974500       0.029541
     9263.547900       0.031008
     9272.137200       0.032520
     9280.742500       0.034078
     9289.363700       0.035682
     9298.000900       0.037332
     9306.654300       0.039029
     9315.323700       0.040772
     9324.009300       0.042563
     9332.711200       0.044402
     9341.429200       0.046288
     9350.163600       0.048223
     9358.914400       0.050206
     9367.681500       0.052237
     9376.465100       0.054318
     9385.265100       0.056448
     9394.081700       0.058627
     9402.914900       0.060855
     9411.764700       0.063134
     9420.631200       0.065462
     9429.514400       0.067840
     9438.414300       0.070268
     9447.331100       0.072746
     9456.264800       0.075274
     9465.215300       0.077853
     9474.182900       0.080481
     9483.167400       0.083160
     9492.169000       0.085889
     9501.187600       0.088669
     9510.223500       0.091498
     9519.276500       0.094378
     9528.346800       0.097308
     9537.434400       0.100288
     9546.539400       0.103317
     9555.661700       0.106396
     9564.801500       0.109525
     9573.958800       0.112704
     9583.133700       0.115931
     9592.326100       0.119208
     9601.536200       0.122533
     9610.764100       0.125907
     9620.009600       0.129330
     9629.273000       0.132800
     9638.554200       0.136318
     9647.853400       0.139884
     9657.170400       0.143497
     9666.505600       0.147157
     9675.858700       0.150864
     9685.230000       0.154617
     9694.619500       0.158416
     9704.027200       0.162260
     9713.453100       0.166149
     9722.897400       0.170084
     9732.360100       0.174062
     9741.841200       0.178084
     9751.340800       0.182149
     9760.859000       0.186258
     9770.395700       0.190409
     9779.951100       0.194602
     9789.525200       0.198837
     9799.118100       0.203112
     9808.729800       0.207428
     9818.360300       0.211784
     9828.009800       0.216179
     9837.678300       0.220613
     9847.365800       0.225086
     9857.072400       0.229595
     9866.798200       0.234143
     9876.543200       0.238726
     9886.307500       0.243345
     9896.091000       0.248000
     9905.894000       0.252689
     9915.716400       0.257413
     9925.558300       0.262169
     9935.419800       0.266959
     9945.300800       0.271781
     9955.201600       0.276633
     9965.122100       0.281517
     9975.062300       0.286430
     9985.022500       0.291374
     9995.002500       0.296345
    10005.002500       0.301345
    10015.022500       0.306372
    10025.062700       0.311425
    10035.122900       0.316504
    10045.203400       0.321608
    10055.304200       0.326736
    10065.425300       0.331888
    10075.566800       0.337063
    10085.728700       0.342259
    10095.911200       0.347478
    10106.114200       0.352716
    10116.337900       0.357975
    10126.582300       0.363252
    10136.847400       0.368548
    10147.133400       0.373861
    10157.440300       0.379191
    10167.768200       0.384537
    10178.117000       0.389898
    10188.487000       0.395273
    10198.878100       0.400663
    10209.290500       0.406064
    10219.724100       0.411478
    10230.179000       0.416903
    10240.655400       0.422339
    10251.153300       0.427783
    10261.672700       0.433237
    10272.213700       0.438699
    10282.776300       0.444168
    10293.360800       0.449644
    10303.967000       0.455125
    10314.595200       0.460611
    10325.245200       0.466101
    10335.917300       0.471595
    10346.611500       0.477091
    10357.327800       0.482589
    10368.066400       0.488087
    10378.827200       0.493586
    10389.610400       0.499084
    10400.416000       0.504581
    10411.244100       0.510075
    10422.094800       0.515566
    10432.968200       0.521054
    10443.864200       0.526537
    10454.783100       0.532015
    10465.724800       0.537487
    10476.689400       0.542952
    10487.677000       0.548410
    10498.687700       0.553859
    10509.721500       0.559298
    10520.778500       0.564729
    10531.858900       0.570148
    10542.962600       0.575557
    10554.089700       0.580953
    10565.240400       0.586336
    10576.414600       0.591706
    10587.612500       0.597062
    10598.834100       0.602403
    10610.079600       0.607728
    10621.348900       0.613037
    10632.642200       0.618329
    10643.959600       0.623604
    10655.301000       0.628860
    10666.666700       0.634096
    10678.056600       0.639313
    10689.470900       0.644510
    10700.909600       0.649686
    10712.372800       0.654840
    10723.860600       0.659971
    10735.373100       0.665080
    10746.910300       0.670165
    10758.472300       0.675226
    10770.059200       0.680261
    10781.671200       0.685272
    10793.308100       0.690256
    10804.970300       0.695214
    10816.657700       0.700144
    10828.370300       0.705047
    10840.108400       0.709921
    10851.871900       0.714766
    10863.661100       0.719582
    10875.475800       0.724368
    10887.316300       0.729123
    10899.182600       0.733846
    10911.074700       0.738539
    10922.992900       0.743199
    10934.937100       0.747826
    10946.907500       0.752420
    10958.904100       0.756981
    10970.927000       0.761507
    10982.976400       0.765999
    10995.052200       0.770455
    11007.154700       0.774876
    11019.283700       0.779261
    11031.439600       0.783610
    11043.622300       0.787922
    11055.832000       0.792197
    11068.068600       0.796433
    11080.332400       0.800632
    11092.623400       0.804793
    11104.941700       0.808914
    11117.287400       0.812996
    11129.660500       0.817039
    11142.061300       0.821042
    11154.489700       0.825004
    11166.945800       0.828926
    11179.429800       0.832806
    11191.941800       0.836646
    11204.481800       0.840444
    11217.049900       0.844200
    11229.646300       0.847914
    11242.270900       0.851585
    11254.924000       0.855214
    11267.605600       0.858800
    11280.315800       0.862342
    11293.054800       0.865841
    11305.822500       0.869296
    11318.619100       0.872708
    11331.444800       0.876075
    11344.299500       0.879397
    11357.183400       0.882676
    11370.096600       0.885909
    11383.039300       0.889098
    11396.011400       0.892241
    11409.013100       0.895339
    11422.044500       0.898392
    11435.105800       0.901400
    11448.196900       0.904361
    11461.318100       0.907277
    11474.469300       0.910147
    11487.650800       0.912971
    11500.862600       0.915749
    11514.104800       0.918480
    11527.377500       0.921166
    11540.680900       0.923805
    11554.015000       0.926398
    11567.380000       0.928944
    11580.775900       0.931444
    11594.202900       0.933897
    11607.661100       0.936304
    11621.150500       0.938664
    11634.671300       0.940978
    11648.223600       0.943245
    11661.807600       0.945466
    11675.423200       0.947640
    11689.070700       0.949768
    11702.750100       0.951850
    11716.461600       0.953885
    11730.205300       0.955873
    11743.981200       0.957816
    11757.789500       0.959712
    11771.630400       0.961562
    11785.503800       0.963367
    11799.410000       0.965125
    11813.349100       0.966838
    11827.321100       0.968505
    11841.326200       0.970126
    11855.364600       0.971702
    11869.436200       0.973233
    11883.541300       0.974719
    11897.680000       0.976159
    11911.852300       0.977555
    11926.058400       0.978906
    11940.298500       0.980213
    11954.572600       0.981476
    11968.880900       0.982694
    11983.223500       0.983869
    11997.600500       0.984999
    12012.012000       0.986087
    12026.458200       0.987131
    12040.939200       0.988132
    12055.455100       0.989091
    12070.006000       0.990007
    12084.592100       0.990881
    12099.213600       0.991712
    12113.870400       0.992502
    12128.562800       0.993251
    12143.290800       0.993958
    12158.054700       0.994625
    12172.854500       0.995251
    12187.690400       0.995836
    12202.562500       0.996382
    12217.471000       0.996887
    12232.415900       0.997354
    12247.397400       0.997781
    12262.415700       0.998170
    12277.470800       0.998520
    12292.563000       0.998832
    12307.692300       0.999106
    12322.858900       0.999343
    12338.062900       0.999543
    12353.304500       0.999706
    12368.583800       0.999833
    12383.900900       0.999924
    12399.256000       0.999980
    12414.649300       1.000000
    12430.080800       0.999985
    12445.550700       0.999937
    12461.059200       0.999854
    12476.606400       0.999737
    12492.192400       0.999587
    12507.817400       0.999405
    12523.481500       0.999190
    12539.185000       0.998943
    12554.927800       0.998664
    12570.710200       0.998354
    12586.532400       0.998014
    12602.394500       0.997643
    12618.296500       0.997243
    12634.238800       0.996813
    12650.221400       0.996354
    12666.244500       0.995866
    12682.308200       0.995351
    12698.412700       0.994808
    12714.558200       0.994237
    12730.744700       0.993640
    12746.972600       0.993017
    12763.241900       0.992368
    12779.552700       0.991693
    12795.905300       0.990994
    12812.299800       0.990270
    12828.736400       0.989522
    12845.215200       0.988751
    12861.736300       0.987957
    12878.300100       0.987140
    12894.906500       0.986302
    12911.555800       0.985441
    12928.248200       0.984560
    12944.983800       0.983658
    12961.762800       0.982736
    12978.585300       0.981794
    12995.451600       0.980833
    13012.361700       0.979854
    13029.316000       0.978856
    13046.314400       0.977841
    13063.357300       0.976809
    13080.444700       0.975759
    13097.576900       0.974694
    13114.754100       0.973613
    13131.976400       0.972517
    13149.243900       0.971406
    13166.556900       0.970280
    13183.915600       0.969141
    13201.320100       0.967989
    13218.770700       0.966824
    13236.267400       0.965647
    13253.810500       0.964458
    13271.400100       0.963257
    13289.036500       0.962046
    13306.719900       0.960825
    13324.450400       0.959594
    13342.228200       0.958353
    13360.053400       0.957103
    13377.926400       0.955845
    13395.847300       0.954580
    13413.816200       0.953306
    13431.833400       0.952026
    13449.899100       0.950739
    13468.013500       0.949447
    13486.176700       0.948149
    13504.388900       0.946845
    13522.650400       0.945538
    13540.961400       0.944226
    13559.322000       0.942910
    13577.732500       0.941592
    13596.193100       0.940270
    13614.703900       0.938946
    13633.265200       0.937621
    13651.877100       0.936294
    13670.540000       0.934966
    13689.253900       0.933638
    13708.019200       0.932309
    13726.836000       0.930981
    13745.704500       0.929654
    13764.624900       0.928328
    13783.597500       0.927004
    13802.622500       0.925682
    13821.700100       0.924362
    13840.830400       0.923046
    13860.013900       0.921732
    13879.250500       0.920423
    13898.540700       0.919117
    13917.884500       0.917817
    13937.282200       0.916521
    13956.734100       0.915230
    13976.240400       0.913945
    13995.801300       0.912667
    14015.417000       0.911394
    14035.087700       0.910129
    14054.813800       0.908871
    14074.595400       0.907620
    14094.432700       0.906377
    14114.326000       0.905143
    14134.275600       0.903917
    14154.281700       0.902700
    14174.344400       0.901493
    14194.464200       0.900295
    14214.641100       0.899107
    14234.875400       0.897929
    14255.167500       0.896762
    14275.517500       0.895605
    14295.925700       0.894460
    14316.392300       0.893326
    14336.917600       0.892204
    14357.501800       0.891094
    14378.145200       0.889997
    14398.848100       0.888911
    14419.610700       0.887839
    14440.433200       0.886780
    14461.316000       0.885734
    14482.259200       0.884701
    14503.263200       0.883682
    14524.328200       0.882677
    14545.454500       0.881687
    14566.642400       0.880711
    14587.892000       0.879749
    14609.203800       0.878802
    14630.577900       0.877870
    14652.014700       0.876954
    14673.514300       0.876052
    14695.077100       0.875167
    14716.703500       0.874296
    14738.393500       0.873442
    14760.147600       0.872604
    14781.966000       0.871782
    14803.849000       0.870975
    14825.796900       0.870186
    14847.809900       0.869412
    14869.888500       0.868656
    14892.032800       0.867915
    14914.243100       0.867192
    14936.519800       0.866485
    14958.863100       0.865795
    14981.273400       0.865123
    15003.750900       0.864467
    15026.296000       0.863828
    15048.909000       0.863206
    15071.590100       0.862601
    15094.339600       0.862013
    15117.158000       0.861442
    15140.045400       0.860889
    15163.002300       0.860352
    15186.028900       0.859833
    15209.125500       0.859330
    15232.292500       0.858845
    15255.530100       0.858376
    15278.838800       0.857925
    15302.218800       0.857490
    15325.670500       0.857072
    15349.194200       0.856670
    15372.790200       0.856285
    15396.458800       0.855917
    15420.200500       0.855565
    15444.015400       0.855229
    15467.904100       0.854909
    15491.866800       0.854605
    15515.903800       0.854317
    15540.015500       0.854045
    15564.202300       0.853788
    15588.464500       0.853547
    15612.802500       0.853321
    15637.216600       0.853109
    15661.707100       0.852913
    15686.274500       0.852731
    15710.919100       0.852563
    15735.641200       0.852409
    15760.441300       0.852269
    15785.319700       0.852143
    15810.276700       0.852030
    15835.312700       0.851930
    15860.428200       0.851843
    15885.623500       0.851768
    15910.899000       0.851706
    15936.255000       0.851655
    15961.691900       0.851616
    15987.210200       0.851588
    16012.810200       0.851572
    16038.492400       0.851565
    16064.257000       0.851569
    16090.104600       0.851583
    16116.035500       0.851606
    16142.050000       0.851638
    16168.148700       0.851679
    16194.332000       0.851729
    16220.600200       0.851786
    16246.953700       0.851851
    16273.393000       0.851923
    16299.918500       0.852001
    16326.530600       0.852085
    16353.229800       0.852176
    16380.016400       0.852271
    16406.890900       0.852372
    16433.853700       0.852476
    16460.905300       0.852585
    16488.046200       0.852696
    16515.276600       0.852811
    16542.597200       0.852928
    16570.008300       0.853047
    16597.510400       0.853166
    16625.103900       0.853287
    16652.789300       0.853408
    16680.567100       0.853528
    16708.437800       0.853648
    16736.401700       0.853766
    16764.459300       0.853882
    16792.611300       0.853995
    16820.857900       0.854105
    16849.199700       0.854211
    16877.637100       0.854312
    16906.170800       0.854409
    16934.801000       0.854500
    16963.528400       0.854584
    16992.353400       0.854661
    17021.276600       0.854731
    17050.298400       0.854793
    17079.419300       0.854845
    17108.639900       0.854888
    17137.960600       0.854921
    17167.382000       0.854942
    17196.904600       0.854952
    17226.528900       0.854950
    17256.255400       0.854935
    17286.084700       0.854906
    17316.017300       0.854862
    17346.053800       0.854804
    17376.194600       0.854729
    17406.440400       0.854638
    17436.791600       0.854530
    17467.248900       0.854403
    17497.812800       0.854258
    17528.483800       0.854093
    17559.262500       0.853908
    17590.149500       0.853702
    17621.145400       0.853475
    17652.250700       0.853224
    17683.466000       0.852951
    17714.791900       0.852653
    17746.228900       0.852331
    17777.777800       0.851982
    17809.439000       0.851608
    17841.213200       0.851206
    17873.101000       0.850777
    17905.103000       0.850319
    17937.219700       0.849831
    17969.451900       0.849313
    18001.800200       0.848764
    18034.265100       0.848183
    18066.847300       0.847570
    18099.547500       0.846923
    18132.366300       0.846242
    18165.304300       0.845526
    18198.362100       0.844774
    18231.540600       0.843986
    18264.840200       0.843160
    18298.261700       0.842296
    18331.805700       0.841393
    18365.472900       0.840450
    18399.264000       0.839467
    18433.179700       0.838442
    18467.220700       0.837376
    18501.387600       0.836266
    18535.681200       0.835113
    18570.102100       0.833916
    18604.651200       0.832673
    18639.329000       0.831384
    18674.136300       0.830049
    18709.073900       0.828666
    18744.142500       0.827235
    18779.342700       0.825755
    18814.675400       0.824225
    18850.141400       0.822645
    18885.741300       0.821013
    18921.475900       0.819330
    18957.346000       0.817593
    18993.352300       0.815804
    19029.495700       0.813960
    19065.776900       0.812062
    19102.196800       0.810108
    19138.756000       0.808098
    19175.455400       0.806031
    19212.295900       0.803907
    19249.278200       0.801724
    19286.403100       0.799483
    19323.671500       0.797182
    19361.084200       0.794821
    19398.642100       0.792400
    19436.346000       0.789917
    19474.196700       0.787372
    19512.195100       0.784765
    19550.342100       0.782095
    19588.638600       0.779361
    19627.085400       0.776563
    19665.683400       0.773700
    19704.433500       0.770772
    19743.336600       0.767779
    19782.393700       0.764719
    19821.605600       0.761593
    19860.973200       0.758399
    19900.497500       0.755138
    19940.179500       0.751809
    19980.020000       0.748412
    20020.020000       0.744946
    20060.180500       0.741411
    20100.502500       0.737806
    20140.986900       0.734132
    20181.634700       0.730387
    20222.446900       0.726573
    20263.424500       0.722687
    20304.568500       0.718731
    20345.880000       0.714703
    20387.359800       0.710605
    20429.009200       0.706434
    20470.829100       0.702193
    20512.820500       0.697879
    20554.984600       0.693494
    20597.322300       0.689036
    20639.834900       0.684507
    20682.523300       0.679906
    20725.388600       0.675232
    20768.432000       0.670487
    20811.654500       0.665670
    20855.057400       0.660781
    20898.641600       0.655820
    20942.408400       0.650788
    20986.358900       0.645685
    21030.494200       0.640510
    21074.815600       0.635264
    21119.324200       0.629948
    21164.021200       0.624561
    21208.907700       0.619104
    21253.985100       0.613578
    21299.254500       0.607983
    21344.717200       0.602318
    21390.374300       0.596586
    21436.227200       0.590786
    21482.277100       0.584918
    21528.525300       0.578984
    21574.973000       0.572985
    21621.621600       0.566919
    21668.472400       0.560790
    21715.526600       0.554596
    21762.785600       0.548340
    21810.250800       0.542022
    21857.923500       0.535642
    21905.805000       0.529202
    21953.896800       0.522703
    22002.200200       0.516145
    22050.716600       0.509531
    22099.447500       0.502860
    22148.394200       0.496134
    22197.558300       0.489355
    22246.941000       0.482524
    22296.544000       0.475641
    22346.368700       0.468709
    22396.416600       0.461728
    22446.689100       0.454701
    22497.187900       0.447628
    22547.914300       0.440512
    22598.870100       0.433354
    22650.056600       0.426156
    22701.475600       0.418919
    22753.128600       0.411646
    22805.017100       0.404337
    22857.142900       0.396996
    22909.507400       0.389624
    22962.112500       0.382224
    23014.959700       0.374796
    23068.050700       0.367345
    23121.387300       0.359871
    23174.971000       0.352377
    23228.803700       0.344866
    23282.887100       0.337340
    23337.222900       0.329801
    23391.812900       0.322253
    23446.658900       0.314698
    23501.762600       0.307138
    23557.126000       0.299576
    23612.750900       0.292016
    23668.639100       0.284461
    23724.792400       0.276912
    23781.212800       0.269374
    23837.902300       0.261850
    23894.862600       0.254343
    23952.095800       0.246855
    24009.603800       0.239392
    24067.388700       0.231956
    24125.452400       0.224551
    24183.796900       0.217181
    24242.424200       0.209849
    24301.336600       0.202559
    24360.535900       0.195315
    24420.024400       0.188122
    24479.804200       0.180983
    24539.877300       0.173903
    24600.246000       0.166886
    24660.912500       0.159936
    24721.878900       0.153058
    24783.147500       0.146256
    24844.720500       0.139536
    24906.600200       0.132902
    24968.789000       0.126358
    25031.289100       0.119911
    25094.102900       0.113565
    25157.232700       0.107325
    25220.681000       0.101196
    25284.450100       0.095185
    25348.542500       0.089295
    25412.960600       0.083535
    25477.707000       0.077908
