10,    channel 10 SRF extracted from SRF_FY-3F_MERSI-III.zip(FY3F_MERSI_SRF_CH10_Pub.txt) (received Nov 2023)
Number of data points:
222
Wavenumber (cm-1)   Filter response
    18165.330700       0.000122
    18181.798300       0.000145
    18198.365500       0.000166
    18214.969400       0.000182
    18231.530600       0.000196
    18248.198500       0.000208
    18264.823500       0.000212
    18281.552400       0.000212
    18298.248300       0.000207
    18315.041800       0.000199
    18331.799000       0.000187
    18348.590200       0.000175
    18365.483000       0.000167
    18382.339400       0.000167
    18399.230200       0.000174
    18416.223200       0.000188
    18433.176300       0.000210
    18450.167500       0.000237
    18467.186600       0.000263
    18484.312300       0.000287
    18501.401300       0.000306
    18518.521900       0.000321
    18535.677800       0.000326
    18552.868800       0.000318
    18570.095200       0.000299
    18587.346800       0.000267
    18604.640800       0.000225
    18621.967000       0.000179
    18639.325500       0.000565
    18656.719900       0.000837
    18674.146800       0.001404
    18691.609700       0.002095
    18709.108900       0.002204
    18726.567200       0.002197
    18744.135400       0.002071
    18761.733100       0.001940
    18779.370900       0.002045
    18796.967700       0.002146
    18814.675400       0.002587
    18832.416500       0.002915
    18850.123600       0.003236
    18867.931600       0.003553
    18885.709200       0.003869
    18903.595300       0.003958
    18921.515300       0.004464
    18939.397500       0.004267
    18957.310000       0.004550
    18975.339300       0.004849
    18993.327100       0.005041
    19011.432100       0.005232
    19029.492100       0.005423
    19047.590000       0.006138
    19065.802400       0.006535
    19083.969500       0.007037
    19102.178500       0.009979
    19120.422300       0.010070
    19138.781600       0.010290
    19157.095500       0.010702
    19175.451700       0.011118
    19193.846900       0.011599
    19212.277400       0.011824
    19230.739600       0.012312
    19249.248500       0.012803
    19267.789300       0.013364
    19286.369600       0.013993
    19304.985800       0.015084
    19323.641600       0.015985
    19342.333600       0.017025
    19361.069200       0.018269
    19379.837400       0.019787
    19398.645900       0.021181
    19417.494600       0.022716
    19436.380000       0.024596
    19455.226400       0.026827
    19474.189100       0.029479
    19493.192600       0.032756
    19512.233200       0.037348
    19531.234700       0.043199
    19550.353600       0.050734
    19569.433300       0.060103
    19588.630900       0.072360
    19607.870100       0.087191
    19627.066100       0.105178
    19646.384700       0.126562
    19665.664000       0.151513
    19685.062600       0.179791
    19704.418000       0.211499
    19723.897000       0.245752
    19743.336600       0.282513
    19762.810700       0.321806
    19782.413200       0.362639
    19801.972400       0.404676
    19821.574100       0.447926
    19841.297400       0.491615
    19860.977100       0.535253
    19880.699900       0.579010
    19900.465800       0.621943
    19920.354400       0.664420
    19940.203300       0.705780
    19960.091800       0.745872
    19980.024000       0.783698
    19999.996000       0.820200
    20020.008000       0.853642
    20040.068100       0.884354
    20060.164400       0.911622
    20080.305200       0.935409
    20100.494400       0.955381
    20120.716200       0.971474
    20140.986900       0.983797
    20161.298500       0.992376
    20181.655100       0.997993
    20202.052900       1.000000
    20222.406000       0.999828
    20242.894500       0.997690
    20263.424500       0.993549
    20283.996200       0.988757
    20304.527300       0.982963
    20325.186700       0.976648
    20345.801300       0.969475
    20366.640300       0.962963
    20387.343200       0.955497
    20408.184100       0.948032
    20428.975800       0.939915
    20449.901900       0.931474
    20470.787200       0.921228
    20491.803300       0.909497
    20512.862600       0.895673
    20533.885100       0.879739
    20554.946600       0.860738
    20576.148600       0.839386
    20597.301100       0.815591
    20618.595000       0.789734
    20639.834900       0.761265
    20661.127100       0.731423
    20682.561800       0.700183
    20703.942300       0.667150
    20725.375700       0.633177
    20746.853500       0.598497
    20768.466500       0.563290
    20790.038100       0.527460
    20811.658900       0.491615
    20833.324700       0.455405
    20855.035600       0.419269
    20876.791900       0.382945
    20898.602300       0.346246
    20920.458300       0.310175
    20942.452200       0.275111
    20964.404500       0.241529
    20986.407300       0.209917
    21008.359200       0.181597
    21030.458800       0.155879
    21052.605000       0.132899
    21074.793400       0.113075
    21097.037500       0.095977
    21119.328600       0.081657
    21141.671400       0.069566
    21164.061500       0.059648
    21186.404800       0.051365
    21208.898700       0.044639
    21231.431500       0.038724
    21254.025800       0.033920
    21276.568600       0.029753
    21299.259100       0.026039
    21322.002500       0.022885
    21344.694400       0.020401
    21367.539600       0.017988
    21390.333200       0.016054
    21413.276200       0.014505
    21436.277800       0.013247
    21459.222900       0.011878
    21482.327900       0.011104
    21505.376300       0.010218
    21528.478900       0.009426
    21551.738100       0.008732
    21574.949800       0.008345
    21598.304800       0.007536
    21621.616900       0.007037
    21644.984200       0.006535
    21668.500500       0.006138
    21691.978700       0.005423
    21715.498300       0.005232
    21739.177700       0.005041
    21762.814100       0.004849
    21786.497100       0.004550
    21810.236500       0.004464
    21834.032500       0.004267
    21857.875700       0.003958
    21881.881200       0.003869
    21905.838600       0.003553
    21929.848600       0.003236
    21953.911300       0.002915
    21978.036500       0.002587
    22002.214700       0.002146
    22026.441400       0.002045
    22050.731200       0.001942
    22075.079600       0.002071
    22099.471900       0.002197
    22123.933000       0.002204
    22148.443300       0.002095
    22172.904800       0.001865
    22197.533600       0.001637
    22222.212300       0.001404
    22246.950900       0.001412
    22271.749600       0.001296
    22296.499300       0.001425
    22321.413600       0.001307
    22346.378700       0.001311
    22371.409700       0.001065
    22396.386500       0.001069
    22421.534700       0.000820
    22446.734500       0.000824
    22471.895000       0.000828
    22497.213200       0.000960
    22522.487000       0.000964
    22547.924500       0.000964
    22573.317600       0.000968
    22598.875200       0.001108
    22624.388300       0.001113
    22650.066900       0.001117
    22675.701000       0.001255
    22701.501400       0.001260
    22727.252100       0.000990
