04, NOAA-M AVHRR CHANNEL 04
Number of data points:
1601
Wavenumber (cm-1)   Filter response
      840.000000       0.000000
      840.100000       0.000000
      840.200000       0.000000
      840.300000       0.000000
      840.400000       0.000000
      840.500000       0.000000
      840.600000       0.000000
      840.700000       0.000000
      840.800000       0.000000
      840.900000       0.000000
      841.000000       0.000000
      841.100000       0.000000
      841.200000       0.000000
      841.300000       0.000000
      841.400000       0.000000
      841.500000       0.000000
      841.600000       0.000000
      841.700000       0.000000
      841.800000       0.000000
      841.900000       0.000000
      842.000000       0.000000
      842.100000       0.000000
      842.200000       0.000000
      842.300000       0.000000
      842.400000       0.000000
      842.500000       0.000000
      842.600000       0.000000
      842.700000       0.000000
      842.800000       0.001000
      842.900000       0.001000
      843.000000       0.001000
      843.100000       0.001000
      843.200000       0.001000
      843.300000       0.001000
      843.400000       0.001000
      843.500000       0.001000
      843.600000       0.001000
      843.700000       0.001000
      843.800000       0.001000
      843.900000       0.001000
      844.000000       0.001000
      844.100000       0.001000
      844.200000       0.001000
      844.300000       0.001000
      844.400000       0.001000
      844.500000       0.001000
      844.600000       0.001000
      844.700000       0.001000
      844.800000       0.001000
      844.900000       0.000000
      845.000000       0.000000
      845.100000       0.000000
      845.200000       0.000000
      845.300000       0.000000
      845.400000       0.000000
      845.500000       0.000000
      845.600000       0.000000
      845.700000       0.000000
      845.800000       0.000000
      845.900000       0.000000
      846.000000       0.000000
      846.100000       0.000000
      846.200000       0.000000
      846.300000       0.000000
      846.400000       0.000000
      846.500000       0.000000
      846.600000       0.000000
      846.700000       0.000000
      846.800000       0.000000
      846.900000       0.000000
      847.000000       0.001000
      847.100000       0.001000
      847.200000       0.001000
      847.300000       0.001000
      847.400000       0.001000
      847.500000       0.001000
      847.600000       0.001000
      847.700000       0.001000
      847.800000       0.001000
      847.900000       0.001000
      848.000000       0.001000
      848.100000       0.000000
      848.200000       0.000000
      848.300000       0.000000
      848.400000       0.000000
      848.500000       0.000000
      848.600000       0.000000
      848.700000       0.000000
      848.800000       0.000000
      848.900000       0.000000
      849.000000       0.000000
      849.100000       0.000000
      849.200000       0.000000
      849.300000       0.000000
      849.400000       0.000000
      849.500000       0.000000
      849.600000       0.000000
      849.700000       0.000000
      849.800000       0.000000
      849.900000       0.000000
      850.000000       0.000000
      850.100000       0.000000
      850.200000       0.000000
      850.300000       0.000000
      850.400000       0.000000
      850.500000       0.000000
      850.600000       0.000000
      850.700000       0.000000
      850.800000       0.000000
      850.900000       0.000000
      851.000000       0.000000
      851.100000       0.000000
      851.200000       0.000000
      851.300000       0.000000
      851.400000       0.000000
      851.500000       0.000000
      851.600000       0.000000
      851.700000       0.000000
      851.800000       0.000000
      851.900000       0.000000
      852.000000       0.000000
      852.100000       0.000000
      852.200000       0.000000
      852.300000       0.000000
      852.400000       0.000000
      852.500000       0.000000
      852.600000       0.000000
      852.700000       0.000000
      852.800000       0.000000
      852.900000       0.000000
      853.000000       0.000000
      853.100000       0.000000
      853.200000       0.000000
      853.300000       0.000000
      853.400000       0.000000
      853.500000       0.000000
      853.600000       0.000000
      853.700000       0.000000
      853.800000       0.000000
      853.900000       0.000000
      854.000000       0.000000
      854.100000       0.000000
      854.200000       0.000000
      854.300000       0.000000
      854.400000       0.000000
      854.500000       0.000000
      854.600000       0.000000
      854.700000       0.000000
      854.800000       0.000000
      854.900000       0.000000
      855.000000       0.000000
      855.100000       0.000000
      855.200000       0.000000
      855.300000       0.000000
      855.400000       0.000000
      855.500000       0.000000
      855.600000       0.000000
      855.700000       0.000000
      855.800000       0.000000
      855.900000       0.000000
      856.000000       0.000000
      856.100000       0.000000
      856.200000       0.000000
      856.300000       0.000000
      856.400000       0.000000
      856.500000       0.000000
      856.600000       0.000000
      856.700000       0.000000
      856.800000       0.000000
      856.900000       0.000000
      857.000000       0.000000
      857.100000       0.000000
      857.200000       0.000000
      857.300000       0.000000
      857.400000       0.000000
      857.500000       0.000000
      857.600000       0.000000
      857.700000       0.000000
      857.800000       0.000000
      857.900000       0.000000
      858.000000       0.000000
      858.100000       0.000000
      858.200000       0.000000
      858.300000       0.000000
      858.400000       0.000000
      858.500000       0.000000
      858.600000       0.000000
      858.700000       0.000000
      858.800000       0.000000
      858.900000       0.000000
      859.000000       0.000000
      859.100000       0.000000
      859.200000       0.000000
      859.300000       0.000000
      859.400000       0.001000
      859.500000       0.001000
      859.600000       0.001000
      859.700000       0.001000
      859.800000       0.001000
      859.900000       0.001000
      860.000000       0.001000
      860.100000       0.001000
      860.200000       0.001000
      860.300000       0.001000
      860.400000       0.001000
      860.500000       0.001000
      860.600000       0.001000
      860.700000       0.001000
      860.800000       0.001000
      860.900000       0.001000
      861.000000       0.001000
      861.100000       0.001000
      861.200000       0.001000
      861.300000       0.001000
      861.400000       0.001000
      861.500000       0.001000
      861.600000       0.001000
      861.700000       0.001000
      861.800000       0.001000
      861.900000       0.001000
      862.000000       0.001000
      862.100000       0.001000
      862.200000       0.001000
      862.300000       0.001000
      862.400000       0.001000
      862.500000       0.001000
      862.600000       0.001000
      862.700000       0.001000
      862.800000       0.001000
      862.900000       0.001000
      863.000000       0.001000
      863.100000       0.001000
      863.200000       0.002000
      863.300000       0.002000
      863.400000       0.002000
      863.500000       0.002000
      863.600000       0.002000
      863.700000       0.002000
      863.800000       0.002000
      863.900000       0.002000
      864.000000       0.002000
      864.100000       0.002000
      864.200000       0.002000
      864.300000       0.002000
      864.400000       0.002000
      864.500000       0.002000
      864.600000       0.002000
      864.700000       0.002000
      864.800000       0.002000
      864.900000       0.002000
      865.000000       0.002000
      865.100000       0.003000
      865.200000       0.003000
      865.300000       0.003000
      865.400000       0.003000
      865.500000       0.003000
      865.600000       0.003000
      865.700000       0.003000
      865.800000       0.003000
      865.900000       0.004000
      866.000000       0.004000
      866.100000       0.004000
      866.200000       0.004000
      866.300000       0.004000
      866.400000       0.004000
      866.500000       0.004000
      866.600000       0.005000
      866.700000       0.005000
      866.800000       0.005000
      866.900000       0.005000
      867.000000       0.005000
      867.100000       0.005000
      867.200000       0.005000
      867.300000       0.005000
      867.400000       0.005000
      867.500000       0.005000
      867.600000       0.005000
      867.700000       0.006000
      867.800000       0.006000
      867.900000       0.006000
      868.000000       0.006000
      868.100000       0.006000
      868.200000       0.007000
      868.300000       0.007000
      868.400000       0.007000
      868.500000       0.007000
      868.600000       0.008000
      868.700000       0.008000
      868.800000       0.008000
      868.900000       0.009000
      869.000000       0.009000
      869.100000       0.010000
      869.200000       0.010000
      869.300000       0.010000
      869.400000       0.011000
      869.500000       0.011000
      869.600000       0.012000
      869.700000       0.012000
      869.800000       0.012000
      869.900000       0.013000
      870.000000       0.013000
      870.100000       0.013000
      870.200000       0.014000
      870.300000       0.014000
      870.400000       0.014000
      870.500000       0.015000
      870.600000       0.015000
      870.700000       0.016000
      870.800000       0.016000
      870.900000       0.017000
      871.000000       0.017000
      871.100000       0.018000
      871.200000       0.018000
      871.300000       0.019000
      871.400000       0.020000
      871.500000       0.021000
      871.600000       0.021000
      871.700000       0.022000
      871.800000       0.023000
      871.900000       0.024000
      872.000000       0.025000
      872.100000       0.026000
      872.200000       0.026000
      872.300000       0.027000
      872.400000       0.028000
      872.500000       0.029000
      872.600000       0.030000
      872.700000       0.031000
      872.800000       0.032000
      872.900000       0.033000
      873.000000       0.034000
      873.100000       0.035000
      873.200000       0.036000
      873.300000       0.037000
      873.400000       0.038000
      873.500000       0.039000
      873.600000       0.040000
      873.700000       0.041000
      873.800000       0.042000
      873.900000       0.043000
      874.000000       0.045000
      874.100000       0.046000
      874.200000       0.047000
      874.300000       0.049000
      874.400000       0.050000
      874.500000       0.052000
      874.600000       0.054000
      874.700000       0.055000
      874.800000       0.057000
      874.900000       0.059000
      875.000000       0.061000
      875.100000       0.063000
      875.200000       0.065000
      875.300000       0.067000
      875.400000       0.069000
      875.500000       0.071000
      875.600000       0.073000
      875.700000       0.075000
      875.800000       0.077000
      875.900000       0.079000
      876.000000       0.081000
      876.100000       0.083000
      876.200000       0.086000
      876.300000       0.088000
      876.400000       0.090000
      876.500000       0.093000
      876.600000       0.095000
      876.700000       0.098000
      876.800000       0.100000
      876.900000       0.103000
      877.000000       0.106000
      877.100000       0.109000
      877.200000       0.112000
      877.300000       0.115000
      877.400000       0.118000
      877.500000       0.121000
      877.600000       0.124000
      877.700000       0.128000
      877.800000       0.131000
      877.900000       0.135000
      878.000000       0.138000
      878.100000       0.142000
      878.200000       0.146000
      878.300000       0.149000
      878.400000       0.153000
      878.500000       0.157000
      878.600000       0.161000
      878.700000       0.165000
      878.800000       0.169000
      878.900000       0.173000
      879.000000       0.178000
      879.100000       0.182000
      879.200000       0.186000
      879.300000       0.190000
      879.400000       0.195000
      879.500000       0.199000
      879.600000       0.204000
      879.700000       0.208000
      879.800000       0.213000
      879.900000       0.218000
      880.000000       0.222000
      880.100000       0.227000
      880.200000       0.232000
      880.300000       0.237000
      880.400000       0.242000
      880.500000       0.247000
      880.600000       0.252000
      880.700000       0.257000
      880.800000       0.263000
      880.900000       0.268000
      881.000000       0.273000
      881.100000       0.278000
      881.200000       0.284000
      881.300000       0.289000
      881.400000       0.295000
      881.500000       0.300000
      881.600000       0.306000
      881.700000       0.311000
      881.800000       0.317000
      881.900000       0.322000
      882.000000       0.328000
      882.100000       0.333000
      882.200000       0.339000
      882.300000       0.345000
      882.400000       0.350000
      882.500000       0.356000
      882.600000       0.362000
      882.700000       0.368000
      882.800000       0.373000
      882.900000       0.379000
      883.000000       0.385000
      883.100000       0.391000
      883.200000       0.397000
      883.300000       0.403000
      883.400000       0.409000
      883.500000       0.415000
      883.600000       0.421000
      883.700000       0.427000
      883.800000       0.433000
      883.900000       0.439000
      884.000000       0.445000
      884.100000       0.452000
      884.200000       0.458000
      884.300000       0.464000
      884.400000       0.470000
      884.500000       0.476000
      884.600000       0.482000
      884.700000       0.488000
      884.800000       0.494000
      884.900000       0.500000
      885.000000       0.506000
      885.100000       0.512000
      885.200000       0.517000
      885.300000       0.523000
      885.400000       0.529000
      885.500000       0.534000
      885.600000       0.540000
      885.700000       0.545000
      885.800000       0.551000
      885.900000       0.556000
      886.000000       0.562000
      886.100000       0.567000
      886.200000       0.573000
      886.300000       0.578000
      886.400000       0.584000
      886.500000       0.590000
      886.600000       0.595000
      886.700000       0.601000
      886.800000       0.607000
      886.900000       0.612000
      887.000000       0.618000
      887.100000       0.624000
      887.200000       0.630000
      887.300000       0.635000
      887.400000       0.641000
      887.500000       0.647000
      887.600000       0.652000
      887.700000       0.658000
      887.800000       0.663000
      887.900000       0.668000
      888.000000       0.673000
      888.100000       0.678000
      888.200000       0.683000
      888.300000       0.688000
      888.400000       0.693000
      888.500000       0.697000
      888.600000       0.702000
      888.700000       0.706000
      888.800000       0.710000
      888.900000       0.714000
      889.000000       0.718000
      889.100000       0.723000
      889.200000       0.727000
      889.300000       0.731000
      889.400000       0.734000
      889.500000       0.738000
      889.600000       0.742000
      889.700000       0.746000
      889.800000       0.750000
      889.900000       0.754000
      890.000000       0.758000
      890.100000       0.762000
      890.200000       0.766000
      890.300000       0.770000
      890.400000       0.774000
      890.500000       0.778000
      890.600000       0.782000
      890.700000       0.786000
      890.800000       0.790000
      890.900000       0.794000
      891.000000       0.797000
      891.100000       0.801000
      891.200000       0.805000
      891.300000       0.808000
      891.400000       0.812000
      891.500000       0.816000
      891.600000       0.819000
      891.700000       0.823000
      891.800000       0.826000
      891.900000       0.829000
      892.000000       0.833000
      892.100000       0.836000
      892.200000       0.839000
      892.300000       0.842000
      892.400000       0.845000
      892.500000       0.848000
      892.600000       0.851000
      892.700000       0.854000
      892.800000       0.856000
      892.900000       0.859000
      893.000000       0.861000
      893.100000       0.864000
      893.200000       0.866000
      893.300000       0.868000
      893.400000       0.871000
      893.500000       0.873000
      893.600000       0.875000
      893.700000       0.877000
      893.800000       0.879000
      893.900000       0.881000
      894.000000       0.883000
      894.100000       0.885000
      894.200000       0.888000
      894.300000       0.890000
      894.400000       0.892000
      894.500000       0.894000
      894.600000       0.896000
      894.700000       0.899000
      894.800000       0.901000
      894.900000       0.903000
      895.000000       0.905000
      895.100000       0.908000
      895.200000       0.910000
      895.300000       0.912000
      895.400000       0.914000
      895.500000       0.916000
      895.600000       0.918000
      895.700000       0.920000
      895.800000       0.922000
      895.900000       0.924000
      896.000000       0.926000
      896.100000       0.927000
      896.200000       0.929000
      896.300000       0.930000
      896.400000       0.931000
      896.500000       0.933000
      896.600000       0.934000
      896.700000       0.935000
      896.800000       0.936000
      896.900000       0.936000
      897.000000       0.937000
      897.100000       0.938000
      897.200000       0.939000
      897.300000       0.940000
      897.400000       0.940000
      897.500000       0.941000
      897.600000       0.942000
      897.700000       0.943000
      897.800000       0.944000
      897.900000       0.945000
      898.000000       0.945000
      898.100000       0.946000
      898.200000       0.947000
      898.300000       0.948000
      898.400000       0.949000
      898.500000       0.950000
      898.600000       0.951000
      898.700000       0.952000
      898.800000       0.953000
      898.900000       0.954000
      899.000000       0.955000
      899.100000       0.956000
      899.200000       0.956000
      899.300000       0.957000
      899.400000       0.958000
      899.500000       0.958000
      899.600000       0.959000
      899.700000       0.959000
      899.800000       0.959000
      899.900000       0.960000
      900.000000       0.960000
      900.100000       0.961000
      900.200000       0.961000
      900.300000       0.962000
      900.400000       0.962000
      900.500000       0.963000
      900.600000       0.963000
      900.700000       0.964000
      900.800000       0.964000
      900.900000       0.965000
      901.000000       0.966000
      901.100000       0.967000
      901.200000       0.968000
      901.300000       0.969000
      901.400000       0.970000
      901.500000       0.972000
      901.600000       0.973000
      901.700000       0.974000
      901.800000       0.975000
      901.900000       0.977000
      902.000000       0.978000
      902.100000       0.979000
      902.200000       0.981000
      902.300000       0.982000
      902.400000       0.983000
      902.500000       0.985000
      902.600000       0.986000
      902.700000       0.987000
      902.800000       0.988000
      902.900000       0.989000
      903.000000       0.990000
      903.100000       0.991000
      903.200000       0.992000
      903.300000       0.993000
      903.400000       0.994000
      903.500000       0.994000
      903.600000       0.995000
      903.700000       0.995000
      903.800000       0.995000
      903.900000       0.995000
      904.000000       0.995000
      904.100000       0.995000
      904.200000       0.994000
      904.300000       0.994000
      904.400000       0.993000
      904.500000       0.992000
      904.600000       0.991000
      904.700000       0.990000
      904.800000       0.989000
      904.900000       0.988000
      905.000000       0.987000
      905.100000       0.986000
      905.200000       0.985000
      905.300000       0.984000
      905.400000       0.983000
      905.500000       0.983000
      905.600000       0.982000
      905.700000       0.982000
      905.800000       0.982000
      905.900000       0.982000
      906.000000       0.982000
      906.100000       0.983000
      906.200000       0.984000
      906.300000       0.985000
      906.400000       0.985000
      906.500000       0.986000
      906.600000       0.988000
      906.700000       0.989000
      906.800000       0.990000
      906.900000       0.991000
      907.000000       0.992000
      907.100000       0.992000
      907.200000       0.993000
      907.300000       0.994000
      907.400000       0.994000
      907.500000       0.994000
      907.600000       0.994000
      907.700000       0.993000
      907.800000       0.993000
      907.900000       0.992000
      908.000000       0.991000
      908.100000       0.990000
      908.200000       0.990000
      908.300000       0.989000
      908.400000       0.988000
      908.500000       0.987000
      908.600000       0.986000
      908.700000       0.985000
      908.800000       0.985000
      908.900000       0.985000
      909.000000       0.985000
      909.100000       0.985000
      909.200000       0.985000
      909.300000       0.986000
      909.400000       0.987000
      909.500000       0.988000
      909.600000       0.989000
      909.700000       0.991000
      909.800000       0.992000
      909.900000       0.994000
      910.000000       0.995000
      910.100000       0.996000
      910.200000       0.997000
      910.300000       0.998000
      910.400000       0.999000
      910.500000       1.000000
      910.600000       1.000000
      910.700000       1.000000
      910.800000       0.999000
      910.900000       0.998000
      911.000000       0.997000
      911.100000       0.995000
      911.200000       0.993000
      911.300000       0.991000
      911.400000       0.989000
      911.500000       0.987000
      911.600000       0.984000
      911.700000       0.982000
      911.800000       0.979000
      911.900000       0.977000
      912.000000       0.975000
      912.100000       0.973000
      912.200000       0.972000
      912.300000       0.971000
      912.400000       0.970000
      912.500000       0.970000
      912.600000       0.970000
      912.700000       0.970000
      912.800000       0.971000
      912.900000       0.972000
      913.000000       0.974000
      913.100000       0.975000
      913.200000       0.977000
      913.300000       0.978000
      913.400000       0.980000
      913.500000       0.982000
      913.600000       0.983000
      913.700000       0.985000
      913.800000       0.986000
      913.900000       0.987000
      914.000000       0.987000
      914.100000       0.987000
      914.200000       0.987000
      914.300000       0.987000
      914.400000       0.985000
      914.500000       0.984000
      914.600000       0.983000
      914.700000       0.981000
      914.800000       0.979000
      914.900000       0.977000
      915.000000       0.974000
      915.100000       0.972000
      915.200000       0.970000
      915.300000       0.968000
      915.400000       0.966000
      915.500000       0.964000
      915.600000       0.962000
      915.700000       0.961000
      915.800000       0.960000
      915.900000       0.959000
      916.000000       0.958000
      916.100000       0.958000
      916.200000       0.958000
      916.300000       0.958000
      916.400000       0.959000
      916.500000       0.959000
      916.600000       0.960000
      916.700000       0.961000
      916.800000       0.961000
      916.900000       0.962000
      917.000000       0.963000
      917.100000       0.963000
      917.200000       0.964000
      917.300000       0.965000
      917.400000       0.965000
      917.500000       0.965000
      917.600000       0.965000
      917.700000       0.965000
      917.800000       0.965000
      917.900000       0.965000
      918.000000       0.965000
      918.100000       0.964000
      918.200000       0.964000
      918.300000       0.963000
      918.400000       0.962000
      918.500000       0.962000
      918.600000       0.961000
      918.700000       0.960000
      918.800000       0.960000
      918.900000       0.959000
      919.000000       0.959000
      919.100000       0.958000
      919.200000       0.958000
      919.300000       0.958000
      919.400000       0.958000
      919.500000       0.957000
      919.600000       0.957000
      919.700000       0.957000
      919.800000       0.958000
      919.900000       0.958000
      920.000000       0.958000
      920.100000       0.958000
      920.200000       0.958000
      920.300000       0.959000
      920.400000       0.959000
      920.500000       0.959000
      920.600000       0.959000
      920.700000       0.960000
      920.800000       0.960000
      920.900000       0.960000
      921.000000       0.961000
      921.100000       0.961000
      921.200000       0.961000
      921.300000       0.961000
      921.400000       0.961000
      921.500000       0.962000
      921.600000       0.962000
      921.700000       0.962000
      921.800000       0.962000
      921.900000       0.962000
      922.000000       0.962000
      922.100000       0.962000
      922.200000       0.962000
      922.300000       0.962000
      922.400000       0.962000
      922.500000       0.962000
      922.600000       0.962000
      922.700000       0.961000
      922.800000       0.961000
      922.900000       0.961000
      923.000000       0.960000
      923.100000       0.960000
      923.200000       0.960000
      923.300000       0.959000
      923.400000       0.959000
      923.500000       0.959000
      923.600000       0.958000
      923.700000       0.958000
      923.800000       0.958000
      923.900000       0.957000
      924.000000       0.957000
      924.100000       0.957000
      924.200000       0.957000
      924.300000       0.956000
      924.400000       0.956000
      924.500000       0.956000
      924.600000       0.956000
      924.700000       0.956000
      924.800000       0.956000
      924.900000       0.956000
      925.000000       0.956000
      925.100000       0.956000
      925.200000       0.956000
      925.300000       0.956000
      925.400000       0.956000
      925.500000       0.957000
      925.600000       0.957000
      925.700000       0.957000
      925.800000       0.957000
      925.900000       0.957000
      926.000000       0.957000
      926.100000       0.957000
      926.200000       0.957000
      926.300000       0.957000
      926.400000       0.957000
      926.500000       0.957000
      926.600000       0.957000
      926.700000       0.957000
      926.800000       0.957000
      926.900000       0.957000
      927.000000       0.957000
      927.100000       0.957000
      927.200000       0.957000
      927.300000       0.957000
      927.400000       0.957000
      927.500000       0.958000
      927.600000       0.958000
      927.700000       0.958000
      927.800000       0.958000
      927.900000       0.958000
      928.000000       0.958000
      928.100000       0.958000
      928.200000       0.958000
      928.300000       0.958000
      928.400000       0.958000
      928.500000       0.958000
      928.600000       0.958000
      928.700000       0.958000
      928.800000       0.958000
      928.900000       0.958000
      929.000000       0.958000
      929.100000       0.958000
      929.200000       0.957000
      929.300000       0.957000
      929.400000       0.957000
      929.500000       0.956000
      929.600000       0.956000
      929.700000       0.955000
      929.800000       0.955000
      929.900000       0.954000
      930.000000       0.954000
      930.100000       0.953000
      930.200000       0.953000
      930.300000       0.952000
      930.400000       0.951000
      930.500000       0.951000
      930.600000       0.950000
      930.700000       0.950000
      930.800000       0.949000
      930.900000       0.949000
      931.000000       0.949000
      931.100000       0.948000
      931.200000       0.948000
      931.300000       0.948000
      931.400000       0.948000
      931.500000       0.948000
      931.600000       0.948000
      931.700000       0.948000
      931.800000       0.948000
      931.900000       0.948000
      932.000000       0.948000
      932.100000       0.949000
      932.200000       0.949000
      932.300000       0.949000
      932.400000       0.949000
      932.500000       0.949000
      932.600000       0.950000
      932.700000       0.950000
      932.800000       0.950000
      932.900000       0.950000
      933.000000       0.950000
      933.100000       0.950000
      933.200000       0.950000
      933.300000       0.951000
      933.400000       0.951000
      933.500000       0.951000
      933.600000       0.951000
      933.700000       0.951000
      933.800000       0.950000
      933.900000       0.950000
      934.000000       0.950000
      934.100000       0.950000
      934.200000       0.950000
      934.300000       0.950000
      934.400000       0.949000
      934.500000       0.949000
      934.600000       0.949000
      934.700000       0.949000
      934.800000       0.948000
      934.900000       0.948000
      935.000000       0.947000
      935.100000       0.947000
      935.200000       0.946000
      935.300000       0.946000
      935.400000       0.945000
      935.500000       0.945000
      935.600000       0.944000
      935.700000       0.944000
      935.800000       0.943000
      935.900000       0.942000
      936.000000       0.942000
      936.100000       0.941000
      936.200000       0.941000
      936.300000       0.940000
      936.400000       0.939000
      936.500000       0.939000
      936.600000       0.938000
      936.700000       0.937000
      936.800000       0.937000
      936.900000       0.936000
      937.000000       0.935000
      937.100000       0.935000
      937.200000       0.934000
      937.300000       0.934000
      937.400000       0.933000
      937.500000       0.932000
      937.600000       0.932000
      937.700000       0.931000
      937.800000       0.931000
      937.900000       0.931000
      938.000000       0.930000
      938.100000       0.930000
      938.200000       0.930000
      938.300000       0.929000
      938.400000       0.929000
      938.500000       0.929000
      938.600000       0.929000
      938.700000       0.928000
      938.800000       0.928000
      938.900000       0.928000
      939.000000       0.928000
      939.100000       0.928000
      939.200000       0.928000
      939.300000       0.928000
      939.400000       0.928000
      939.500000       0.927000
      939.600000       0.927000
      939.700000       0.927000
      939.800000       0.927000
      939.900000       0.927000
      940.000000       0.926000
      940.100000       0.926000
      940.200000       0.926000
      940.300000       0.925000
      940.400000       0.925000
      940.500000       0.925000
      940.600000       0.924000
      940.700000       0.924000
      940.800000       0.923000
      940.900000       0.923000
      941.000000       0.922000
      941.100000       0.922000
      941.200000       0.921000
      941.300000       0.921000
      941.400000       0.920000
      941.500000       0.920000
      941.600000       0.919000
      941.700000       0.919000
      941.800000       0.918000
      941.900000       0.918000
      942.000000       0.917000
      942.100000       0.916000
      942.200000       0.916000
      942.300000       0.915000
      942.400000       0.915000
      942.500000       0.914000
      942.600000       0.914000
      942.700000       0.913000
      942.800000       0.913000
      942.900000       0.912000
      943.000000       0.912000
      943.100000       0.911000
      943.200000       0.911000
      943.300000       0.910000
      943.400000       0.910000
      943.500000       0.909000
      943.600000       0.909000
      943.700000       0.908000
      943.800000       0.908000
      943.900000       0.907000
      944.000000       0.907000
      944.100000       0.907000
      944.200000       0.906000
      944.300000       0.906000
      944.400000       0.905000
      944.500000       0.905000
      944.600000       0.904000
      944.700000       0.904000
      944.800000       0.903000
      944.900000       0.903000
      945.000000       0.902000
      945.100000       0.902000
      945.200000       0.901000
      945.300000       0.901000
      945.400000       0.900000
      945.500000       0.900000
      945.600000       0.899000
      945.700000       0.899000
      945.800000       0.898000
      945.900000       0.898000
      946.000000       0.897000
      946.100000       0.897000
      946.200000       0.896000
      946.300000       0.896000
      946.400000       0.895000
      946.500000       0.894000
      946.600000       0.894000
      946.700000       0.893000
      946.800000       0.893000
      946.900000       0.892000
      947.000000       0.892000
      947.100000       0.891000
      947.200000       0.890000
      947.300000       0.890000
      947.400000       0.889000
      947.500000       0.889000
      947.600000       0.888000
      947.700000       0.887000
      947.800000       0.887000
      947.900000       0.886000
      948.000000       0.886000
      948.100000       0.885000
      948.200000       0.884000
      948.300000       0.884000
      948.400000       0.883000
      948.500000       0.883000
      948.600000       0.882000
      948.700000       0.882000
      948.800000       0.881000
      948.900000       0.880000
      949.000000       0.880000
      949.100000       0.879000
      949.200000       0.879000
      949.300000       0.878000
      949.400000       0.878000
      949.500000       0.877000
      949.600000       0.877000
      949.700000       0.876000
      949.800000       0.876000
      949.900000       0.875000
      950.000000       0.875000
      950.100000       0.874000
      950.200000       0.874000
      950.300000       0.873000
      950.400000       0.873000
      950.500000       0.872000
      950.600000       0.872000
      950.700000       0.872000
      950.800000       0.871000
      950.900000       0.871000
      951.000000       0.871000
      951.100000       0.870000
      951.200000       0.870000
      951.300000       0.870000
      951.400000       0.869000
      951.500000       0.869000
      951.600000       0.869000
      951.700000       0.868000
      951.800000       0.868000
      951.900000       0.868000
      952.000000       0.868000
      952.100000       0.867000
      952.200000       0.867000
      952.300000       0.867000
      952.400000       0.867000
      952.500000       0.866000
      952.600000       0.866000
      952.700000       0.866000
      952.800000       0.866000
      952.900000       0.866000
      953.000000       0.866000
      953.100000       0.865000
      953.200000       0.865000
      953.300000       0.865000
      953.400000       0.865000
      953.500000       0.865000
      953.600000       0.865000
      953.700000       0.864000
      953.800000       0.864000
      953.900000       0.864000
      954.000000       0.864000
      954.100000       0.864000
      954.200000       0.864000
      954.300000       0.864000
      954.400000       0.864000
      954.500000       0.864000
      954.600000       0.864000
      954.700000       0.863000
      954.800000       0.863000
      954.900000       0.863000
      955.000000       0.863000
      955.100000       0.863000
      955.200000       0.863000
      955.300000       0.863000
      955.400000       0.863000
      955.500000       0.863000
      955.600000       0.863000
      955.700000       0.862000
      955.800000       0.862000
      955.900000       0.862000
      956.000000       0.862000
      956.100000       0.862000
      956.200000       0.861000
      956.300000       0.861000
      956.400000       0.861000
      956.500000       0.860000
      956.600000       0.860000
      956.700000       0.860000
      956.800000       0.859000
      956.900000       0.859000
      957.000000       0.858000
      957.100000       0.858000
      957.200000       0.857000
      957.300000       0.856000
      957.400000       0.856000
      957.500000       0.855000
      957.600000       0.854000
      957.700000       0.853000
      957.800000       0.853000
      957.900000       0.852000
      958.000000       0.851000
      958.100000       0.850000
      958.200000       0.849000
      958.300000       0.847000
      958.400000       0.846000
      958.500000       0.845000
      958.600000       0.844000
      958.700000       0.843000
      958.800000       0.841000
      958.900000       0.840000
      959.000000       0.839000
      959.100000       0.837000
      959.200000       0.836000
      959.300000       0.834000
      959.400000       0.833000
      959.500000       0.831000
      959.600000       0.830000
      959.700000       0.828000
      959.800000       0.827000
      959.900000       0.825000
      960.000000       0.824000
      960.100000       0.822000
      960.200000       0.821000
      960.300000       0.819000
      960.400000       0.818000
      960.500000       0.816000
      960.600000       0.815000
      960.700000       0.813000
      960.800000       0.811000
      960.900000       0.810000
      961.000000       0.808000
      961.100000       0.806000
      961.200000       0.804000
      961.300000       0.802000
      961.400000       0.801000
      961.500000       0.799000
      961.600000       0.797000
      961.700000       0.795000
      961.800000       0.793000
      961.900000       0.790000
      962.000000       0.788000
      962.100000       0.786000
      962.200000       0.784000
      962.300000       0.781000
      962.400000       0.779000
      962.500000       0.776000
      962.600000       0.774000
      962.700000       0.771000
      962.800000       0.769000
      962.900000       0.766000
      963.000000       0.763000
      963.100000       0.761000
      963.200000       0.758000
      963.300000       0.755000
      963.400000       0.752000
      963.500000       0.749000
      963.600000       0.746000
      963.700000       0.743000
      963.800000       0.740000
      963.900000       0.737000
      964.000000       0.733000
      964.100000       0.730000
      964.200000       0.727000
      964.300000       0.723000
      964.400000       0.720000
      964.500000       0.717000
      964.600000       0.713000
      964.700000       0.709000
      964.800000       0.706000
      964.900000       0.702000
      965.000000       0.698000
      965.100000       0.694000
      965.200000       0.691000
      965.300000       0.687000
      965.400000       0.683000
      965.500000       0.679000
      965.600000       0.674000
      965.700000       0.670000
      965.800000       0.666000
      965.900000       0.662000
      966.000000       0.658000
      966.100000       0.653000
      966.200000       0.649000
      966.300000       0.645000
      966.400000       0.640000
      966.500000       0.636000
      966.600000       0.632000
      966.700000       0.627000
      966.800000       0.623000
      966.900000       0.618000
      967.000000       0.614000
      967.100000       0.610000
      967.200000       0.605000
      967.300000       0.601000
      967.400000       0.596000
      967.500000       0.592000
      967.600000       0.588000
      967.700000       0.583000
      967.800000       0.579000
      967.900000       0.575000
      968.000000       0.570000
      968.100000       0.566000
      968.200000       0.561000
      968.300000       0.557000
      968.400000       0.553000
      968.500000       0.548000
      968.600000       0.544000
      968.700000       0.539000
      968.800000       0.535000
      968.900000       0.530000
      969.000000       0.526000
      969.100000       0.521000
      969.200000       0.516000
      969.300000       0.512000
      969.400000       0.507000
      969.500000       0.502000
      969.600000       0.498000
      969.700000       0.493000
      969.800000       0.488000
      969.900000       0.483000
      970.000000       0.479000
      970.100000       0.474000
      970.200000       0.469000
      970.300000       0.464000
      970.400000       0.460000
      970.500000       0.455000
      970.600000       0.450000
      970.700000       0.445000
      970.800000       0.440000
      970.900000       0.436000
      971.000000       0.431000
      971.100000       0.426000
      971.200000       0.421000
      971.300000       0.417000
      971.400000       0.412000
      971.500000       0.407000
      971.600000       0.403000
      971.700000       0.398000
      971.800000       0.394000
      971.900000       0.389000
      972.000000       0.385000
      972.100000       0.380000
      972.200000       0.376000
      972.300000       0.371000
      972.400000       0.367000
      972.500000       0.362000
      972.600000       0.358000
      972.700000       0.354000
      972.800000       0.349000
      972.900000       0.345000
      973.000000       0.341000
      973.100000       0.337000
      973.200000       0.333000
      973.300000       0.329000
      973.400000       0.325000
      973.500000       0.320000
      973.600000       0.316000
      973.700000       0.312000
      973.800000       0.309000
      973.900000       0.305000
      974.000000       0.301000
      974.100000       0.297000
      974.200000       0.293000
      974.300000       0.289000
      974.400000       0.285000
      974.500000       0.281000
      974.600000       0.277000
      974.700000       0.274000
      974.800000       0.270000
      974.900000       0.266000
      975.000000       0.262000
      975.100000       0.258000
      975.200000       0.255000
      975.300000       0.251000
      975.400000       0.247000
      975.500000       0.243000
      975.600000       0.240000
      975.700000       0.236000
      975.800000       0.232000
      975.900000       0.229000
      976.000000       0.225000
      976.100000       0.221000
      976.200000       0.218000
      976.300000       0.214000
      976.400000       0.211000
      976.500000       0.207000
      976.600000       0.204000
      976.700000       0.201000
      976.800000       0.197000
      976.900000       0.194000
      977.000000       0.191000
      977.100000       0.188000
      977.200000       0.184000
      977.300000       0.181000
      977.400000       0.178000
      977.500000       0.175000
      977.600000       0.172000
      977.700000       0.169000
      977.800000       0.166000
      977.900000       0.163000
      978.000000       0.160000
      978.100000       0.157000
      978.200000       0.155000
      978.300000       0.152000
      978.400000       0.149000
      978.500000       0.146000
      978.600000       0.144000
      978.700000       0.141000
      978.800000       0.138000
      978.900000       0.136000
      979.000000       0.133000
      979.100000       0.130000
      979.200000       0.128000
      979.300000       0.125000
      979.400000       0.123000
      979.500000       0.120000
      979.600000       0.118000
      979.700000       0.116000
      979.800000       0.113000
      979.900000       0.111000
      980.000000       0.109000
      980.100000       0.106000
      980.200000       0.104000
      980.300000       0.102000
      980.400000       0.100000
      980.500000       0.098000
      980.600000       0.096000
      980.700000       0.094000
      980.800000       0.092000
      980.900000       0.090000
      981.000000       0.088000
      981.100000       0.086000
      981.200000       0.084000
      981.300000       0.082000
      981.400000       0.080000
      981.500000       0.078000
      981.600000       0.077000
      981.700000       0.075000
      981.800000       0.073000
      981.900000       0.072000
      982.000000       0.070000
      982.100000       0.068000
      982.200000       0.067000
      982.300000       0.065000
      982.400000       0.064000
      982.500000       0.062000
      982.600000       0.061000
      982.700000       0.060000
      982.800000       0.058000
      982.900000       0.057000
      983.000000       0.055000
      983.100000       0.054000
      983.200000       0.053000
      983.300000       0.052000
      983.400000       0.050000
      983.500000       0.049000
      983.600000       0.048000
      983.700000       0.047000
      983.800000       0.046000
      983.900000       0.045000
      984.000000       0.044000
      984.100000       0.042000
      984.200000       0.041000
      984.300000       0.040000
      984.400000       0.039000
      984.500000       0.039000
      984.600000       0.038000
      984.700000       0.037000
      984.800000       0.036000
      984.900000       0.035000
      985.000000       0.034000
      985.100000       0.033000
      985.200000       0.032000
      985.300000       0.032000
      985.400000       0.031000
      985.500000       0.030000
      985.600000       0.029000
      985.700000       0.029000
      985.800000       0.028000
      985.900000       0.027000
      986.000000       0.026000
      986.100000       0.025000
      986.200000       0.024000
      986.300000       0.024000
      986.400000       0.023000
      986.500000       0.022000
      986.600000       0.022000
      986.700000       0.021000
      986.800000       0.021000
      986.900000       0.020000
      987.000000       0.019000
      987.100000       0.019000
      987.200000       0.018000
      987.300000       0.018000
      987.400000       0.017000
      987.500000       0.017000
      987.600000       0.016000
      987.700000       0.016000
      987.800000       0.015000
      987.900000       0.015000
      988.000000       0.014000
      988.100000       0.014000
      988.200000       0.014000
      988.300000       0.013000
      988.400000       0.013000
      988.500000       0.013000
      988.600000       0.012000
      988.700000       0.012000
      988.800000       0.012000
      988.900000       0.011000
      989.000000       0.011000
      989.100000       0.011000
      989.200000       0.010000
      989.300000       0.010000
      989.400000       0.010000
      989.500000       0.010000
      989.600000       0.009000
      989.700000       0.009000
      989.800000       0.009000
      989.900000       0.009000
      990.000000       0.008000
      990.100000       0.008000
      990.200000       0.008000
      990.300000       0.008000
      990.400000       0.008000
      990.500000       0.007000
      990.600000       0.007000
      990.700000       0.007000
      990.800000       0.007000
      990.900000       0.007000
      991.000000       0.006000
      991.100000       0.006000
      991.200000       0.006000
      991.300000       0.006000
      991.400000       0.006000
      991.500000       0.005000
      991.600000       0.005000
      991.700000       0.005000
      991.800000       0.005000
      991.900000       0.005000
      992.000000       0.005000
      992.100000       0.004000
      992.200000       0.004000
      992.300000       0.004000
      992.400000       0.004000
      992.500000       0.004000
      992.600000       0.004000
      992.700000       0.004000
      992.800000       0.004000
      992.900000       0.003000
      993.000000       0.003000
      993.100000       0.003000
      993.200000       0.003000
      993.300000       0.003000
      993.400000       0.003000
      993.500000       0.003000
      993.600000       0.003000
      993.700000       0.003000
      993.800000       0.003000
      993.900000       0.003000
      994.000000       0.002000
      994.100000       0.002000
      994.200000       0.002000
      994.300000       0.002000
      994.400000       0.002000
      994.500000       0.002000
      994.600000       0.002000
      994.700000       0.002000
      994.800000       0.002000
      994.900000       0.002000
      995.000000       0.002000
      995.100000       0.002000
      995.200000       0.002000
      995.300000       0.002000
      995.400000       0.002000
      995.500000       0.001000
      995.600000       0.001000
      995.700000       0.001000
      995.800000       0.001000
      995.900000       0.001000
      996.000000       0.001000
      996.100000       0.001000
      996.200000       0.001000
      996.300000       0.001000
      996.400000       0.001000
      996.500000       0.001000
      996.600000       0.001000
      996.700000       0.001000
      996.800000       0.001000
      996.900000       0.001000
      997.000000       0.001000
      997.100000       0.001000
      997.200000       0.001000
      997.300000       0.001000
      997.400000       0.001000
      997.500000       0.001000
      997.600000       0.000000
      997.700000       0.000000
      997.800000       0.000000
      997.900000       0.000000
      998.000000       0.000000
      998.100000       0.000000
      998.200000       0.000000
      998.300000       0.000000
      998.400000       0.000000
      998.500000       0.000000
      998.600000       0.000000
      998.700000       0.000000
      998.800000       0.000000
      998.900000       0.000000
      999.000000       0.000000
      999.100000       0.000000
      999.200000       0.000000
      999.300000       0.000000
      999.400000       0.000000
      999.500000       0.000000
      999.600000       0.000000
      999.700000       0.000000
      999.800000       0.000000
      999.900000       0.000000
     1000.000000       0.000000
