100,   100, MVIRI VIS channel from srf_MET7_2010033_2010034_1801-Release_S10EE_10.dat
Number of data points:
793
Wavenumber (cm-1)   Filter response
     8442.380800       0.000000
     8449.514200       0.000000
     8456.659600       0.000004
     8463.817200       0.000056
     8470.986900       0.000166
     8478.168700       0.000332
     8485.362700       0.000552
     8492.569000       0.000826
     8499.787500       0.001151
     8507.018300       0.001526
     8514.261400       0.001949
     8521.516800       0.002419
     8528.784600       0.002935
     8536.064900       0.003496
     8543.357500       0.004100
     8550.662700       0.004745
     8557.980300       0.005432
     8565.310500       0.006158
     8572.653200       0.006924
     8580.008600       0.007726
     8587.376600       0.008566
     8594.757200       0.009441
     8602.150500       0.010351
     8609.556600       0.011295
     8616.975400       0.012272
     8624.407100       0.013282
     8631.851500       0.014323
     8639.308900       0.015395
     8646.779100       0.016497
     8654.262200       0.017628
     8661.758300       0.018789
     8669.267400       0.019978
     8676.789600       0.021195
     8684.324800       0.022438
     8691.873100       0.023709
     8699.434500       0.025005
     8707.009100       0.026328
     8714.596900       0.027675
     8722.198000       0.029048
     8729.812300       0.030444
     8737.439900       0.031865
     8745.080900       0.033310
     8752.735200       0.034778
     8760.403000       0.036270
     8768.084200       0.037784
     8775.778900       0.039321
     8783.487000       0.040881
     8791.208800       0.042462
     8798.944100       0.044066
     8806.693100       0.045691
     8814.455700       0.047338
     8822.232000       0.049007
     8830.022100       0.050696
     8837.825900       0.052408
     8845.643500       0.054140
     8853.475000       0.055893
     8861.320300       0.057667
     8869.179600       0.059462
     8877.052800       0.061277
     8884.940000       0.063114
     8892.841300       0.064971
     8900.756600       0.066849
     8908.686000       0.068748
     8916.629500       0.070667
     8924.587200       0.072607
     8932.559200       0.074567
     8940.545400       0.076548
     8948.545900       0.078550
     8956.560700       0.080573
     8964.589900       0.082616
     8972.633500       0.084680
     8980.691500       0.086766
     8988.764000       0.088872
     8996.851100       0.090999
     9004.952700       0.093147
     9013.068900       0.095316
     9021.199800       0.097506
     9029.345400       0.099718
     9037.505600       0.101951
     9045.680700       0.104206
     9053.870500       0.106482
     9062.075200       0.108779
     9070.294800       0.111099
     9078.529300       0.113440
     9086.778700       0.115802
     9095.043200       0.118187
     9103.322700       0.120594
     9111.617300       0.123023
     9119.927000       0.125474
     9128.251900       0.127948
     9136.592100       0.130444
     9144.947400       0.132962
     9153.318100       0.135503
     9161.704100       0.138066
     9170.105500       0.140653
     9178.522300       0.143262
     9186.954500       0.145894
     9195.402300       0.148549
     9203.865600       0.151227
     9212.344500       0.153928
     9220.839100       0.156652
     9229.349300       0.159400
     9237.875300       0.162171
     9246.417000       0.164965
     9254.974500       0.167783
     9263.547900       0.170624
     9272.137200       0.173488
     9280.742500       0.176377
     9289.363700       0.179288
     9298.000900       0.182224
     9306.654300       0.185183
     9315.323700       0.188165
     9324.009300       0.191172
     9332.711200       0.194202
     9341.429200       0.197256
     9350.163600       0.200334
     9358.914400       0.203435
     9367.681500       0.206560
     9376.465100       0.209709
     9385.265100       0.212881
     9394.081700       0.216077
     9402.914900       0.219297
     9411.764700       0.222540
     9420.631200       0.225807
     9429.514400       0.229098
     9438.414300       0.232412
     9447.331100       0.235749
     9456.264800       0.239109
     9465.215300       0.242493
     9474.182900       0.245900
     9483.167400       0.249331
     9492.169000       0.252784
     9501.187600       0.256260
     9510.223500       0.259759
     9519.276500       0.263280
     9528.346800       0.266825
     9537.434400       0.270392
     9546.539400       0.273980
     9555.661700       0.277592
     9564.801500       0.281225
     9573.958800       0.284880
     9583.133700       0.288557
     9592.326100       0.292256
     9601.536200       0.295976
     9610.764100       0.299717
     9620.009600       0.303479
     9629.273000       0.307263
     9638.554200       0.311066
     9647.853400       0.314891
     9657.170400       0.318735
     9666.505600       0.322600
     9675.858700       0.326485
     9685.230000       0.330389
     9694.619500       0.334313
     9704.027200       0.338255
     9713.453100       0.342217
     9722.897400       0.346198
     9732.360100       0.350196
     9741.841200       0.354213
     9751.340800       0.358248
     9760.859000       0.362300
     9770.395700       0.366370
     9779.951100       0.370457
     9789.525200       0.374561
     9799.118100       0.378681
     9808.729800       0.382817
     9818.360300       0.386969
     9828.009800       0.391136
     9837.678300       0.395319
     9847.365800       0.399517
     9857.072400       0.403729
     9866.798200       0.407955
     9876.543200       0.412195
     9886.307500       0.416449
     9896.091000       0.420716
     9905.894000       0.424996
     9915.716400       0.429289
     9925.558300       0.433593
     9935.419800       0.437909
     9945.300800       0.442237
     9955.201600       0.446575
     9965.122100       0.450924
     9975.062300       0.455283
     9985.022500       0.459652
     9995.002500       0.464031
    10005.002500       0.468419
    10015.022500       0.472815
    10025.062700       0.477219
    10035.122900       0.481632
    10045.203400       0.486051
    10055.304200       0.490478
    10065.425300       0.494911
    10075.566800       0.499350
    10085.728700       0.503795
    10095.911200       0.508246
    10106.114200       0.512701
    10116.337900       0.517160
    10126.582300       0.521624
    10136.847400       0.526091
    10147.133400       0.530561
    10157.440300       0.535034
    10167.768200       0.539509
    10178.117000       0.543985
    10188.487000       0.548463
    10198.878100       0.552942
    10209.290500       0.557421
    10219.724100       0.561900
    10230.179000       0.566378
    10240.655400       0.570856
    10251.153300       0.575332
    10261.672700       0.579806
    10272.213700       0.584277
    10282.776300       0.588746
    10293.360800       0.593211
    10303.967000       0.597673
    10314.595200       0.602130
    10325.245200       0.606582
    10335.917300       0.611030
    10346.611500       0.615471
    10357.327800       0.619906
    10368.066400       0.624335
    10378.827200       0.628756
    10389.610400       0.633170
    10400.416000       0.637576
    10411.244100       0.641973
    10422.094800       0.646361
    10432.968200       0.650740
    10443.864200       0.655109
    10454.783100       0.659467
    10465.724800       0.663814
    10476.689400       0.668150
    10487.677000       0.672474
    10498.687700       0.676786
    10509.721500       0.681085
    10520.778500       0.685371
    10531.858900       0.689643
    10542.962600       0.693901
    10554.089700       0.698144
    10565.240400       0.702372
    10576.414600       0.706584
    10587.612500       0.710781
    10598.834100       0.714961
    10610.079600       0.719124
    10621.348900       0.723269
    10632.642200       0.727397
    10643.959600       0.731507
    10655.301000       0.735598
    10666.666700       0.739669
    10678.056600       0.743722
    10689.470900       0.747754
    10700.909600       0.751765
    10712.372800       0.755756
    10723.860600       0.759726
    10735.373100       0.763673
    10746.910300       0.767599
    10758.472300       0.771502
    10770.059200       0.775382
    10781.671200       0.779238
    10793.308100       0.783071
    10804.970300       0.786880
    10816.657700       0.790664
    10828.370300       0.794423
    10840.108400       0.798157
    10851.871900       0.801864
    10863.661100       0.805546
    10875.475800       0.809201
    10887.316300       0.812830
    10899.182600       0.816431
    10911.074700       0.820004
    10922.992900       0.823550
    10934.937100       0.827067
    10946.907500       0.830555
    10958.904100       0.834014
    10970.927000       0.837444
    10982.976400       0.840844
    10995.052200       0.844214
    11007.154700       0.847554
    11019.283700       0.850863
    11031.439600       0.854141
    11043.622300       0.857388
    11055.832000       0.860603
    11068.068600       0.863786
    11080.332400       0.866937
    11092.623400       0.870055
    11104.941700       0.873140
    11117.287400       0.876193
    11129.660500       0.879212
    11142.061300       0.882197
    11154.489700       0.885149
    11166.945800       0.888066
    11179.429800       0.890949
    11191.941800       0.893798
    11204.481800       0.896611
    11217.049900       0.899389
    11229.646300       0.902132
    11242.270900       0.904840
    11254.924000       0.907512
    11267.605600       0.910147
    11280.315800       0.912747
    11293.054800       0.915310
    11305.822500       0.917836
    11318.619100       0.920326
    11331.444800       0.922779
    11344.299500       0.925195
    11357.183400       0.927574
    11370.096600       0.929915
    11383.039300       0.932218
    11396.011400       0.934484
    11409.013100       0.936712
    11422.044500       0.938902
    11435.105800       0.941054
    11448.196900       0.943168
    11461.318100       0.945244
    11474.469300       0.947281
    11487.650800       0.949279
    11500.862600       0.951239
    11514.104800       0.953160
    11527.377500       0.955043
    11540.680900       0.956886
    11554.015000       0.958691
    11567.380000       0.960457
    11580.775900       0.962183
    11594.202900       0.963871
    11607.661100       0.965519
    11621.150500       0.967129
    11634.671300       0.968699
    11648.223600       0.970230
    11661.807600       0.971722
    11675.423200       0.973175
    11689.070700       0.974588
    11702.750100       0.975963
    11716.461600       0.977298
    11730.205300       0.978594
    11743.981200       0.979851
    11757.789500       0.981069
    11771.630400       0.982248
    11785.503800       0.983388
    11799.410000       0.984489
    11813.349100       0.985551
    11827.321100       0.986575
    11841.326200       0.987560
    11855.364600       0.988506
    11869.436200       0.989414
    11883.541300       0.990283
    11897.680000       0.991114
    11911.852300       0.991907
    11926.058400       0.992662
    11940.298500       0.993379
    11954.572600       0.994058
    11968.880900       0.994699
    11983.223500       0.995303
    11997.600500       0.995869
    12012.012000       0.996398
    12026.458200       0.996890
    12040.939200       0.997346
    12055.455100       0.997764
    12070.006000       0.998146
    12084.592100       0.998492
    12099.213600       0.998801
    12113.870400       0.999075
    12128.562800       0.999312
    12143.290800       0.999514
    12158.054700       0.999681
    12172.854500       0.999813
    12187.690400       0.999910
    12202.562500       0.999972
    12217.471000       1.000000
    12232.415900       0.999994
    12247.397400       0.999953
    12262.415700       0.999880
    12277.470800       0.999772
    12292.563000       0.999632
    12307.692300       0.999459
    12322.858900       0.999253
    12338.062900       0.999015
    12353.304500       0.998745
    12368.583800       0.998444
    12383.900900       0.998111
    12399.256000       0.997747
    12414.649300       0.997352
    12430.080800       0.996926
    12445.550700       0.996471
    12461.059200       0.995986
    12476.606400       0.995471
    12492.192400       0.994927
    12507.817400       0.994354
    12523.481500       0.993753
    12539.185000       0.993124
    12554.927800       0.992467
    12570.710200       0.991782
    12586.532400       0.991071
    12602.394500       0.990332
    12618.296500       0.989568
    12634.238800       0.988777
    12650.221400       0.987961
    12666.244500       0.987120
    12682.308200       0.986254
    12698.412700       0.985363
    12714.558200       0.984449
    12730.744700       0.983511
    12746.972600       0.982549
    12763.241900       0.981565
    12779.552700       0.980558
    12795.905300       0.979529
    12812.299800       0.978479
    12828.736400       0.977407
    12845.215200       0.976315
    12861.736300       0.975202
    12878.300100       0.974069
    12894.906500       0.972917
    12911.555800       0.971746
    12928.248200       0.970555
    12944.983800       0.969347
    12961.762800       0.968121
    12978.585300       0.966877
    12995.451600       0.965617
    13012.361700       0.964339
    13029.316000       0.963046
    13046.314400       0.961737
    13063.357300       0.960413
    13080.444700       0.959075
    13097.576900       0.957721
    13114.754100       0.956354
    13131.976400       0.954974
    13149.243900       0.953580
    13166.556900       0.952175
    13183.915600       0.950756
    13201.320100       0.949327
    13218.770700       0.947886
    13236.267400       0.946434
    13253.810500       0.944973
    13271.400100       0.943501
    13289.036500       0.942020
    13306.719900       0.940530
    13324.450400       0.939032
    13342.228200       0.937525
    13360.053400       0.936011
    13377.926400       0.934490
    13395.847300       0.932962
    13413.816200       0.931428
    13431.833400       0.929889
    13449.899100       0.928344
    13468.013500       0.926794
    13486.176700       0.925239
    13504.388900       0.923681
    13522.650400       0.922119
    13540.961400       0.920554
    13559.322000       0.918987
    13577.732500       0.917417
    13596.193100       0.915846
    13614.703900       0.914273
    13633.265200       0.912699
    13651.877100       0.911125
    13670.540000       0.909551
    13689.253900       0.907977
    13708.019200       0.906404
    13726.836000       0.904833
    13745.704500       0.903263
    13764.624900       0.901695
    13783.597500       0.900129
    13802.622500       0.898567
    13821.700100       0.897008
    13840.830400       0.895453
    13860.013900       0.893901
    13879.250500       0.892355
    13898.540700       0.890813
    13917.884500       0.889277
    13937.282200       0.887746
    13956.734100       0.886222
    13976.240400       0.884704
    13995.801300       0.883193
    14015.417000       0.881689
    14035.087700       0.880193
    14054.813800       0.878705
    14074.595400       0.877225
    14094.432700       0.875754
    14114.326000       0.874292
    14134.275600       0.872839
    14154.281700       0.871396
    14174.344400       0.869964
    14194.464200       0.868541
    14214.641100       0.867130
    14234.875400       0.865730
    14255.167500       0.864341
    14275.517500       0.862963
    14295.925700       0.861598
    14316.392300       0.860245
    14336.917600       0.858905
    14357.501800       0.857578
    14378.145200       0.856264
    14398.848100       0.854964
    14419.610700       0.853677
    14440.433200       0.852404
    14461.316000       0.851146
    14482.259200       0.849902
    14503.263200       0.848673
    14524.328200       0.847459
    14545.454500       0.846260
    14566.642400       0.845077
    14587.892000       0.843910
    14609.203800       0.842759
    14630.577900       0.841623
    14652.014700       0.840505
    14673.514300       0.839402
    14695.077100       0.838317
    14716.703500       0.837248
    14738.393500       0.836197
    14760.147600       0.835163
    14781.966000       0.834146
    14803.849000       0.833147
    14825.796900       0.832166
    14847.809900       0.831202
    14869.888500       0.830257
    14892.032800       0.829330
    14914.243100       0.828421
    14936.519800       0.827530
    14958.863100       0.826658
    14981.273400       0.825804
    15003.750900       0.824969
    15026.296000       0.824153
    15048.909000       0.823355
    15071.590100       0.822577
    15094.339600       0.821817
    15117.158000       0.821076
    15140.045400       0.820354
    15163.002300       0.819651
    15186.028900       0.818967
    15209.125500       0.818302
    15232.292500       0.817656
    15255.530100       0.817029
    15278.838800       0.816421
    15302.218800       0.815832
    15325.670500       0.815262
    15349.194200       0.814711
    15372.790200       0.814178
    15396.458800       0.813664
    15420.200500       0.813169
    15444.015400       0.812693
    15467.904100       0.812235
    15491.866800       0.811796
    15515.903800       0.811374
    15540.015500       0.810971
    15564.202300       0.810586
    15588.464500       0.810219
    15612.802500       0.809870
    15637.216600       0.809538
    15661.707100       0.809224
    15686.274500       0.808927
    15710.919100       0.808648
    15735.641200       0.808385
    15760.441300       0.808139
    15785.319700       0.807909
    15810.276700       0.807696
    15835.312700       0.807499
    15860.428200       0.807317
    15885.623500       0.807151
    15910.899000       0.807001
    15936.255000       0.806866
    15961.691900       0.806745
    15987.210200       0.806639
    16012.810200       0.806547
    16038.492400       0.806469
    16064.257000       0.806405
    16090.104600       0.806354
    16116.035500       0.806316
    16142.050000       0.806291
    16168.148700       0.806278
    16194.332000       0.806276
    16220.600200       0.806287
    16246.953700       0.806308
    16273.393000       0.806341
    16299.918500       0.806384
    16326.530600       0.806437
    16353.229800       0.806499
    16380.016400       0.806571
    16406.890900       0.806651
    16433.853700       0.806740
    16460.905300       0.806837
    16488.046200       0.806941
    16515.276600       0.807052
    16542.597200       0.807170
    16570.008300       0.807293
    16597.510400       0.807423
    16625.103900       0.807557
    16652.789300       0.807696
    16680.567100       0.807839
    16708.437800       0.807985
    16736.401700       0.808135
    16764.459300       0.808286
    16792.611300       0.808440
    16820.857900       0.808595
    16849.199700       0.808751
    16877.637100       0.808908
    16906.170800       0.809064
    16934.801000       0.809219
    16963.528400       0.809372
    16992.353400       0.809524
    17021.276600       0.809673
    17050.298400       0.809818
    17079.419300       0.809960
    17108.639900       0.810097
    17137.960600       0.810229
    17167.382000       0.810355
    17196.904600       0.810475
    17226.528900       0.810587
    17256.255400       0.810692
    17286.084700       0.810789
    17316.017300       0.810876
    17346.053800       0.810954
    17376.194600       0.811021
    17406.440400       0.811077
    17436.791600       0.811122
    17467.248900       0.811154
    17497.812800       0.811173
    17528.483800       0.811178
    17559.262500       0.811168
    17590.149500       0.811143
    17621.145400       0.811103
    17652.250700       0.811045
    17683.466000       0.810970
    17714.791900       0.810877
    17746.228900       0.810765
    17777.777800       0.810633
    17809.439000       0.810481
    17841.213200       0.810308
    17873.101000       0.810113
    17905.103000       0.809896
    17937.219700       0.809655
    17969.451900       0.809390
    18001.800200       0.809100
    18034.265100       0.808784
    18066.847300       0.808442
    18099.547500       0.808073
    18132.366300       0.807677
    18165.304300       0.807251
    18198.362100       0.806796
    18231.540600       0.806311
    18264.840200       0.805795
    18298.261700       0.805247
    18331.805700       0.804667
    18365.472900       0.804054
    18399.264000       0.803406
    18433.179700       0.802724
    18467.220700       0.802007
    18501.387600       0.801253
    18535.681200       0.800462
    18570.102100       0.799633
    18604.651200       0.798766
    18639.329000       0.797859
    18674.136300       0.796913
    18709.073900       0.795925
    18744.142500       0.794897
    18779.342700       0.793825
    18814.675400       0.792711
    18850.141400       0.791553
    18885.741300       0.790351
    18921.475900       0.789104
    18957.346000       0.787810
    18993.352300       0.786470
    19029.495700       0.785083
    19065.776900       0.783647
    19102.196800       0.782163
    19138.756000       0.780630
    19175.455400       0.779046
    19212.295900       0.777412
    19249.278200       0.775726
    19286.403100       0.773988
    19323.671500       0.772197
    19361.084200       0.770353
    19398.642100       0.768455
    19436.346000       0.766502
    19474.196700       0.764494
    19512.195100       0.762430
    19550.342100       0.760309
    19588.638600       0.758132
    19627.085400       0.755896
    19665.683400       0.753603
    19704.433500       0.751250
    19743.336600       0.748839
    19782.393700       0.746367
    19821.605600       0.743835
    19860.973200       0.741242
    19900.497500       0.738588
    19940.179500       0.735872
    19980.020000       0.733094
    20020.020000       0.730253
    20060.180500       0.727348
    20100.502500       0.724380
    20140.986900       0.721348
    20181.634700       0.718252
    20222.446900       0.715090
    20263.424500       0.711864
    20304.568500       0.708572
    20345.880000       0.705214
    20387.359800       0.701790
    20429.009200       0.698299
    20470.829100       0.694742
    20512.820500       0.691118
    20554.984600       0.687427
    20597.322300       0.683668
    20639.834900       0.679842
    20682.523300       0.675948
    20725.388600       0.671986
    20768.432000       0.667957
    20811.654500       0.663859
    20855.057400       0.659693
    20898.641600       0.655458
    20942.408400       0.651156
    20986.358900       0.646785
    21030.494200       0.642346
    21074.815600       0.637839
    21119.324200       0.633263
    21164.021200       0.628619
    21208.907700       0.623908
    21253.985100       0.619129
    21299.254500       0.614282
    21344.717200       0.609368
    21390.374300       0.604386
    21436.227200       0.599338
    21482.277100       0.594223
    21528.525300       0.589042
    21574.973000       0.583794
    21621.621600       0.578482
    21668.472400       0.573104
    21715.526600       0.567661
    21762.785600       0.562154
    21810.250800       0.556583
    21857.923500       0.550950
    21905.805000       0.545253
    21953.896800       0.539495
    22002.200200       0.533675
    22050.716600       0.527794
    22099.447500       0.521854
    22148.394200       0.515854
    22197.558300       0.509796
    22246.941000       0.503681
    22296.544000       0.497509
    22346.368700       0.491280
    22396.416600       0.484998
    22446.689100       0.478661
    22497.187900       0.472271
    22547.914300       0.465830
    22598.870100       0.459338
    22650.056600       0.452796
    22701.475600       0.446206
    22753.128600       0.439570
    22805.017100       0.432887
    22857.142900       0.426160
    22909.507400       0.419390
    22962.112500       0.412578
    23014.959700       0.405726
    23068.050700       0.398835
    23121.387300       0.391907
    23174.971000       0.384943
    23228.803700       0.377946
    23282.887100       0.370917
    23337.222900       0.363857
    23391.812900       0.356768
    23446.658900       0.349653
    23501.762600       0.342513
    23557.126000       0.335350
    23612.750900       0.328166
    23668.639100       0.320963
    23724.792400       0.313744
    23781.212800       0.306510
    23837.902300       0.299263
    23894.862600       0.292007
    23952.095800       0.284743
    24009.603800       0.277474
    24067.388700       0.270202
    24125.452400       0.262929
    24183.796900       0.255659
    24242.424200       0.248394
    24301.336600       0.241136
    24360.535900       0.233889
    24420.024400       0.226654
    24479.804200       0.219436
    24539.877300       0.212237
    24600.246000       0.205059
    24660.912500       0.197907
    24721.878900       0.190783
    24783.147500       0.183690
    24844.720500       0.176632
    24906.600200       0.169611
    24968.789000       0.162632
    25031.289100       0.155698
    25094.102900       0.148812
    25157.232700       0.141978
    25220.681000       0.135199
    25284.450100       0.128480
    25348.542500       0.121824
    25412.960600       0.115235
    25477.707000       0.108717
