146,   146, MVIRI VIS channel from srf_MET7_2015303_2015304_1801-Release_S10EE_10.dat
Number of data points:
793
Wavenumber (cm-1)   Filter response
     8442.380800       0.000000
     8449.514200       0.000000
     8456.659600       0.000004
     8463.817200       0.000057
     8470.986900       0.000169
     8478.168700       0.000338
     8485.362700       0.000562
     8492.569000       0.000840
     8499.787500       0.001170
     8507.018300       0.001551
     8514.261400       0.001982
     8521.516800       0.002460
     8528.784600       0.002985
     8536.064900       0.003555
     8543.357500       0.004168
     8550.662700       0.004825
     8557.980300       0.005523
     8565.310500       0.006261
     8572.653200       0.007039
     8580.008600       0.007855
     8587.376600       0.008708
     8594.757200       0.009597
     8602.150500       0.010522
     8609.556600       0.011481
     8616.975400       0.012474
     8624.407100       0.013500
     8631.851500       0.014558
     8639.308900       0.015647
     8646.779100       0.016767
     8654.262200       0.017916
     8661.758300       0.019095
     8669.267400       0.020303
     8676.789600       0.021538
     8684.324800       0.022801
     8691.873100       0.024091
     8699.434500       0.025408
     8707.009100       0.026751
     8714.596900       0.028119
     8722.198000       0.029513
     8729.812300       0.030931
     8737.439900       0.032374
     8745.080900       0.033841
     8752.735200       0.035331
     8760.403000       0.036845
     8768.084200       0.038382
     8775.778900       0.039942
     8783.487000       0.041525
     8791.208800       0.043130
     8798.944100       0.044757
     8806.693100       0.046407
     8814.455700       0.048078
     8822.232000       0.049771
     8830.022100       0.051485
     8837.825900       0.053221
     8845.643500       0.054978
     8853.475000       0.056756
     8861.320300       0.058556
     8869.179600       0.060376
     8877.052800       0.062218
     8884.940000       0.064080
     8892.841300       0.065964
     8900.756600       0.067868
     8908.686000       0.069793
     8916.629500       0.071739
     8924.587200       0.073706
     8932.559200       0.075693
     8940.545400       0.077702
     8948.545900       0.079731
     8956.560700       0.081781
     8964.589900       0.083852
     8972.633500       0.085944
     8980.691500       0.088058
     8988.764000       0.090192
     8996.851100       0.092347
     9004.952700       0.094524
     9013.068900       0.096722
     9021.199800       0.098941
     9029.345400       0.101182
     9037.505600       0.103444
     9045.680700       0.105728
     9053.870500       0.108033
     9062.075200       0.110360
     9070.294800       0.112709
     9078.529300       0.115080
     9086.778700       0.117473
     9095.043200       0.119888
     9103.322700       0.122325
     9111.617300       0.124784
     9119.927000       0.127266
     9128.251900       0.129770
     9136.592100       0.132297
     9144.947400       0.134846
     9153.318100       0.137418
     9161.704100       0.140012
     9170.105500       0.142630
     9178.522300       0.145271
     9186.954500       0.147934
     9195.402300       0.150620
     9203.865600       0.153330
     9212.344500       0.156063
     9220.839100       0.158819
     9229.349300       0.161599
     9237.875300       0.164402
     9246.417000       0.167228
     9254.974500       0.170078
     9263.547900       0.172951
     9272.137200       0.175848
     9280.742500       0.178769
     9289.363700       0.181713
     9298.000900       0.184681
     9306.654300       0.187673
     9315.323700       0.190689
     9324.009300       0.193728
     9332.711200       0.196791
     9341.429200       0.199878
     9350.163600       0.202989
     9358.914400       0.206123
     9367.681500       0.209281
     9376.465100       0.212464
     9385.265100       0.215669
     9394.081700       0.218899
     9402.914900       0.222151
     9411.764700       0.225428
     9420.631200       0.228729
     9429.514400       0.232052
     9438.414300       0.235400
     9447.331100       0.238770
     9456.264800       0.242165
     9465.215300       0.245582
     9474.182900       0.249022
     9483.167400       0.252486
     9492.169000       0.255973
     9501.187600       0.259482
     9510.223500       0.263015
     9519.276500       0.266570
     9528.346800       0.270147
     9537.434400       0.273747
     9546.539400       0.277370
     9555.661700       0.281014
     9564.801500       0.284680
     9573.958800       0.288369
     9583.133700       0.292079
     9592.326100       0.295810
     9601.536200       0.299563
     9610.764100       0.303337
     9620.009600       0.307132
     9629.273000       0.310948
     9638.554200       0.314784
     9647.853400       0.318641
     9657.170400       0.322518
     9666.505600       0.326415
     9675.858700       0.330332
     9685.230000       0.334268
     9694.619500       0.338224
     9704.027200       0.342198
     9713.453100       0.346191
     9722.897400       0.350203
     9732.360100       0.354233
     9741.841200       0.358281
     9751.340800       0.362346
     9760.859000       0.366429
     9770.395700       0.370530
     9779.951100       0.374647
     9789.525200       0.378780
     9799.118100       0.382930
     9808.729800       0.387096
     9818.360300       0.391277
     9828.009800       0.395474
     9837.678300       0.399686
     9847.365800       0.403912
     9857.072400       0.408153
     9866.798200       0.412407
     9876.543200       0.416675
     9886.307500       0.420957
     9896.091000       0.425251
     9905.894000       0.429558
     9915.716400       0.433877
     9925.558300       0.438208
     9935.419800       0.442550
     9945.300800       0.446904
     9955.201600       0.451267
     9965.122100       0.455642
     9975.062300       0.460026
     9985.022500       0.464419
     9995.002500       0.468822
    10005.002500       0.473234
    10015.022500       0.477653
    10025.062700       0.482081
    10035.122900       0.486515
    10045.203400       0.490957
    10055.304200       0.495406
    10065.425300       0.499861
    10075.566800       0.504321
    10085.728700       0.508787
    10095.911200       0.513257
    10106.114200       0.517732
    10116.337900       0.522211
    10126.582300       0.526693
    10136.847400       0.531179
    10147.133400       0.535667
    10157.440300       0.540157
    10167.768200       0.544649
    10178.117000       0.549143
    10188.487000       0.553637
    10198.878100       0.558131
    10209.290500       0.562626
    10219.724100       0.567119
    10230.179000       0.571612
    10240.655400       0.576103
    10251.153300       0.580592
    10261.672700       0.585079
    10272.213700       0.589562
    10282.776300       0.594043
    10293.360800       0.598519
    10303.967000       0.602991
    10314.595200       0.607458
    10325.245200       0.611920
    10335.917300       0.616376
    10346.611500       0.620826
    10357.327800       0.625269
    10368.066400       0.629705
    10378.827200       0.634133
    10389.610400       0.638553
    10400.416000       0.642964
    10411.244100       0.647366
    10422.094800       0.651759
    10432.968200       0.656141
    10443.864200       0.660513
    10454.783100       0.664874
    10465.724800       0.669223
    10476.689400       0.673560
    10487.677000       0.677885
    10498.687700       0.682197
    10509.721500       0.686495
    10520.778500       0.690779
    10531.858900       0.695049
    10542.962600       0.699305
    10554.089700       0.703545
    10565.240400       0.707769
    10576.414600       0.711977
    10587.612500       0.716169
    10598.834100       0.720343
    10610.079600       0.724500
    10621.348900       0.728638
    10632.642200       0.732759
    10643.959600       0.736860
    10655.301000       0.740942
    10666.666700       0.745004
    10678.056600       0.749046
    10689.470900       0.753067
    10700.909600       0.757067
    10712.372800       0.761045
    10723.860600       0.765002
    10735.373100       0.768936
    10746.910300       0.772847
    10758.472300       0.776735
    10770.059200       0.780600
    10781.671200       0.784440
    10793.308100       0.788256
    10804.970300       0.792047
    10816.657700       0.795812
    10828.370300       0.799552
    10840.108400       0.803266
    10851.871900       0.806954
    10863.661100       0.810615
    10875.475800       0.814248
    10887.316300       0.817854
    10899.182600       0.821432
    10911.074700       0.824982
    10922.992900       0.828503
    10934.937100       0.831994
    10946.907500       0.835457
    10958.904100       0.838890
    10970.927000       0.842293
    10982.976400       0.845665
    10995.052200       0.849007
    11007.154700       0.852317
    11019.283700       0.855597
    11031.439600       0.858844
    11043.622300       0.862060
    11055.832000       0.865243
    11068.068600       0.868394
    11080.332400       0.871512
    11092.623400       0.874597
    11104.941700       0.877648
    11117.287400       0.880665
    11129.660500       0.883649
    11142.061300       0.886598
    11154.489700       0.889513
    11166.945800       0.892393
    11179.429800       0.895237
    11191.941800       0.898047
    11204.481800       0.900821
    11217.049900       0.903560
    11229.646300       0.906262
    11242.270900       0.908928
    11254.924000       0.911558
    11267.605600       0.914152
    11280.315800       0.916708
    11293.054800       0.919228
    11305.822500       0.921710
    11318.619100       0.924155
    11331.444800       0.926563
    11344.299500       0.928933
    11357.183400       0.931265
    11370.096600       0.933559
    11383.039300       0.935815
    11396.011400       0.938033
    11409.013100       0.940213
    11422.044500       0.942353
    11435.105800       0.944456
    11448.196900       0.946519
    11461.318100       0.948544
    11474.469300       0.950530
    11487.650800       0.952476
    11500.862600       0.954384
    11514.104800       0.956252
    11527.377500       0.958081
    11540.680900       0.959871
    11554.015000       0.961621
    11567.380000       0.963332
    11580.775900       0.965004
    11594.202900       0.966636
    11607.661100       0.968228
    11621.150500       0.969781
    11634.671300       0.971294
    11648.223600       0.972767
    11661.807600       0.974201
    11675.423200       0.975595
    11689.070700       0.976950
    11702.750100       0.978265
    11716.461600       0.979541
    11730.205300       0.980777
    11743.981200       0.981974
    11757.789500       0.983131
    11771.630400       0.984248
    11785.503800       0.985327
    11799.410000       0.986366
    11813.349100       0.987366
    11827.321100       0.988327
    11841.326200       0.989249
    11855.364600       0.990131
    11869.436200       0.990976
    11883.541300       0.991781
    11897.680000       0.992548
    11911.852300       0.993276
    11926.058400       0.993965
    11940.298500       0.994617
    11954.572600       0.995231
    11968.880900       0.995806
    11983.223500       0.996344
    11997.600500       0.996844
    12012.012000       0.997306
    12026.458200       0.997731
    12040.939200       0.998119
    12055.455100       0.998471
    12070.006000       0.998785
    12084.592100       0.999063
    12099.213600       0.999304
    12113.870400       0.999509
    12128.562800       0.999678
    12143.290800       0.999812
    12158.054700       0.999910
    12172.854500       0.999972
    12187.690400       1.000000
    12202.562500       0.999993
    12217.471000       0.999951
    12232.415900       0.999875
    12247.397400       0.999765
    12262.415700       0.999621
    12277.470800       0.999444
    12292.563000       0.999233
    12307.692300       0.998989
    12322.858900       0.998713
    12338.062900       0.998404
    12353.304500       0.998064
    12368.583800       0.997691
    12383.900900       0.997287
    12399.256000       0.996852
    12414.649300       0.996386
    12430.080800       0.995889
    12445.550700       0.995362
    12461.059200       0.994806
    12476.606400       0.994220
    12492.192400       0.993604
    12507.817400       0.992960
    12523.481500       0.992287
    12539.185000       0.991586
    12554.927800       0.990858
    12570.710200       0.990102
    12586.532400       0.989318
    12602.394500       0.988509
    12618.296500       0.987672
    12634.238800       0.986810
    12650.221400       0.985922
    12666.244500       0.985009
    12682.308200       0.984072
    12698.412700       0.983110
    12714.558200       0.982123
    12730.744700       0.981114
    12746.972600       0.980081
    12763.241900       0.979025
    12779.552700       0.977947
    12795.905300       0.976846
    12812.299800       0.975725
    12828.736400       0.974582
    12845.215200       0.973418
    12861.736300       0.972234
    12878.300100       0.971030
    12894.906500       0.969807
    12911.555800       0.968564
    12928.248200       0.967303
    12944.983800       0.966024
    12961.762800       0.964727
    12978.585300       0.963412
    12995.451600       0.962081
    13012.361700       0.960734
    13029.316000       0.959370
    13046.314400       0.957991
    13063.357300       0.956596
    13080.444700       0.955187
    13097.576900       0.953764
    13114.754100       0.952327
    13131.976400       0.950877
    13149.243900       0.949414
    13166.556900       0.947938
    13183.915600       0.946451
    13201.320100       0.944951
    13218.770700       0.943441
    13236.267400       0.941921
    13253.810500       0.940390
    13271.400100       0.938849
    13289.036500       0.937299
    13306.719900       0.935740
    13324.450400       0.934173
    13342.228200       0.932598
    13360.053400       0.931016
    13377.926400       0.929426
    13395.847300       0.927831
    13413.816200       0.926228
    13431.833400       0.924621
    13449.899100       0.923008
    13468.013500       0.921390
    13486.176700       0.919768
    13504.388900       0.918142
    13522.650400       0.916513
    13540.961400       0.914881
    13559.322000       0.913246
    13577.732500       0.911609
    13596.193100       0.909971
    13614.703900       0.908331
    13633.265200       0.906691
    13651.877100       0.905050
    13670.540000       0.903409
    13689.253900       0.901769
    13708.019200       0.900129
    13726.836000       0.898491
    13745.704500       0.896855
    13764.624900       0.895221
    13783.597500       0.893589
    13802.622500       0.891961
    13821.700100       0.890336
    13840.830400       0.888715
    13860.013900       0.887097
    13879.250500       0.885485
    13898.540700       0.883878
    13917.884500       0.882276
    13937.282200       0.880679
    13956.734100       0.879089
    13976.240400       0.877506
    13995.801300       0.875929
    14015.417000       0.874360
    14035.087700       0.872798
    14054.813800       0.871244
    14074.595400       0.869699
    14094.432700       0.868163
    14114.326000       0.866635
    14134.275600       0.865117
    14154.281700       0.863609
    14174.344400       0.862111
    14194.464200       0.860623
    14214.641100       0.859146
    14234.875400       0.857680
    14255.167500       0.856226
    14275.517500       0.854783
    14295.925700       0.853352
    14316.392300       0.851934
    14336.917600       0.850528
    14357.501800       0.849135
    14378.145200       0.847755
    14398.848100       0.846389
    14419.610700       0.845036
    14440.433200       0.843697
    14461.316000       0.842373
    14482.259200       0.841063
    14503.263200       0.839767
    14524.328200       0.838487
    14545.454500       0.837222
    14566.642400       0.835972
    14587.892000       0.834738
    14609.203800       0.833519
    14630.577900       0.832317
    14652.014700       0.831131
    14673.514300       0.829961
    14695.077100       0.828808
    14716.703500       0.827672
    14738.393500       0.826553
    14760.147600       0.825450
    14781.966000       0.824365
    14803.849000       0.823298
    14825.796900       0.822248
    14847.809900       0.821216
    14869.888500       0.820201
    14892.032800       0.819205
    14914.243100       0.818226
    14936.519800       0.817266
    14958.863100       0.816323
    14981.273400       0.815400
    15003.750900       0.814494
    15026.296000       0.813607
    15048.909000       0.812738
    15071.590100       0.811888
    15094.339600       0.811057
    15117.158000       0.810244
    15140.045400       0.809450
    15163.002300       0.808675
    15186.028900       0.807918
    15209.125500       0.807180
    15232.292500       0.806461
    15255.530100       0.805760
    15278.838800       0.805078
    15302.218800       0.804415
    15325.670500       0.803770
    15349.194200       0.803144
    15372.790200       0.802536
    15396.458800       0.801947
    15420.200500       0.801375
    15444.015400       0.800823
    15467.904100       0.800288
    15491.866800       0.799771
    15515.903800       0.799273
    15540.015500       0.798792
    15564.202300       0.798329
    15588.464500       0.797883
    15612.802500       0.797455
    15637.216600       0.797044
    15661.707100       0.796650
    15686.274500       0.796273
    15710.919100       0.795912
    15735.641200       0.795568
    15760.441300       0.795241
    15785.319700       0.794930
    15810.276700       0.794634
    15835.312700       0.794354
    15860.428200       0.794090
    15885.623500       0.793841
    15910.899000       0.793606
    15936.255000       0.793387
    15961.691900       0.793182
    15987.210200       0.792990
    16012.810200       0.792813
    16038.492400       0.792649
    16064.257000       0.792499
    16090.104600       0.792361
    16116.035500       0.792236
    16142.050000       0.792123
    16168.148700       0.792022
    16194.332000       0.791932
    16220.600200       0.791854
    16246.953700       0.791787
    16273.393000       0.791729
    16299.918500       0.791682
    16326.530600       0.791645
    16353.229800       0.791617
    16380.016400       0.791597
    16406.890900       0.791586
    16433.853700       0.791583
    16460.905300       0.791587
    16488.046200       0.791599
    16515.276600       0.791617
    16542.597200       0.791641
    16570.008300       0.791671
    16597.510400       0.791707
    16625.103900       0.791747
    16652.789300       0.791791
    16680.567100       0.791839
    16708.437800       0.791890
    16736.401700       0.791944
    16764.459300       0.792000
    16792.611300       0.792057
    16820.857900       0.792116
    16849.199700       0.792175
    16877.637100       0.792234
    16906.170800       0.792293
    16934.801000       0.792351
    16963.528400       0.792407
    16992.353400       0.792460
    17021.276600       0.792511
    17050.298400       0.792558
    17079.419300       0.792602
    17108.639900       0.792640
    17137.960600       0.792673
    17167.382000       0.792701
    17196.904600       0.792722
    17226.528900       0.792735
    17256.255400       0.792741
    17286.084700       0.792739
    17316.017300       0.792727
    17346.053800       0.792705
    17376.194600       0.792674
    17406.440400       0.792631
    17436.791600       0.792576
    17467.248900       0.792509
    17497.812800       0.792429
    17528.483800       0.792335
    17559.262500       0.792227
    17590.149500       0.792104
    17621.145400       0.791964
    17652.250700       0.791808
    17683.466000       0.791635
    17714.791900       0.791444
    17746.228900       0.791235
    17777.777800       0.791006
    17809.439000       0.790757
    17841.213200       0.790487
    17873.101000       0.790196
    17905.103000       0.789882
    17937.219700       0.789546
    17969.451900       0.789186
    18001.800200       0.788801
    18034.265100       0.788392
    18066.847300       0.787956
    18099.547500       0.787494
    18132.366300       0.787005
    18165.304300       0.786488
    18198.362100       0.785942
    18231.540600       0.785366
    18264.840200       0.784760
    18298.261700       0.784123
    18331.805700       0.783455
    18365.472900       0.782754
    18399.264000       0.782020
    18433.179700       0.781252
    18467.220700       0.780449
    18501.387600       0.779611
    18535.681200       0.778737
    18570.102100       0.777827
    18604.651200       0.776878
    18639.329000       0.775892
    18674.136300       0.774867
    18709.073900       0.773802
    18744.142500       0.772696
    18779.342700       0.771550
    18814.675400       0.770362
    18850.141400       0.769131
    18885.741300       0.767858
    18921.475900       0.766540
    18957.346000       0.765178
    18993.352300       0.763771
    19029.495700       0.762318
    19065.776900       0.760819
    19102.196800       0.759272
    19138.756000       0.757678
    19175.455400       0.756035
    19212.295900       0.754343
    19249.278200       0.752602
    19286.403100       0.750810
    19323.671500       0.748967
    19361.084200       0.747073
    19398.642100       0.745126
    19436.346000       0.743127
    19474.196700       0.741074
    19512.195100       0.738968
    19550.342100       0.736807
    19588.638600       0.734592
    19627.085400       0.732320
    19665.683400       0.729993
    19704.433500       0.727609
    19743.336600       0.725169
    19782.393700       0.722670
    19821.605600       0.720114
    19860.973200       0.717499
    19900.497500       0.714825
    19940.179500       0.712092
    19980.020000       0.709300
    20020.020000       0.706447
    20060.180500       0.703533
    20100.502500       0.700559
    20140.986900       0.697523
    20181.634700       0.694425
    20222.446900       0.691266
    20263.424500       0.688044
    20304.568500       0.684760
    20345.880000       0.681412
    20387.359800       0.678002
    20429.009200       0.674528
    20470.829100       0.670991
    20512.820500       0.667390
    20554.984600       0.663724
    20597.322300       0.659995
    20639.834900       0.656201
    20682.523300       0.652343
    20725.388600       0.648420
    20768.432000       0.644433
    20811.654500       0.640380
    20855.057400       0.636263
    20898.641600       0.632082
    20942.408400       0.627835
    20986.358900       0.623524
    21030.494200       0.619148
    21074.815600       0.614708
    21119.324200       0.610203
    21164.021200       0.605633
    21208.907700       0.600999
    21253.985100       0.596302
    21299.254500       0.591540
    21344.717200       0.586715
    21390.374300       0.581826
    21436.227200       0.576874
    21482.277100       0.571860
    21528.525300       0.566783
    21574.973000       0.561644
    21621.621600       0.556443
    21668.472400       0.551182
    21715.526600       0.545859
    21762.785600       0.540476
    21810.250800       0.535034
    21857.923500       0.529532
    21905.805000       0.523971
    21953.896800       0.518353
    22002.200200       0.512677
    22050.716600       0.506945
    22099.447500       0.501157
    22148.394200       0.495314
    22197.558300       0.489416
    22246.941000       0.483465
    22296.544000       0.477461
    22346.368700       0.471406
    22396.416600       0.465299
    22446.689100       0.459143
    22497.187900       0.452938
    22547.914300       0.446686
    22598.870100       0.440386
    22650.056600       0.434041
    22701.475600       0.427652
    22753.128600       0.421220
    22805.017100       0.414746
    22857.142900       0.408231
    22909.507400       0.401677
    22962.112500       0.395085
    23014.959700       0.388457
    23068.050700       0.381794
    23121.387300       0.375097
    23174.971000       0.368369
    23228.803700       0.361610
    23282.887100       0.354823
    23337.222900       0.348009
    23391.812900       0.341170
    23446.658900       0.334307
    23501.762600       0.327423
    23557.126000       0.320519
    23612.750900       0.313598
    23668.639100       0.306661
    23724.792400       0.299710
    23781.212800       0.292748
    23837.902300       0.285776
    23894.862600       0.278797
    23952.095800       0.271813
    24009.603800       0.264826
    24067.388700       0.257839
    24125.452400       0.250855
    24183.796900       0.243875
    24242.424200       0.236901
    24301.336600       0.229938
    24360.535900       0.222986
    24420.024400       0.216050
    24479.804200       0.209131
    24539.877300       0.202233
    24600.246000       0.195358
    24660.912500       0.188510
    24721.878900       0.181690
    24783.147500       0.174903
    24844.720500       0.168151
    24906.600200       0.161438
    24968.789000       0.154766
    25031.289100       0.148140
    25094.102900       0.141562
    25157.232700       0.135035
    25220.681000       0.128564
    25284.450100       0.122152
    25348.542500       0.115802
    25412.960600       0.109518
    25477.707000       0.103303
