129,   129, MVIRI VIS channel from srf_MET7_2013258_2013259_1801-Release_S10EE_10.dat
Number of data points:
793
Wavenumber (cm-1)   Filter response
     8442.380800       0.000000
     8449.514200       0.000000
     8456.659600       0.000004
     8463.817200       0.000057
     8470.986900       0.000168
     8478.168700       0.000336
     8485.362700       0.000559
     8492.569000       0.000836
     8499.787500       0.001164
     8507.018300       0.001543
     8514.261400       0.001972
     8521.516800       0.002447
     8528.784600       0.002969
     8536.064900       0.003536
     8543.357500       0.004147
     8550.662700       0.004800
     8557.980300       0.005495
     8565.310500       0.006229
     8572.653200       0.007003
     8580.008600       0.007815
     8587.376600       0.008664
     8594.757200       0.009549
     8602.150500       0.010469
     8609.556600       0.011424
     8616.975400       0.012412
     8624.407100       0.013433
     8631.851500       0.014485
     8639.308900       0.015569
     8646.779100       0.016683
     8654.262200       0.017827
     8661.758300       0.019001
     8669.267400       0.020202
     8676.789600       0.021432
     8684.324800       0.022689
     8691.873100       0.023973
     8699.434500       0.025284
     8707.009100       0.026620
     8714.596900       0.027982
     8722.198000       0.029369
     8729.812300       0.030781
     8737.439900       0.032217
     8745.080900       0.033677
     8752.735200       0.035160
     8760.403000       0.036667
     8768.084200       0.038198
     8775.778900       0.039750
     8783.487000       0.041326
     8791.208800       0.042924
     8798.944100       0.044544
     8806.693100       0.046186
     8814.455700       0.047849
     8822.232000       0.049535
     8830.022100       0.051241
     8837.825900       0.052970
     8845.643500       0.054719
     8853.475000       0.056490
     8861.320300       0.058281
     8869.179600       0.060094
     8877.052800       0.061928
     8884.940000       0.063782
     8892.841300       0.065657
     8900.756600       0.067553
     8908.686000       0.069470
     8916.629500       0.071408
     8924.587200       0.073366
     8932.559200       0.075345
     8940.545400       0.077346
     8948.545900       0.079367
     8956.560700       0.081408
     8964.589900       0.083471
     8972.633500       0.085554
     8980.691500       0.087659
     8988.764000       0.089785
     8996.851100       0.091931
     9004.952700       0.094099
     9013.068900       0.096288
     9021.199800       0.098499
     9029.345400       0.100730
     9037.505600       0.102983
     9045.680700       0.105258
     9053.870500       0.107554
     9062.075200       0.109872
     9070.294800       0.112212
     9078.529300       0.114574
     9086.778700       0.116957
     9095.043200       0.119363
     9103.322700       0.121791
     9111.617300       0.124241
     9119.927000       0.126713
     9128.251900       0.129208
     9136.592100       0.131725
     9144.947400       0.134265
     9153.318100       0.136827
     9161.704100       0.139412
     9170.105500       0.142020
     9178.522300       0.144651
     9186.954500       0.147304
     9195.402300       0.149981
     9203.865600       0.152681
     9212.344500       0.155404
     9220.839100       0.158151
     9229.349300       0.160920
     9237.875300       0.163713
     9246.417000       0.166530
     9254.974500       0.169370
     9263.547900       0.172233
     9272.137200       0.175120
     9280.742500       0.178031
     9289.363700       0.180965
     9298.000900       0.183923
     9306.654300       0.186905
     9315.323700       0.189910
     9324.009300       0.192940
     9332.711200       0.195993
     9341.429200       0.199069
     9350.163600       0.202170
     9358.914400       0.205294
     9367.681500       0.208442
     9376.465100       0.211614
     9385.265100       0.214809
     9394.081700       0.218029
     9402.914900       0.221271
     9411.764700       0.224538
     9420.631200       0.227828
     9429.514400       0.231141
     9438.414300       0.234479
     9447.331100       0.237839
     9456.264800       0.241223
     9465.215300       0.244630
     9474.182900       0.248060
     9483.167400       0.251513
     9492.169000       0.254990
     9501.187600       0.258489
     9510.223500       0.262011
     9519.276500       0.265556
     9528.346800       0.269123
     9537.434400       0.272713
     9546.539400       0.276325
     9555.661700       0.279959
     9564.801500       0.283615
     9573.958800       0.287294
     9583.133700       0.290994
     9592.326100       0.294715
     9601.536200       0.298458
     9610.764100       0.302221
     9620.009600       0.306007
     9629.273000       0.309813
     9638.554200       0.313639
     9647.853400       0.317486
     9657.170400       0.321352
     9666.505600       0.325240
     9675.858700       0.329147
     9685.230000       0.333073
     9694.619500       0.337019
     9704.027200       0.340983
     9713.453100       0.344967
     9722.897400       0.348969
     9732.360100       0.352989
     9741.841200       0.357028
     9751.340800       0.361084
     9760.859000       0.365158
     9770.395700       0.369249
     9779.951100       0.373356
     9789.525200       0.377481
     9799.118100       0.381622
     9808.729800       0.385778
     9818.360300       0.389951
     9828.009800       0.394138
     9837.678300       0.398341
     9847.365800       0.402559
     9857.072400       0.406790
     9866.798200       0.411036
     9876.543200       0.415296
     9886.307500       0.419569
     9896.091000       0.423855
     9905.894000       0.428153
     9915.716400       0.432464
     9925.558300       0.436787
     9935.419800       0.441121
     9945.300800       0.445467
     9955.201600       0.449823
     9965.122100       0.454190
     9975.062300       0.458566
     9985.022500       0.462952
     9995.002500       0.467348
    10005.002500       0.471752
    10015.022500       0.476164
    10025.062700       0.480584
    10035.122900       0.485012
    10045.203400       0.489447
    10055.304200       0.493889
    10065.425300       0.498338
    10075.566800       0.502791
    10085.728700       0.507251
    10095.911200       0.511715
    10106.114200       0.516184
    10116.337900       0.520657
    10126.582300       0.525134
    10136.847400       0.529614
    10147.133400       0.534096
    10157.440300       0.538581
    10167.768200       0.543068
    10178.117000       0.547556
    10188.487000       0.552045
    10198.878100       0.556535
    10209.290500       0.561025
    10219.724100       0.565514
    10230.179000       0.570002
    10240.655400       0.574490
    10251.153300       0.578975
    10261.672700       0.583457
    10272.213700       0.587937
    10282.776300       0.592414
    10293.360800       0.596887
    10303.967000       0.601356
    10314.595200       0.605820
    10325.245200       0.610279
    10335.917300       0.614733
    10346.611500       0.619180
    10357.327800       0.623621
    10368.066400       0.628054
    10378.827200       0.632480
    10389.610400       0.636899
    10400.416000       0.641308
    10411.244100       0.645709
    10422.094800       0.650100
    10432.968200       0.654481
    10443.864200       0.658853
    10454.783100       0.663213
    10465.724800       0.667561
    10476.689400       0.671898
    10487.677000       0.676223
    10498.687700       0.680535
    10509.721500       0.684833
    10520.778500       0.689118
    10531.858900       0.693389
    10542.962600       0.697645
    10554.089700       0.701886
    10565.240400       0.706112
    10576.414600       0.710321
    10587.612500       0.714514
    10598.834100       0.718691
    10610.079600       0.722849
    10621.348900       0.726990
    10632.642200       0.731113
    10643.959600       0.735217
    10655.301000       0.739302
    10666.666700       0.743367
    10678.056600       0.747412
    10689.470900       0.751436
    10700.909600       0.755440
    10712.372800       0.759423
    10723.860600       0.763383
    10735.373100       0.767321
    10746.910300       0.771237
    10758.472300       0.775130
    10770.059200       0.778999
    10781.671200       0.782845
    10793.308100       0.786666
    10804.970300       0.790462
    10816.657700       0.794234
    10828.370300       0.797980
    10840.108400       0.801700
    10851.871900       0.805394
    10863.661100       0.809061
    10875.475800       0.812701
    10887.316300       0.816314
    10899.182600       0.819899
    10911.074700       0.823456
    10922.992900       0.826985
    10934.937100       0.830485
    10946.907500       0.833955
    10958.904100       0.837396
    10970.927000       0.840808
    10982.976400       0.844189
    10995.052200       0.847539
    11007.154700       0.850859
    11019.283700       0.854147
    11031.439600       0.857405
    11043.622300       0.860630
    11055.832000       0.863823
    11068.068600       0.866984
    11080.332400       0.870112
    11092.623400       0.873207
    11104.941700       0.876269
    11117.287400       0.879297
    11129.660500       0.882292
    11142.061300       0.885252
    11154.489700       0.888178
    11166.945800       0.891070
    11179.429800       0.893926
    11191.941800       0.896748
    11204.481800       0.899534
    11217.049900       0.902285
    11229.646300       0.905000
    11242.270900       0.907679
    11254.924000       0.910322
    11267.605600       0.912929
    11280.315800       0.915499
    11293.054800       0.918032
    11305.822500       0.920528
    11318.619100       0.922987
    11331.444800       0.925408
    11344.299500       0.927793
    11357.183400       0.930139
    11370.096600       0.932448
    11383.039300       0.934719
    11396.011400       0.936951
    11409.013100       0.939146
    11422.044500       0.941302
    11435.105800       0.943420
    11448.196900       0.945499
    11461.318100       0.947539
    11474.469300       0.949541
    11487.650800       0.951503
    11500.862600       0.953427
    11514.104800       0.955312
    11527.377500       0.957157
    11540.680900       0.958964
    11554.015000       0.960731
    11567.380000       0.962459
    11580.775900       0.964147
    11594.202900       0.965796
    11607.661100       0.967406
    11621.150500       0.968976
    11634.671300       0.970507
    11648.223600       0.971998
    11661.807600       0.973450
    11675.423200       0.974862
    11689.070700       0.976235
    11702.750100       0.977569
    11716.461600       0.978863
    11730.205300       0.980117
    11743.981200       0.981333
    11757.789500       0.982509
    11771.630400       0.983645
    11785.503800       0.984743
    11799.410000       0.985801
    11813.349100       0.986820
    11827.321100       0.987800
    11841.326200       0.988741
    11855.364600       0.989644
    11869.436200       0.990508
    11883.541300       0.991333
    11897.680000       0.992119
    11911.852300       0.992867
    11926.058400       0.993577
    11940.298500       0.994249
    11954.572600       0.994883
    11968.880900       0.995478
    11983.223500       0.996036
    11997.600500       0.996557
    12012.012000       0.997040
    12026.458200       0.997486
    12040.939200       0.997895
    12055.455100       0.998266
    12070.006000       0.998602
    12084.592100       0.998900
    12099.213600       0.999163
    12113.870400       0.999389
    12128.562800       0.999579
    12143.290800       0.999734
    12158.054700       0.999853
    12172.854500       0.999937
    12187.690400       0.999986
    12202.562500       1.000000
    12217.471000       0.999980
    12232.415900       0.999925
    12247.397400       0.999837
    12262.415700       0.999714
    12277.470800       0.999558
    12292.563000       0.999369
    12307.692300       0.999147
    12322.858900       0.998893
    12338.062900       0.998606
    12353.304500       0.998287
    12368.583800       0.997936
    12383.900900       0.997554
    12399.256000       0.997141
    12414.649300       0.996697
    12430.080800       0.996222
    12445.550700       0.995717
    12461.059200       0.995183
    12476.606400       0.994618
    12492.192400       0.994025
    12507.817400       0.993403
    12523.481500       0.992752
    12539.185000       0.992073
    12554.927800       0.991366
    12570.710200       0.990632
    12586.532400       0.989871
    12602.394500       0.989083
    12618.296500       0.988269
    12634.238800       0.987429
    12650.221400       0.986563
    12666.244500       0.985672
    12682.308200       0.984757
    12698.412700       0.983817
    12714.558200       0.982852
    12730.744700       0.981865
    12746.972600       0.980854
    12763.241900       0.979820
    12779.552700       0.978764
    12795.905300       0.977685
    12812.299800       0.976585
    12828.736400       0.975464
    12845.215200       0.974323
    12861.736300       0.973160
    12878.300100       0.971978
    12894.906500       0.970777
    12911.555800       0.969556
    12928.248200       0.968317
    12944.983800       0.967059
    12961.762800       0.965784
    12978.585300       0.964491
    12995.451600       0.963182
    13012.361700       0.961856
    13029.316000       0.960514
    13046.314400       0.959156
    13063.357300       0.957783
    13080.444700       0.956396
    13097.576900       0.954994
    13114.754100       0.953579
    13131.976400       0.952150
    13149.243900       0.950708
    13166.556900       0.949254
    13183.915600       0.947788
    13201.320100       0.946310
    13218.770700       0.944821
    13236.267400       0.943321
    13253.810500       0.941812
    13271.400100       0.940292
    13289.036500       0.938763
    13306.719900       0.937226
    13324.450400       0.935680
    13342.228200       0.934126
    13360.053400       0.932564
    13377.926400       0.930996
    13395.847300       0.929421
    13413.816200       0.927840
    13431.833400       0.926253
    13449.899100       0.924661
    13468.013500       0.923064
    13486.176700       0.921463
    13504.388900       0.919857
    13522.650400       0.918249
    13540.961400       0.916637
    13559.322000       0.915023
    13577.732500       0.913407
    13596.193100       0.911789
    13614.703900       0.910170
    13633.265200       0.908549
    13651.877100       0.906929
    13670.540000       0.905309
    13689.253900       0.903689
    13708.019200       0.902070
    13726.836000       0.900452
    13745.704500       0.898836
    13764.624900       0.897222
    13783.597500       0.895611
    13802.622500       0.894003
    13821.700100       0.892398
    13840.830400       0.890797
    13860.013900       0.889200
    13879.250500       0.887607
    13898.540700       0.886020
    13917.884500       0.884438
    13937.282200       0.882862
    13956.734100       0.881292
    13976.240400       0.879728
    13995.801300       0.878172
    14015.417000       0.876623
    14035.087700       0.875081
    14054.813800       0.873547
    14074.595400       0.872022
    14094.432700       0.870506
    14114.326000       0.868998
    14134.275600       0.867500
    14154.281700       0.866012
    14174.344400       0.864534
    14194.464200       0.863066
    14214.641100       0.861609
    14234.875400       0.860163
    14255.167500       0.858729
    14275.517500       0.857306
    14295.925700       0.855895
    14316.392300       0.854497
    14336.917600       0.853111
    14357.501800       0.851738
    14378.145200       0.850378
    14398.848100       0.849032
    14419.610700       0.847700
    14440.433200       0.846381
    14461.316000       0.845077
    14482.259200       0.843787
    14503.263200       0.842512
    14524.328200       0.841252
    14545.454500       0.840007
    14566.642400       0.838777
    14587.892000       0.837564
    14609.203800       0.836366
    14630.577900       0.835184
    14652.014700       0.834018
    14673.514300       0.832869
    14695.077100       0.831737
    14716.703500       0.830621
    14738.393500       0.829523
    14760.147600       0.828441
    14781.966000       0.827377
    14803.849000       0.826330
    14825.796900       0.825301
    14847.809900       0.824290
    14869.888500       0.823297
    14892.032800       0.822321
    14914.243100       0.821364
    14936.519800       0.820425
    14958.863100       0.819504
    14981.273400       0.818601
    15003.750900       0.817717
    15026.296000       0.816852
    15048.909000       0.816005
    15071.590100       0.815177
    15094.339600       0.814367
    15117.158000       0.813576
    15140.045400       0.812804
    15163.002300       0.812051
    15186.028900       0.811316
    15209.125500       0.810601
    15232.292500       0.809904
    15255.530100       0.809226
    15278.838800       0.808566
    15302.218800       0.807925
    15325.670500       0.807303
    15349.194200       0.806700
    15372.790200       0.806115
    15396.458800       0.805549
    15420.200500       0.805001
    15444.015400       0.804471
    15467.904100       0.803960
    15491.866800       0.803467
    15515.903800       0.802992
    15540.015500       0.802535
    15564.202300       0.802095
    15588.464500       0.801673
    15612.802500       0.801269
    15637.216600       0.800882
    15661.707100       0.800513
    15686.274500       0.800160
    15710.919100       0.799824
    15735.641200       0.799505
    15760.441300       0.799202
    15785.319700       0.798916
    15810.276700       0.798646
    15835.312700       0.798391
    15860.428200       0.798152
    15885.623500       0.797928
    15910.899000       0.797719
    15936.255000       0.797525
    15961.691900       0.797346
    15987.210200       0.797180
    16012.810200       0.797029
    16038.492400       0.796892
    16064.257000       0.796767
    16090.104600       0.796656
    16116.035500       0.796557
    16142.050000       0.796471
    16168.148700       0.796397
    16194.332000       0.796334
    16220.600200       0.796283
    16246.953700       0.796242
    16273.393000       0.796212
    16299.918500       0.796193
    16326.530600       0.796183
    16353.229800       0.796182
    16380.016400       0.796190
    16406.890900       0.796207
    16433.853700       0.796232
    16460.905300       0.796264
    16488.046200       0.796304
    16515.276600       0.796351
    16542.597200       0.796403
    16570.008300       0.796462
    16597.510400       0.796525
    16625.103900       0.796594
    16652.789300       0.796667
    16680.567100       0.796744
    16708.437800       0.796824
    16736.401700       0.796907
    16764.459300       0.796992
    16792.611300       0.797079
    16820.857900       0.797167
    16849.199700       0.797255
    16877.637100       0.797344
    16906.170800       0.797432
    16934.801000       0.797519
    16963.528400       0.797605
    16992.353400       0.797688
    17021.276600       0.797769
    17050.298400       0.797846
    17079.419300       0.797919
    17108.639900       0.797988
    17137.960600       0.798051
    17167.382000       0.798108
    17196.904600       0.798159
    17226.528900       0.798203
    17256.255400       0.798238
    17286.084700       0.798266
    17316.017300       0.798284
    17346.053800       0.798293
    17376.194600       0.798291
    17406.440400       0.798278
    17436.791600       0.798254
    17467.248900       0.798217
    17497.812800       0.798167
    17528.483800       0.798103
    17559.262500       0.798024
    17590.149500       0.797931
    17621.145400       0.797821
    17652.250700       0.797695
    17683.466000       0.797552
    17714.791900       0.797391
    17746.228900       0.797211
    17777.777800       0.797011
    17809.439000       0.796792
    17841.213200       0.796551
    17873.101000       0.796289
    17905.103000       0.796004
    17937.219700       0.795697
    17969.451900       0.795366
    18001.800200       0.795010
    18034.265100       0.794628
    18066.847300       0.794221
    18099.547500       0.793787
    18132.366300       0.793326
    18165.304300       0.792836
    18198.362100       0.792318
    18231.540600       0.791770
    18264.840200       0.791191
    18298.261700       0.790581
    18331.805700       0.789939
    18365.472900       0.789265
    18399.264000       0.788557
    18433.179700       0.787815
    18467.220700       0.787038
    18501.387600       0.786225
    18535.681200       0.785376
    18570.102100       0.784490
    18604.651200       0.783566
    18639.329000       0.782604
    18674.136300       0.781602
    18709.073900       0.780561
    18744.142500       0.779478
    18779.342700       0.778354
    18814.675400       0.777189
    18850.141400       0.775980
    18885.741300       0.774728
    18921.475900       0.773431
    18957.346000       0.772090
    18993.352300       0.770703
    19029.495700       0.769269
    19065.776900       0.767789
    19102.196800       0.766261
    19138.756000       0.764685
    19175.455400       0.763060
    19212.295900       0.761385
    19249.278200       0.759660
    19286.403100       0.757884
    19323.671500       0.756057
    19361.084200       0.754178
    19398.642100       0.752246
    19436.346000       0.750260
    19474.196700       0.748221
    19512.195100       0.746127
    19550.342100       0.743978
    19588.638600       0.741774
    19627.085400       0.739513
    19665.683400       0.737195
    19704.433500       0.734821
    19743.336600       0.732389
    19782.393700       0.729898
    19821.605600       0.727349
    19860.973200       0.724740
    19900.497500       0.722072
    19940.179500       0.719344
    19980.020000       0.716555
    20020.020000       0.713705
    20060.180500       0.710794
    20100.502500       0.707821
    20140.986900       0.704786
    20181.634700       0.701688
    20222.446900       0.698528
    20263.424500       0.695304
    20304.568500       0.692017
    20345.880000       0.688666
    20387.359800       0.685251
    20429.009200       0.681772
    20470.829100       0.678228
    20512.820500       0.674620
    20554.984600       0.670946
    20597.322300       0.667207
    20639.834900       0.663403
    20682.523300       0.659534
    20725.388600       0.655598
    20768.432000       0.651598
    20811.654500       0.647531
    20855.057400       0.643399
    20898.641600       0.639201
    20942.408400       0.634937
    20986.358900       0.630607
    21030.494200       0.626211
    21074.815600       0.621750
    21119.324200       0.617223
    21164.021200       0.612631
    21208.907700       0.607973
    21253.985100       0.603250
    21299.254500       0.598462
    21344.717200       0.593609
    21390.374300       0.588692
    21436.227200       0.583710
    21482.277100       0.578665
    21528.525300       0.573556
    21574.973000       0.568383
    21621.621600       0.563148
    21668.472400       0.557851
    21715.526600       0.552491
    21762.785600       0.547070
    21810.250800       0.541588
    21857.923500       0.536046
    21905.805000       0.530444
    21953.896800       0.524782
    22002.200200       0.519063
    22050.716600       0.513285
    22099.447500       0.507450
    22148.394200       0.501559
    22197.558300       0.495612
    22246.941000       0.489610
    22296.544000       0.483555
    22346.368700       0.477447
    22396.416600       0.471286
    22446.689100       0.465075
    22497.187900       0.458813
    22547.914300       0.452503
    22598.870100       0.446145
    22650.056600       0.439740
    22701.475600       0.433289
    22753.128600       0.426795
    22805.017100       0.420257
    22857.142900       0.413677
    22909.507400       0.407057
    22962.112500       0.400398
    23014.959700       0.393702
    23068.050700       0.386969
    23121.387300       0.380202
    23174.971000       0.373402
    23228.803700       0.366570
    23282.887100       0.359709
    23337.222900       0.352820
    23391.812900       0.345905
    23446.658900       0.338965
    23501.762600       0.332003
    23557.126000       0.325020
    23612.750900       0.318019
    23668.639100       0.311001
    23724.792400       0.303968
    23781.212800       0.296924
    23837.902300       0.289868
    23894.862600       0.282805
    23952.095800       0.275736
    24009.603800       0.268663
    24067.388700       0.261589
    24125.452400       0.254517
    24183.796900       0.247449
    24242.424200       0.240387
    24301.336600       0.233334
    24360.535900       0.226292
    24420.024400       0.219265
    24479.804200       0.212255
    24539.877300       0.205266
    24600.246000       0.198299
    24660.912500       0.191358
    24721.878900       0.184446
    24783.147500       0.177566
    24844.720500       0.170721
    24906.600200       0.163915
    24968.789000       0.157150
    25031.289100       0.150430
    25094.102900       0.143758
    25157.232700       0.137139
    25220.681000       0.130574
    25284.450100       0.124069
    25348.542500       0.117626
    25412.960600       0.111249
    25477.707000       0.104943
