130,   130, MVIRI VIS channel from srf_MET7_2013303_2013304_1801-Release_S10EE_10.dat
Number of data points:
793
Wavenumber (cm-1)   Filter response
     8442.380800       0.000000
     8449.514200       0.000000
     8456.659600       0.000004
     8463.817200       0.000057
     8470.986900       0.000168
     8478.168700       0.000336
     8485.362700       0.000559
     8492.569000       0.000836
     8499.787500       0.001165
     8507.018300       0.001544
     8514.261400       0.001972
     8521.516800       0.002448
     8528.784600       0.002970
     8536.064900       0.003538
     8543.357500       0.004148
     8550.662700       0.004802
     8557.980300       0.005497
     8565.310500       0.006231
     8572.653200       0.007005
     8580.008600       0.007818
     8587.376600       0.008667
     8594.757200       0.009552
     8602.150500       0.010473
     8609.556600       0.011428
     8616.975400       0.012416
     8624.407100       0.013437
     8631.851500       0.014490
     8639.308900       0.015574
     8646.779100       0.016689
     8654.262200       0.017833
     8661.758300       0.019006
     8669.267400       0.020209
     8676.789600       0.021439
     8684.324800       0.022696
     8691.873100       0.023981
     8699.434500       0.025292
     8707.009100       0.026628
     8714.596900       0.027991
     8722.198000       0.029378
     8729.812300       0.030790
     8737.439900       0.032227
     8745.080900       0.033687
     8752.735200       0.035171
     8760.403000       0.036679
     8768.084200       0.038209
     8775.778900       0.039763
     8783.487000       0.041339
     8791.208800       0.042937
     8798.944100       0.044557
     8806.693100       0.046200
     8814.455700       0.047864
     8822.232000       0.049550
     8830.022100       0.051257
     8837.825900       0.052986
     8845.643500       0.054736
     8853.475000       0.056507
     8861.320300       0.058299
     8869.179600       0.060112
     8877.052800       0.061946
     8884.940000       0.063801
     8892.841300       0.065677
     8900.756600       0.067573
     8908.686000       0.069491
     8916.629500       0.071429
     8924.587200       0.073388
     8932.559200       0.075368
     8940.545400       0.077368
     8948.545900       0.079390
     8956.560700       0.081432
     8964.589900       0.083495
     8972.633500       0.085579
     8980.691500       0.087684
     8988.764000       0.089811
     8996.851100       0.091958
     9004.952700       0.094126
     9013.068900       0.096316
     9021.199800       0.098527
     9029.345400       0.100759
     9037.505600       0.103013
     9045.680700       0.105288
     9053.870500       0.107585
     9062.075200       0.109903
     9070.294800       0.112244
     9078.529300       0.114606
     9086.778700       0.116990
     9095.043200       0.119397
     9103.322700       0.121825
     9111.617300       0.124276
     9119.927000       0.126748
     9128.251900       0.129244
     9136.592100       0.131761
     9144.947400       0.134302
     9153.318100       0.136865
     9161.704100       0.139450
     9170.105500       0.142059
     9178.522300       0.144690
     9186.954500       0.147345
     9195.402300       0.150022
     9203.865600       0.152722
     9212.344500       0.155446
     9220.839100       0.158193
     9229.349300       0.160963
     9237.875300       0.163757
     9246.417000       0.166574
     9254.974500       0.169415
     9263.547900       0.172279
     9272.137200       0.175167
     9280.742500       0.178078
     9289.363700       0.181013
     9298.000900       0.183972
     9306.654300       0.186954
     9315.323700       0.189960
     9324.009300       0.192990
     9332.711200       0.196044
     9341.429200       0.199121
     9350.163600       0.202222
     9358.914400       0.205347
     9367.681500       0.208496
     9376.465100       0.211668
     9385.265100       0.214864
     9394.081700       0.218084
     9402.914900       0.221327
     9411.764700       0.224595
     9420.631200       0.227885
     9429.514400       0.231199
     9438.414300       0.234537
     9447.331100       0.237898
     9456.264800       0.241283
     9465.215300       0.244691
     9474.182900       0.248121
     9483.167400       0.251575
     9492.169000       0.255052
     9501.187600       0.258552
     9510.223500       0.262075
     9519.276500       0.265620
     9528.346800       0.269188
     9537.434400       0.272779
     9546.539400       0.276391
     9555.661700       0.280027
     9564.801500       0.283683
     9573.958800       0.287362
     9583.133700       0.291063
     9592.326100       0.294785
     9601.536200       0.298528
     9610.764100       0.302293
     9620.009600       0.306078
     9629.273000       0.309885
     9638.554200       0.313712
     9647.853400       0.317559
     9657.170400       0.321427
     9666.505600       0.325315
     9675.858700       0.329222
     9685.230000       0.333149
     9694.619500       0.337095
     9704.027200       0.341061
     9713.453100       0.345045
     9722.897400       0.349048
     9732.360100       0.353069
     9741.841200       0.357108
     9751.340800       0.361164
     9760.859000       0.365239
     9770.395700       0.369330
     9779.951100       0.373438
     9789.525200       0.377564
     9799.118100       0.381705
     9808.729800       0.385862
     9818.360300       0.390035
     9828.009800       0.394223
     9837.678300       0.398427
     9847.365800       0.402645
     9857.072400       0.406877
     9866.798200       0.411124
     9876.543200       0.415384
     9886.307500       0.419657
     9896.091000       0.423944
     9905.894000       0.428243
     9915.716400       0.432554
     9925.558300       0.436877
     9935.419800       0.441212
     9945.300800       0.445559
     9955.201600       0.449915
     9965.122100       0.454282
     9975.062300       0.458659
     9985.022500       0.463046
     9995.002500       0.467442
    10005.002500       0.471846
    10015.022500       0.476259
    10025.062700       0.480680
    10035.122900       0.485108
    10045.203400       0.489544
    10055.304200       0.493986
    10065.425300       0.498435
    10075.566800       0.502889
    10085.728700       0.507349
    10095.911200       0.511814
    10106.114200       0.516283
    10116.337900       0.520756
    10126.582300       0.525233
    10136.847400       0.529713
    10147.133400       0.534197
    10157.440300       0.538682
    10167.768200       0.543169
    10178.117000       0.547657
    10188.487000       0.552147
    10198.878100       0.556637
    10209.290500       0.561127
    10219.724100       0.565616
    10230.179000       0.570105
    10240.655400       0.574592
    10251.153300       0.579078
    10261.672700       0.583561
    10272.213700       0.588041
    10282.776300       0.592518
    10293.360800       0.596991
    10303.967000       0.601460
    10314.595200       0.605925
    10325.245200       0.610384
    10335.917300       0.614838
    10346.611500       0.619285
    10357.327800       0.623726
    10368.066400       0.628160
    10378.827200       0.632586
    10389.610400       0.637004
    10400.416000       0.641414
    10411.244100       0.645815
    10422.094800       0.650206
    10432.968200       0.654587
    10443.864200       0.658959
    10454.783100       0.663319
    10465.724800       0.667667
    10476.689400       0.672004
    10487.677000       0.676329
    10498.687700       0.680641
    10509.721500       0.684939
    10520.778500       0.689224
    10531.858900       0.693495
    10542.962600       0.697751
    10554.089700       0.701992
    10565.240400       0.706218
    10576.414600       0.710427
    10587.612500       0.714620
    10598.834100       0.718796
    10610.079600       0.722955
    10621.348900       0.727096
    10632.642200       0.731218
    10643.959600       0.735322
    10655.301000       0.739406
    10666.666700       0.743471
    10678.056600       0.747516
    10689.470900       0.751541
    10700.909600       0.755544
    10712.372800       0.759526
    10723.860600       0.763486
    10735.373100       0.767425
    10746.910300       0.771340
    10758.472300       0.775233
    10770.059200       0.779101
    10781.671200       0.782947
    10793.308100       0.786767
    10804.970300       0.790564
    10816.657700       0.794335
    10828.370300       0.798080
    10840.108400       0.801800
    10851.871900       0.805493
    10863.661100       0.809160
    10875.475800       0.812800
    10887.316300       0.816412
    10899.182600       0.819997
    10911.074700       0.823554
    10922.992900       0.827082
    10934.937100       0.830581
    10946.907500       0.834051
    10958.904100       0.837492
    10970.927000       0.840903
    10982.976400       0.844283
    10995.052200       0.847633
    11007.154700       0.850952
    11019.283700       0.854240
    11031.439600       0.857497
    11043.622300       0.860721
    11055.832000       0.863914
    11068.068600       0.867074
    11080.332400       0.870202
    11092.623400       0.873296
    11104.941700       0.876357
    11117.287400       0.879385
    11129.660500       0.882378
    11142.061300       0.885338
    11154.489700       0.888264
    11166.945800       0.891154
    11179.429800       0.894010
    11191.941800       0.896831
    11204.481800       0.899617
    11217.049900       0.902367
    11229.646300       0.905081
    11242.270900       0.907759
    11254.924000       0.910401
    11267.605600       0.913007
    11280.315800       0.915576
    11293.054800       0.918108
    11305.822500       0.920603
    11318.619100       0.923062
    11331.444800       0.925482
    11344.299500       0.927866
    11357.183400       0.930211
    11370.096600       0.932519
    11383.039300       0.934789
    11396.011400       0.937021
    11409.013100       0.939214
    11422.044500       0.941369
    11435.105800       0.943486
    11448.196900       0.945564
    11461.318100       0.947603
    11474.469300       0.949604
    11487.650800       0.951566
    11500.862600       0.953488
    11514.104800       0.955372
    11527.377500       0.957217
    11540.680900       0.959022
    11554.015000       0.960788
    11567.380000       0.962515
    11580.775900       0.964202
    11594.202900       0.965850
    11607.661100       0.967459
    11621.150500       0.969028
    11634.671300       0.970558
    11648.223600       0.972048
    11661.807600       0.973498
    11675.423200       0.974910
    11689.070700       0.976281
    11702.750100       0.977614
    11716.461600       0.978906
    11730.205300       0.980160
    11743.981200       0.981374
    11757.789500       0.982549
    11771.630400       0.983684
    11785.503800       0.984780
    11799.410000       0.985837
    11813.349100       0.986855
    11827.321100       0.987834
    11841.326200       0.988774
    11855.364600       0.989675
    11869.436200       0.990538
    11883.541300       0.991362
    11897.680000       0.992147
    11911.852300       0.992894
    11926.058400       0.993602
    11940.298500       0.994273
    11954.572600       0.994905
    11968.880900       0.995500
    11983.223500       0.996056
    11997.600500       0.996576
    12012.012000       0.997057
    12026.458200       0.997502
    12040.939200       0.997909
    12055.455100       0.998280
    12070.006000       0.998614
    12084.592100       0.998911
    12099.213600       0.999172
    12113.870400       0.999397
    12128.562800       0.999586
    12143.290800       0.999739
    12158.054700       0.999857
    12172.854500       0.999940
    12187.690400       0.999987
    12202.562500       1.000000
    12217.471000       0.999978
    12232.415900       0.999922
    12247.397400       0.999832
    12262.415700       0.999709
    12277.470800       0.999552
    12292.563000       0.999361
    12307.692300       0.999138
    12322.858900       0.998882
    12338.062900       0.998594
    12353.304500       0.998273
    12368.583800       0.997921
    12383.900900       0.997538
    12399.256000       0.997123
    12414.649300       0.996677
    12430.080800       0.996201
    12445.550700       0.995695
    12461.059200       0.995159
    12476.606400       0.994593
    12492.192400       0.993999
    12507.817400       0.993375
    12523.481500       0.992723
    12539.185000       0.992043
    12554.927800       0.991335
    12570.710200       0.990599
    12586.532400       0.989836
    12602.394500       0.989047
    12618.296500       0.988232
    12634.238800       0.987390
    12650.221400       0.986523
    12666.244500       0.985631
    12682.308200       0.984713
    12698.412700       0.983772
    12714.558200       0.982806
    12730.744700       0.981817
    12746.972600       0.980805
    12763.241900       0.979770
    12779.552700       0.978712
    12795.905300       0.977632
    12812.299800       0.976531
    12828.736400       0.975409
    12845.215200       0.974265
    12861.736300       0.973102
    12878.300100       0.971918
    12894.906500       0.970715
    12911.555800       0.969493
    12928.248200       0.968253
    12944.983800       0.966994
    12961.762800       0.965717
    12978.585300       0.964423
    12995.451600       0.963112
    13012.361700       0.961785
    13029.316000       0.960441
    13046.314400       0.959082
    13063.357300       0.957708
    13080.444700       0.956319
    13097.576900       0.954916
    13114.754100       0.953499
    13131.976400       0.952069
    13149.243900       0.950626
    13166.556900       0.949170
    13183.915600       0.947703
    13201.320100       0.946224
    13218.770700       0.944733
    13236.267400       0.943233
    13253.810500       0.941721
    13271.400100       0.940201
    13289.036500       0.938670
    13306.719900       0.937131
    13324.450400       0.935584
    13342.228200       0.934029
    13360.053400       0.932466
    13377.926400       0.930896
    13395.847300       0.929320
    13413.816200       0.927737
    13431.833400       0.926149
    13449.899100       0.924556
    13468.013500       0.922957
    13486.176700       0.921355
    13504.388900       0.919748
    13522.650400       0.918138
    13540.961400       0.916526
    13559.322000       0.914910
    13577.732500       0.913292
    13596.193100       0.911673
    13614.703900       0.910053
    13633.265200       0.908431
    13651.877100       0.906810
    13670.540000       0.905188
    13689.253900       0.903567
    13708.019200       0.901946
    13726.836000       0.900327
    13745.704500       0.898710
    13764.624900       0.897095
    13783.597500       0.895482
    13802.622500       0.893873
    13821.700100       0.892267
    13840.830400       0.890664
    13860.013900       0.889066
    13879.250500       0.887472
    13898.540700       0.885884
    13917.884500       0.884301
    13937.282200       0.882723
    13956.734100       0.881152
    13976.240400       0.879587
    13995.801300       0.878029
    14015.417000       0.876479
    14035.087700       0.874936
    14054.813800       0.873401
    14074.595400       0.871874
    14094.432700       0.870356
    14114.326000       0.868848
    14134.275600       0.867348
    14154.281700       0.865859
    14174.344400       0.864380
    14194.464200       0.862911
    14214.641100       0.861452
    14234.875400       0.860005
    14255.167500       0.858569
    14275.517500       0.857145
    14295.925700       0.855733
    14316.392300       0.854334
    14336.917600       0.852947
    14357.501800       0.851572
    14378.145200       0.850211
    14398.848100       0.848864
    14419.610700       0.847530
    14440.433200       0.846210
    14461.316000       0.844904
    14482.259200       0.843613
    14503.263200       0.842337
    14524.328200       0.841076
    14545.454500       0.839829
    14566.642400       0.838599
    14587.892000       0.837384
    14609.203800       0.836184
    14630.577900       0.835001
    14652.014700       0.833834
    14673.514300       0.832684
    14695.077100       0.831550
    14716.703500       0.830433
    14738.393500       0.829333
    14760.147600       0.828251
    14781.966000       0.827185
    14803.849000       0.826137
    14825.796900       0.825107
    14847.809900       0.824094
    14869.888500       0.823099
    14892.032800       0.822123
    14914.243100       0.821164
    14936.519800       0.820223
    14958.863100       0.819301
    14981.273400       0.818397
    15003.750900       0.817512
    15026.296000       0.816645
    15048.909000       0.815797
    15071.590100       0.814967
    15094.339600       0.814156
    15117.158000       0.813364
    15140.045400       0.812590
    15163.002300       0.811836
    15186.028900       0.811100
    15209.125500       0.810383
    15232.292500       0.809684
    15255.530100       0.809005
    15278.838800       0.808344
    15302.218800       0.807702
    15325.670500       0.807078
    15349.194200       0.806473
    15372.790200       0.805887
    15396.458800       0.805319
    15420.200500       0.804770
    15444.015400       0.804239
    15467.904100       0.803726
    15491.866800       0.803231
    15515.903800       0.802755
    15540.015500       0.802296
    15564.202300       0.801855
    15588.464500       0.801432
    15612.802500       0.801026
    15637.216600       0.800638
    15661.707100       0.800266
    15686.274500       0.799912
    15710.919100       0.799575
    15735.641200       0.799254
    15760.441300       0.798950
    15785.319700       0.798662
    15810.276700       0.798390
    15835.312700       0.798133
    15860.428200       0.797893
    15885.623500       0.797667
    15910.899000       0.797457
    15936.255000       0.797261
    15961.691900       0.797080
    15987.210200       0.796913
    16012.810200       0.796760
    16038.492400       0.796621
    16064.257000       0.796495
    16090.104600       0.796382
    16116.035500       0.796281
    16142.050000       0.796193
    16168.148700       0.796117
    16194.332000       0.796053
    16220.600200       0.796000
    16246.953700       0.795958
    16273.393000       0.795926
    16299.918500       0.795905
    16326.530600       0.795893
    16353.229800       0.795891
    16380.016400       0.795897
    16406.890900       0.795912
    16433.853700       0.795935
    16460.905300       0.795966
    16488.046200       0.796004
    16515.276600       0.796048
    16542.597200       0.796099
    16570.008300       0.796156
    16597.510400       0.796218
    16625.103900       0.796285
    16652.789300       0.796356
    16680.567100       0.796431
    16708.437800       0.796509
    16736.401700       0.796590
    16764.459300       0.796673
    16792.611300       0.796758
    16820.857900       0.796844
    16849.199700       0.796931
    16877.637100       0.797018
    16906.170800       0.797104
    16934.801000       0.797189
    16963.528400       0.797273
    16992.353400       0.797354
    17021.276600       0.797433
    17050.298400       0.797508
    17079.419300       0.797579
    17108.639900       0.797646
    17137.960600       0.797707
    17167.382000       0.797763
    17196.904600       0.797812
    17226.528900       0.797853
    17256.255400       0.797887
    17286.084700       0.797913
    17316.017300       0.797929
    17346.053800       0.797936
    17376.194600       0.797932
    17406.440400       0.797918
    17436.791600       0.797891
    17467.248900       0.797852
    17497.812800       0.797800
    17528.483800       0.797734
    17559.262500       0.797654
    17590.149500       0.797559
    17621.145400       0.797447
    17652.250700       0.797319
    17683.466000       0.797174
    17714.791900       0.797011
    17746.228900       0.796829
    17777.777800       0.796627
    17809.439000       0.796406
    17841.213200       0.796163
    17873.101000       0.795899
    17905.103000       0.795613
    17937.219700       0.795304
    17969.451900       0.794971
    18001.800200       0.794613
    18034.265100       0.794230
    18066.847300       0.793821
    18099.547500       0.793385
    18132.366300       0.792922
    18165.304300       0.792431
    18198.362100       0.791910
    18231.540600       0.791360
    18264.840200       0.790780
    18298.261700       0.790168
    18331.805700       0.789524
    18365.472900       0.788848
    18399.264000       0.788139
    18433.179700       0.787395
    18467.220700       0.786616
    18501.387600       0.785802
    18535.681200       0.784952
    18570.102100       0.784064
    18604.651200       0.783139
    18639.329000       0.782175
    18674.136300       0.781171
    18709.073900       0.780128
    18744.142500       0.779044
    18779.342700       0.777919
    18814.675400       0.776752
    18850.141400       0.775542
    18885.741300       0.774288
    18921.475900       0.772990
    18957.346000       0.771648
    18993.352300       0.770259
    19029.495700       0.768825
    19065.776900       0.767343
    19102.196800       0.765814
    19138.756000       0.764237
    19175.455400       0.762611
    19212.295900       0.760935
    19249.278200       0.759209
    19286.403100       0.757432
    19323.671500       0.755603
    19361.084200       0.753723
    19398.642100       0.751790
    19436.346000       0.749804
    19474.196700       0.747763
    19512.195100       0.745669
    19550.342100       0.743519
    19588.638600       0.741314
    19627.085400       0.739053
    19665.683400       0.736735
    19704.433500       0.734359
    19743.336600       0.731927
    19782.393700       0.729436
    19821.605600       0.726886
    19860.973200       0.724277
    19900.497500       0.721608
    19940.179500       0.718880
    19980.020000       0.716091
    20020.020000       0.713241
    20060.180500       0.710329
    20100.502500       0.707356
    20140.986900       0.704321
    20181.634700       0.701223
    20222.446900       0.698063
    20263.424500       0.694839
    20304.568500       0.691553
    20345.880000       0.688202
    20387.359800       0.684787
    20429.009200       0.681308
    20470.829100       0.677765
    20512.820500       0.674157
    20554.984600       0.670483
    20597.322300       0.666745
    20639.834900       0.662942
    20682.523300       0.659073
    20725.388600       0.655139
    20768.432000       0.651139
    20811.654500       0.647073
    20855.057400       0.642942
    20898.641600       0.638745
    20942.408400       0.634482
    20986.358900       0.630153
    21030.494200       0.625759
    21074.815600       0.621299
    21119.324200       0.616773
    21164.021200       0.612182
    21208.907700       0.607526
    21253.985100       0.602805
    21299.254500       0.598019
    21344.717200       0.593167
    21390.374300       0.588252
    21436.227200       0.583272
    21482.277100       0.578229
    21528.525300       0.573122
    21574.973000       0.567952
    21621.621600       0.562719
    21668.472400       0.557423
    21715.526600       0.552066
    21762.785600       0.546648
    21810.250800       0.541168
    21857.923500       0.535629
    21905.805000       0.530029
    21953.896800       0.524371
    22002.200200       0.518653
    22050.716600       0.512879
    22099.447500       0.507047
    22148.394200       0.501159
    22197.558300       0.495215
    22246.941000       0.489217
    22296.544000       0.483165
    22346.368700       0.477060
    22396.416600       0.470903
    22446.689100       0.464695
    22497.187900       0.458437
    22547.914300       0.452130
    22598.870100       0.445776
    22650.056600       0.439375
    22701.475600       0.432928
    22753.128600       0.426437
    22805.017100       0.419903
    22857.142900       0.413328
    22909.507400       0.406712
    22962.112500       0.400057
    23014.959700       0.393365
    23068.050700       0.386637
    23121.387300       0.379875
    23174.971000       0.373079
    23228.803700       0.366252
    23282.887100       0.359396
    23337.222900       0.352512
    23391.812900       0.345601
    23446.658900       0.338667
    23501.762600       0.331710
    23557.126000       0.324732
    23612.750900       0.317736
    23668.639100       0.310723
    23724.792400       0.303695
    23781.212800       0.296656
    23837.902300       0.289606
    23894.862600       0.282548
    23952.095800       0.275484
    24009.603800       0.268417
    24067.388700       0.261349
    24125.452400       0.254282
    24183.796900       0.247219
    24242.424200       0.240163
    24301.336600       0.233116
    24360.535900       0.226080
    24420.024400       0.219059
    24479.804200       0.212055
    24539.877300       0.205071
    24600.246000       0.198110
    24660.912500       0.191175
    24721.878900       0.184269
    24783.147500       0.177395
    24844.720500       0.170556
    24906.600200       0.163756
    24968.789000       0.156997
    25031.289100       0.150283
    25094.102900       0.143617
    25157.232700       0.137004
    25220.681000       0.130445
    25284.450100       0.123946
    25348.542500       0.117509
    25412.960600       0.111138
    25477.707000       0.104838
