2,   2, MVIRI VIS channel from srf_MET3_1989033_1989034_1801-Release_S10EE_10.dat
Number of data points:
743
Wavenumber (cm-1)   Filter response
     8814.455700       0.000000
     8822.232000       0.000000
     8830.022100       0.000697
     8837.825900       0.002922
     8845.643500       0.005168
     8853.475000       0.007431
     8861.320300       0.009712
     8869.179600       0.012009
     8877.052800       0.014320
     8884.940000       0.016646
     8892.841300       0.018984
     8900.756600       0.021335
     8908.686000       0.023697
     8916.629500       0.026069
     8924.587200       0.028451
     8932.559200       0.030842
     8940.545400       0.033241
     8948.545900       0.035648
     8956.560700       0.038063
     8964.589900       0.040483
     8972.633500       0.042910
     8980.691500       0.045343
     8988.764000       0.047781
     8996.851100       0.050224
     9004.952700       0.052672
     9013.068900       0.055123
     9021.199800       0.057579
     9029.345400       0.060039
     9037.505600       0.062502
     9045.680700       0.064969
     9053.870500       0.067439
     9062.075200       0.069912
     9070.294800       0.072388
     9078.529300       0.074867
     9086.778700       0.077349
     9095.043200       0.079834
     9103.322700       0.082321
     9111.617300       0.084812
     9119.927000       0.087305
     9128.251900       0.089802
     9136.592100       0.092302
     9144.947400       0.094805
     9153.318100       0.097311
     9161.704100       0.099820
     9170.105500       0.102334
     9178.522300       0.104851
     9186.954500       0.107371
     9195.402300       0.109897
     9203.865600       0.112426
     9212.344500       0.114959
     9220.839100       0.117498
     9229.349300       0.120041
     9237.875300       0.122590
     9246.417000       0.125143
     9254.974500       0.127703
     9263.547900       0.130269
     9272.137200       0.132840
     9280.742500       0.135418
     9289.363700       0.138003
     9298.000900       0.140595
     9306.654300       0.143195
     9315.323700       0.145801
     9324.009300       0.148416
     9332.711200       0.151039
     9341.429200       0.153670
     9350.163600       0.156310
     9358.914400       0.158959
     9367.681500       0.161618
     9376.465100       0.164286
     9385.265100       0.166964
     9394.081700       0.169653
     9402.914900       0.172352
     9411.764700       0.175062
     9420.631200       0.177783
     9429.514400       0.180516
     9438.414300       0.183260
     9447.331100       0.186016
     9456.264800       0.188785
     9465.215300       0.191567
     9474.182900       0.194361
     9483.167400       0.197168
     9492.169000       0.199989
     9501.187600       0.202824
     9510.223500       0.205672
     9519.276500       0.208535
     9528.346800       0.211412
     9537.434400       0.214304
     9546.539400       0.217211
     9555.661700       0.220133
     9564.801500       0.223070
     9573.958800       0.226023
     9583.133700       0.228992
     9592.326100       0.231977
     9601.536200       0.234978
     9610.764100       0.237995
     9620.009600       0.241029
     9629.273000       0.244080
     9638.554200       0.247148
     9647.853400       0.250233
     9657.170400       0.253335
     9666.505600       0.256454
     9675.858700       0.259592
     9685.230000       0.262746
     9694.619500       0.265919
     9704.027200       0.269109
     9713.453100       0.272317
     9722.897400       0.275544
     9732.360100       0.278788
     9741.841200       0.282051
     9751.340800       0.285332
     9760.859000       0.288632
     9770.395700       0.291950
     9779.951100       0.295286
     9789.525200       0.298641
     9799.118100       0.302015
     9808.729800       0.305406
     9818.360300       0.308817
     9828.009800       0.312245
     9837.678300       0.315693
     9847.365800       0.319159
     9857.072400       0.322643
     9866.798200       0.326145
     9876.543200       0.329666
     9886.307500       0.333206
     9896.091000       0.336763
     9905.894000       0.340339
     9915.716400       0.343932
     9925.558300       0.347544
     9935.419800       0.351173
     9945.300800       0.354821
     9955.201600       0.358485
     9965.122100       0.362168
     9975.062300       0.365867
     9985.022500       0.369584
     9995.002500       0.373318
    10005.002500       0.377069
    10015.022500       0.380837
    10025.062700       0.384621
    10035.122900       0.388421
    10045.203400       0.392237
    10055.304200       0.396070
    10065.425300       0.399918
    10075.566800       0.403782
    10085.728700       0.407661
    10095.911200       0.411555
    10106.114200       0.415464
    10116.337900       0.419387
    10126.582300       0.423324
    10136.847400       0.427276
    10147.133400       0.431242
    10157.440300       0.435221
    10167.768200       0.439213
    10178.117000       0.443218
    10188.487000       0.447235
    10198.878100       0.451265
    10209.290500       0.455307
    10219.724100       0.459361
    10230.179000       0.463426
    10240.655400       0.467502
    10251.153300       0.471588
    10261.672700       0.475685
    10272.213700       0.479792
    10282.776300       0.483909
    10293.360800       0.488035
    10303.967000       0.492169
    10314.595200       0.496313
    10325.245200       0.500464
    10335.917300       0.504624
    10346.611500       0.508790
    10357.327800       0.512964
    10368.066400       0.517144
    10378.827200       0.521331
    10389.610400       0.525524
    10400.416000       0.529722
    10411.244100       0.533925
    10422.094800       0.538132
    10432.968200       0.542344
    10443.864200       0.546560
    10454.783100       0.550779
    10465.724800       0.555001
    10476.689400       0.559225
    10487.677000       0.563452
    10498.687700       0.567680
    10509.721500       0.571910
    10520.778500       0.576140
    10531.858900       0.580371
    10542.962600       0.584602
    10554.089700       0.588832
    10565.240400       0.593061
    10576.414600       0.597288
    10587.612500       0.601514
    10598.834100       0.605738
    10610.079600       0.609959
    10621.348900       0.614176
    10632.642200       0.618390
    10643.959600       0.622600
    10655.301000       0.626805
    10666.666700       0.631005
    10678.056600       0.635200
    10689.470900       0.639388
    10700.909600       0.643571
    10712.372800       0.647746
    10723.860600       0.651914
    10735.373100       0.656074
    10746.910300       0.660227
    10758.472300       0.664370
    10770.059200       0.668504
    10781.671200       0.672629
    10793.308100       0.676744
    10804.970300       0.680848
    10816.657700       0.684941
    10828.370300       0.689023
    10840.108400       0.693093
    10851.871900       0.697151
    10863.661100       0.701196
    10875.475800       0.705228
    10887.316300       0.709246
    10899.182600       0.713250
    10911.074700       0.717240
    10922.992900       0.721214
    10934.937100       0.725174
    10946.907500       0.729117
    10958.904100       0.733044
    10970.927000       0.736955
    10982.976400       0.740849
    10995.052200       0.744725
    11007.154700       0.748583
    11019.283700       0.752423
    11031.439600       0.756244
    11043.622300       0.760046
    11055.832000       0.763829
    11068.068600       0.767591
    11080.332400       0.771333
    11092.623400       0.775055
    11104.941700       0.778755
    11117.287400       0.782434
    11129.660500       0.786091
    11142.061300       0.789725
    11154.489700       0.793337
    11166.945800       0.796926
    11179.429800       0.800492
    11191.941800       0.804034
    11204.481800       0.807551
    11217.049900       0.811044
    11229.646300       0.814513
    11242.270900       0.817956
    11254.924000       0.821374
    11267.605600       0.824766
    11280.315800       0.828131
    11293.054800       0.831471
    11305.822500       0.834783
    11318.619100       0.838068
    11331.444800       0.841326
    11344.299500       0.844556
    11357.183400       0.847758
    11370.096600       0.850932
    11383.039300       0.854077
    11396.011400       0.857193
    11409.013100       0.860280
    11422.044500       0.863337
    11435.105800       0.866365
    11448.196900       0.869363
    11461.318100       0.872330
    11474.469300       0.875267
    11487.650800       0.878173
    11500.862600       0.881048
    11514.104800       0.883892
    11527.377500       0.886704
    11540.680900       0.889485
    11554.015000       0.892234
    11567.380000       0.894950
    11580.775900       0.897634
    11594.202900       0.900286
    11607.661100       0.902905
    11621.150500       0.905491
    11634.671300       0.908044
    11648.223600       0.910564
    11661.807600       0.913050
    11675.423200       0.915502
    11689.070700       0.917921
    11702.750100       0.920306
    11716.461600       0.922656
    11730.205300       0.924973
    11743.981200       0.927255
    11757.789500       0.929502
    11771.630400       0.931715
    11785.503800       0.933893
    11799.410000       0.936036
    11813.349100       0.938145
    11827.321100       0.940218
    11841.326200       0.942256
    11855.364600       0.944258
    11869.436200       0.946226
    11883.541300       0.948158
    11897.680000       0.950054
    11911.852300       0.951915
    11926.058400       0.953741
    11940.298500       0.955530
    11954.572600       0.957284
    11968.880900       0.959002
    11983.223500       0.960685
    11997.600500       0.962331
    12012.012000       0.963942
    12026.458200       0.965517
    12040.939200       0.967056
    12055.455100       0.968558
    12070.006000       0.970026
    12084.592100       0.971457
    12099.213600       0.972852
    12113.870400       0.974212
    12128.562800       0.975535
    12143.290800       0.976823
    12158.054700       0.978075
    12172.854500       0.979291
    12187.690400       0.980472
    12202.562500       0.981617
    12217.471000       0.982726
    12232.415900       0.983800
    12247.397400       0.984838
    12262.415700       0.985841
    12277.470800       0.986809
    12292.563000       0.987741
    12307.692300       0.988638
    12322.858900       0.989500
    12338.062900       0.990327
    12353.304500       0.991119
    12368.583800       0.991876
    12383.900900       0.992599
    12399.256000       0.993287
    12414.649300       0.993940
    12430.080800       0.994559
    12445.550700       0.995144
    12461.059200       0.995695
    12476.606400       0.996212
    12492.192400       0.996696
    12507.817400       0.997145
    12523.481500       0.997561
    12539.185000       0.997944
    12554.927800       0.998293
    12570.710200       0.998610
    12586.532400       0.998893
    12602.394500       0.999144
    12618.296500       0.999363
    12634.238800       0.999549
    12650.221400       0.999702
    12666.244500       0.999824
    12682.308200       0.999914
    12698.412700       0.999973
    12714.558200       1.000000
    12730.744700       0.999996
    12746.972600       0.999961
    12763.241900       0.999895
    12779.552700       0.999798
    12795.905300       0.999671
    12812.299800       0.999514
    12828.736400       0.999327
    12845.215200       0.999111
    12861.736300       0.998864
    12878.300100       0.998589
    12894.906500       0.998284
    12911.555800       0.997951
    12928.248200       0.997589
    12944.983800       0.997199
    12961.762800       0.996780
    12978.585300       0.996334
    12995.451600       0.995860
    13012.361700       0.995359
    13029.316000       0.994830
    13046.314400       0.994275
    13063.357300       0.993693
    13080.444700       0.993085
    13097.576900       0.992450
    13114.754100       0.991790
    13131.976400       0.991104
    13149.243900       0.990393
    13166.556900       0.989656
    13183.915600       0.988895
    13201.320100       0.988110
    13218.770700       0.987300
    13236.267400       0.986466
    13253.810500       0.985608
    13271.400100       0.984726
    13289.036500       0.983822
    13306.719900       0.982894
    13324.450400       0.981944
    13342.228200       0.980972
    13360.053400       0.979977
    13377.926400       0.978960
    13395.847300       0.977922
    13413.816200       0.976863
    13431.833400       0.975782
    13449.899100       0.974681
    13468.013500       0.973559
    13486.176700       0.972417
    13504.388900       0.971255
    13522.650400       0.970074
    13540.961400       0.968873
    13559.322000       0.967653
    13577.732500       0.966414
    13596.193100       0.965156
    13614.703900       0.963880
    13633.265200       0.962586
    13651.877100       0.961274
    13670.540000       0.959945
    13689.253900       0.958599
    13708.019200       0.957235
    13726.836000       0.955855
    13745.704500       0.954459
    13764.624900       0.953046
    13783.597500       0.951618
    13802.622500       0.950174
    13821.700100       0.948714
    13840.830400       0.947240
    13860.013900       0.945750
    13879.250500       0.944246
    13898.540700       0.942728
    13917.884500       0.941196
    13937.282200       0.939649
    13956.734100       0.938090
    13976.240400       0.936517
    13995.801300       0.934930
    14015.417000       0.933332
    14035.087700       0.931720
    14054.813800       0.930096
    14074.595400       0.928460
    14094.432700       0.926813
    14114.326000       0.925153
    14134.275600       0.923483
    14154.281700       0.921801
    14174.344400       0.920108
    14194.464200       0.918405
    14214.641100       0.916691
    14234.875400       0.914967
    14255.167500       0.913233
    14275.517500       0.911489
    14295.925700       0.909735
    14316.392300       0.907973
    14336.917600       0.906201
    14357.501800       0.904420
    14378.145200       0.902630
    14398.848100       0.900832
    14419.610700       0.899025
    14440.433200       0.897211
    14461.316000       0.895388
    14482.259200       0.893558
    14503.263200       0.891720
    14524.328200       0.889875
    14545.454500       0.888022
    14566.642400       0.886163
    14587.892000       0.884296
    14609.203800       0.882423
    14630.577900       0.880544
    14652.014700       0.878658
    14673.514300       0.876766
    14695.077100       0.874868
    14716.703500       0.872964
    14738.393500       0.871054
    14760.147600       0.869139
    14781.966000       0.867218
    14803.849000       0.865292
    14825.796900       0.863361
    14847.809900       0.861425
    14869.888500       0.859484
    14892.032800       0.857539
    14914.243100       0.855588
    14936.519800       0.853634
    14958.863100       0.851674
    14981.273400       0.849711
    15003.750900       0.847743
    15026.296000       0.845772
    15048.909000       0.843796
    15071.590100       0.841817
    15094.339600       0.839834
    15117.158000       0.837847
    15140.045400       0.835856
    15163.002300       0.833862
    15186.028900       0.831865
    15209.125500       0.829865
    15232.292500       0.827861
    15255.530100       0.825854
    15278.838800       0.823844
    15302.218800       0.821830
    15325.670500       0.819814
    15349.194200       0.817795
    15372.790200       0.815773
    15396.458800       0.813748
    15420.200500       0.811721
    15444.015400       0.809690
    15467.904100       0.807657
    15491.866800       0.805622
    15515.903800       0.803584
    15540.015500       0.801543
    15564.202300       0.799499
    15588.464500       0.797453
    15612.802500       0.795405
    15637.216600       0.793353
    15661.707100       0.791300
    15686.274500       0.789244
    15710.919100       0.787185
    15735.641200       0.785124
    15760.441300       0.783061
    15785.319700       0.780994
    15810.276700       0.778926
    15835.312700       0.776855
    15860.428200       0.774781
    15885.623500       0.772705
    15910.899000       0.770626
    15936.255000       0.768545
    15961.691900       0.766461
    15987.210200       0.764374
    16012.810200       0.762285
    16038.492400       0.760193
    16064.257000       0.758098
    16090.104600       0.756000
    16116.035500       0.753900
    16142.050000       0.751796
    16168.148700       0.749690
    16194.332000       0.747581
    16220.600200       0.745469
    16246.953700       0.743353
    16273.393000       0.741235
    16299.918500       0.739113
    16326.530600       0.736988
    16353.229800       0.734860
    16380.016400       0.732728
    16406.890900       0.730592
    16433.853700       0.728454
    16460.905300       0.726311
    16488.046200       0.724165
    16515.276600       0.722015
    16542.597200       0.719861
    16570.008300       0.717703
    16597.510400       0.715542
    16625.103900       0.713375
    16652.789300       0.711205
    16680.567100       0.709031
    16708.437800       0.706852
    16736.401700       0.704669
    16764.459300       0.702481
    16792.611300       0.700288
    16820.857900       0.698091
    16849.199700       0.695889
    16877.637100       0.693682
    16906.170800       0.691470
    16934.801000       0.689252
    16963.528400       0.687030
    16992.353400       0.684802
    17021.276600       0.682569
    17050.298400       0.680330
    17079.419300       0.678085
    17108.639900       0.675835
    17137.960600       0.673579
    17167.382000       0.671316
    17196.904600       0.669048
    17226.528900       0.666774
    17256.255400       0.664493
    17286.084700       0.662206
    17316.017300       0.659912
    17346.053800       0.657612
    17376.194600       0.655305
    17406.440400       0.652992
    17436.791600       0.650671
    17467.248900       0.648343
    17497.812800       0.646008
    17528.483800       0.643667
    17559.262500       0.641317
    17590.149500       0.638960
    17621.145400       0.636596
    17652.250700       0.634224
    17683.466000       0.631845
    17714.791900       0.629457
    17746.228900       0.627062
    17777.777800       0.624658
    17809.439000       0.622247
    17841.213200       0.619827
    17873.101000       0.617399
    17905.103000       0.614962
    17937.219700       0.612518
    17969.451900       0.610064
    18001.800200       0.607602
    18034.265100       0.605131
    18066.847300       0.602652
    18099.547500       0.600163
    18132.366300       0.597666
    18165.304300       0.595159
    18198.362100       0.592644
    18231.540600       0.590119
    18264.840200       0.587585
    18298.261700       0.585042
    18331.805700       0.582489
    18365.472900       0.579927
    18399.264000       0.577355
    18433.179700       0.574774
    18467.220700       0.572184
    18501.387600       0.569583
    18535.681200       0.566973
    18570.102100       0.564354
    18604.651200       0.561724
    18639.329000       0.559085
    18674.136300       0.556436
    18709.073900       0.553777
    18744.142500       0.551108
    18779.342700       0.548429
    18814.675400       0.545741
    18850.141400       0.543042
    18885.741300       0.540334
    18921.475900       0.537615
    18957.346000       0.534887
    18993.352300       0.532149
    19029.495700       0.529400
    19065.776900       0.526642
    19102.196800       0.523874
    19138.756000       0.521096
    19175.455400       0.518308
    19212.295900       0.515511
    19249.278200       0.512703
    19286.403100       0.509886
    19323.671500       0.507059
    19361.084200       0.504222
    19398.642100       0.501376
    19436.346000       0.498520
    19474.196700       0.495654
    19512.195100       0.492779
    19550.342100       0.489894
    19588.638600       0.487001
    19627.085400       0.484098
    19665.683400       0.481185
    19704.433500       0.478264
    19743.336600       0.475334
    19782.393700       0.472394
    19821.605600       0.469446
    19860.973200       0.466489
    19900.497500       0.463524
    19940.179500       0.460550
    19980.020000       0.457568
    20020.020000       0.454578
    20060.180500       0.451579
    20100.502500       0.448573
    20140.986900       0.445558
    20181.634700       0.442536
    20222.446900       0.439507
    20263.424500       0.436470
    20304.568500       0.433426
    20345.880000       0.430375
    20387.359800       0.427317
    20429.009200       0.424252
    20470.829100       0.421181
    20512.820500       0.418103
    20554.984600       0.415019
    20597.322300       0.411930
    20639.834900       0.408834
    20682.523300       0.405733
    20725.388600       0.402627
    20768.432000       0.399516
    20811.654500       0.396400
    20855.057400       0.393279
    20898.641600       0.390154
    20942.408400       0.387024
    20986.358900       0.383891
    21030.494200       0.380754
    21074.815600       0.377613
    21119.324200       0.374469
    21164.021200       0.371323
    21208.907700       0.368173
    21253.985100       0.365022
    21299.254500       0.361868
    21344.717200       0.358712
    21390.374300       0.355555
    21436.227200       0.352396
    21482.277100       0.349237
    21528.525300       0.346076
    21574.973000       0.342916
    21621.621600       0.339755
    21668.472400       0.336594
    21715.526600       0.333434
    21762.785600       0.330275
    21810.250800       0.327117
    21857.923500       0.323960
    21905.805000       0.320805
    21953.896800       0.317652
    22002.200200       0.314502
    22050.716600       0.311354
    22099.447500       0.308209
    22148.394200       0.305068
    22197.558300       0.301931
    22246.941000       0.298798
    22296.544000       0.295669
    22346.368700       0.292545
    22396.416600       0.289426
    22446.689100       0.286312
    22497.187900       0.283204
    22547.914300       0.280103
    22598.870100       0.277008
    22650.056600       0.273920
    22701.475600       0.270839
    22753.128600       0.267765
    22805.017100       0.264700
    22857.142900       0.261643
    22909.507400       0.258594
    22962.112500       0.255554
    23014.959700       0.252524
    23068.050700       0.249504
    23121.387300       0.246493
    23174.971000       0.243493
    23228.803700       0.240504
    23282.887100       0.237525
    23337.222900       0.234558
    23391.812900       0.231603
    23446.658900       0.228660
    23501.762600       0.225729
    23557.126000       0.222811
    23612.750900       0.219907
    23668.639100       0.217015
    23724.792400       0.214138
    23781.212800       0.211274
    23837.902300       0.208425
    23894.862600       0.205590
    23952.095800       0.202771
    24009.603800       0.199967
    24067.388700       0.197178
    24125.452400       0.194405
    24183.796900       0.191649
    24242.424200       0.188908
    24301.336600       0.186185
    24360.535900       0.183478
    24420.024400       0.180789
    24479.804200       0.178117
    24539.877300       0.175463
    24600.246000       0.172827
    24660.912500       0.170208
    24721.878900       0.167609
    24783.147500       0.165027
    24844.720500       0.162465
    24906.600200       0.159921
    24968.789000       0.157396
    25031.289100       0.154891
    25094.102900       0.152405
    25157.232700       0.149938
    25220.681000       0.147491
    25284.450100       0.145064
    25348.542500       0.142657
    25412.960600       0.140269
    25477.707000       0.137901
