4,   from L7_ETM_RSR.xls (col 1 Landsat7-TM
Number of data points:
135
Wavenumber (cm-1)   Filter response
    15384.615400       0.000000
    15503.876000       0.000000
    15625.000000       0.000000
    15748.031500       0.000000
    15873.015900       0.000000
    15898.251200       0.000000
    15923.566900       0.000000
    15948.963300       0.000000
    15974.440900       0.000000
    16000.000000       0.000000
    16025.641000       0.001400
    16051.364400       0.001700
    16077.170400       0.002600
    16103.059600       0.003700
    16129.032300       0.004800
    16155.088900       0.007170
    16181.229800       0.009400
    16207.455400       0.012350
    16233.766200       0.015800
    16260.162600       0.021000
    16286.645000       0.026000
    16313.213700       0.033000
    16339.869300       0.042000
    16366.612100       0.052000
    16393.442600       0.062000
    16420.361200       0.077000
    16447.368400       0.094000
    16474.464600       0.117000
    16501.650200       0.146000
    16528.925600       0.185000
    16556.291400       0.235000
    16583.747900       0.300000
    16611.295700       0.380000
    16638.935100       0.473000
    16666.666700       0.574000
    16694.490800       0.674000
    16722.408000       0.763000
    16750.418800       0.834000
    16778.523500       0.883000
    16806.722700       0.912000
    16835.016800       0.924000
    16863.406400       0.928000
    16891.891900       0.932000
    16920.473800       0.936000
    16949.152500       0.942000
    16977.928700       0.954000
    17006.802700       0.969000
    17035.775100       0.983000
    17064.846400       0.994000
    17094.017100       1.000000
    17123.287700       1.000000
    17152.658700       0.995000
    17182.130600       0.988000
    17211.704000       0.981000
    17241.379300       0.973000
    17271.157200       0.963000
    17301.038100       0.958000
    17331.022500       0.954000
    17361.111100       0.952000
    17391.304300       0.955000
    17421.602800       0.957000
    17452.007000       0.956000
    17482.517500       0.957000
    17513.134900       0.955000
    17543.859600       0.951000
    17574.692400       0.945000
    17605.633800       0.940000
    17636.684300       0.937000
    17667.844500       0.935000
    17699.115000       0.933000
    17730.496500       0.932000
    17761.989300       0.937000
    17793.594300       0.944000
    17825.311900       0.951000
    17857.142900       0.959000
    17889.087700       0.965000
    17921.147000       0.968000
    17953.321400       0.966000
    17985.611500       0.960000
    18018.018000       0.954000
    18050.541500       0.951000
    18083.182600       0.950000
    18115.942000       0.950000
    18148.820300       0.951000
    18181.818200       0.953000
    18214.936200       0.952000
    18248.175200       0.952000
    18281.535600       0.951000
    18315.018300       0.951000
    18348.623900       0.952000
    18382.352900       0.951000
    18416.206300       0.952000
    18450.184500       0.953000
    18484.288400       0.951000
    18518.518500       0.947000
    18552.875700       0.942000
    18587.360600       0.933000
    18621.973900       0.924000
    18656.716400       0.916000
    18691.588800       0.905000
    18726.591800       0.893000
    18761.726100       0.878000
    18796.992500       0.861000
    18832.391700       0.842000
    18867.924500       0.822000
    18903.591700       0.805000
    18939.393900       0.790000
    18975.332100       0.779000
    19011.406800       0.769000
    19047.619000       0.759000
    19083.969500       0.743000
    19120.458900       0.716000
    19157.088100       0.676000
    19193.858000       0.621000
    19230.769200       0.552000
    19267.822700       0.472000
    19305.019300       0.388000
    19342.359800       0.308000
    19379.845000       0.236000
    19417.475700       0.174000
    19455.252900       0.126000
    19493.177400       0.088000
    19531.250000       0.060000
    19569.471600       0.041000
    19607.843100       0.026000
    19646.365400       0.023600
    19685.039400       0.014500
    19723.865900       0.009000
    19762.845800       0.005000
    19801.980200       0.003000
    19841.269800       0.002000
    19880.715700       0.002000
    19920.318700       0.001000
    19960.079800       0.000900
    20000.000000       0.000600
