   7  ,noaa_14_hirs_07.flt
Number of data points:
101
Wavenumber (cm-1)   Filter response
      719.470000       0.000000
      720.080000       0.000000
      720.680000       0.000000
      721.280000       0.000000
      721.890000       0.000000
      722.490000       0.000000
      723.090000       0.000000
      723.700000       0.000000
      724.300000       0.000000
      724.900000       0.000000
      725.510000       0.000000
      726.110000       0.000000
      726.720000       0.000000
      727.320000       0.000000
      727.930000       0.000000
      728.530000       0.000482
      729.130000       0.003322
      729.790000       0.006315
      730.380000       0.006403
      730.970000       0.010222
      731.560000       0.010344
      732.140000       0.017106
      732.730000       0.020905
      733.320000       0.026004
      733.890000       0.034847
      734.480000       0.044050
      735.050000       0.059579
      735.620000       0.076295
      736.310000       0.099187
      736.870000       0.127160
      737.410000       0.168220
      738.070000       0.218700
      738.600000       0.284550
      739.230000       0.359170
      739.890000       0.450390
      740.480000       0.537120
      741.070000       0.631230
      741.650000       0.716020
      742.240000       0.785800
      742.820000       0.839240
      743.410000       0.883000
      744.020000       0.907220
      744.620000       0.921300
      745.210000       0.932590
      745.810000       0.935050
      746.410000       0.941130
      747.000000       0.946410
      747.600000       0.949790
      748.200000       0.961570
      748.790000       0.967360
      749.390000       0.973890
      750.010000       0.983590
      750.600000       0.990200
      751.200000       0.996890
      751.810000       0.997740
      752.400000       1.000000
      752.970000       0.991780
      753.570000       0.981480
      754.170000       0.957010
      754.770000       0.923790
      755.370000       0.881270
      755.970000       0.826360
      756.570000       0.766590
      757.180000       0.701830
      757.790000       0.616920
      758.380000       0.539600
      759.000000       0.458170
      759.640000       0.375910
      760.220000       0.310360
      760.880000       0.248160
      761.470000       0.198290
      762.060000       0.163990
      762.660000       0.130920
      763.300000       0.104750
      763.890000       0.088194
      764.500000       0.071038
      765.100000       0.057851
      765.700000       0.046380
      766.300000       0.037505
      766.910000       0.031411
      767.510000       0.022090
      768.110000       0.020108
      768.720000       0.020106
      769.320000       0.013708
      769.930000       0.011726
      770.530000       0.010249
      771.130000       0.009619
      771.730000       0.006232
      772.330000       0.006279
      772.930000       0.003203
      773.520000       0.003239
      774.120000       0.003274
      774.720000       0.003310
      775.310000       0.003339
      775.910000       0.000910
      776.510000       0.000000
      777.110000       0.000000
      777.710000       0.000000
      778.310000       0.000000
      778.900000       0.000000
      779.500000       0.000000
