 4    ,AATSR Flight Model FPA #2 1.6um channel (AuSpace measuremets).
Number of data points:
237
Wavenumber (cm-1)   Filter response
     5629.514900       0.000300
     5633.615600       0.000280
     5637.725400       0.000290
     5641.838100       0.000290
     5645.956700       0.000290
     5650.084600       0.000290
     5654.215300       0.000280
     5658.355300       0.000280
     5662.498100       0.000280
     5666.650200       0.000280
     5670.805200       0.000280
     5674.966300       0.000280
     5679.136700       0.000270
     5683.310100       0.000270
     5687.492700       0.000270
     5691.678400       0.000270
     5695.870200       0.000270
     5700.071400       0.000260
     5704.275500       0.000260
     5708.489200       0.000260
     5712.705700       0.000260
     5716.931800       0.000250
     5721.160900       0.000250
     5725.396300       0.000250
     5729.641200       0.000250
     5733.889100       0.000250
     5738.146600       0.000240
     5742.407100       0.000240
     5746.674000       0.000240
     5750.950500       0.000240
     5755.230100       0.000240
     5759.519300       0.000240
     5763.811700       0.000230
     5768.113800       0.000240
     5772.418900       0.000240
     5776.730500       0.000240
     5781.051900       0.000240
     5785.376400       0.000250
     5789.710800       0.000270
     5794.048200       0.000300
     5798.395600       0.000310
     5802.746100       0.000340
     5807.103100       0.000400
     5811.470100       0.000420
     5815.840300       0.000430
     5820.220400       0.000450
     5824.603700       0.000470
     5828.993600       0.000480
     5833.393600       0.000470
     5837.796800       0.000480
     5842.210100       0.000480
     5846.626600       0.000490
     5851.053200       0.000500
     5855.483200       0.000530
     5859.919800       0.000670
     5864.366600       0.000800
     5868.816700       0.000950
     5873.277000       0.001170
     5877.740600       0.001250
     5882.214500       0.001270
     5886.691800       0.001280
     5891.175800       0.001320
     5895.670200       0.001420
     5900.168000       0.001500
     5904.676100       0.001560
     5909.187600       0.001690
     5913.706000       0.001770
     5918.234900       0.001810
     5922.767100       0.002050
     5927.309800       0.002240
     5931.856000       0.002410
     5936.412700       0.002710
     5940.972900       0.002830
     5945.540000       0.003010
     5950.117800       0.003310
     5954.699000       0.003600
     5959.290900       0.003880
     5963.886300       0.004320
     5968.492300       0.004680
     5973.101900       0.005040
     5977.718700       0.005390
     5982.346100       0.006040
     5986.977100       0.006490
     5991.618900       0.007120
     5996.264300       0.007970
     6000.916900       0.008750
     6005.580400       0.009740
     6010.247500       0.010750
     6014.925400       0.011830
     6019.607100       0.013280
     6024.299600       0.015070
     6028.995900       0.016970
     6033.699400       0.019220
     6038.414000       0.021910
     6043.132300       0.024900
     6047.861600       0.028570
     6052.594600       0.032710
     6057.335100       0.038030
     6062.086700       0.044600
     6066.842000       0.052260
     6071.608600       0.061220
     6076.378900       0.072150
     6081.160400       0.085140
     6085.945700       0.100480
     6090.738600       0.118800
     6095.542800       0.138900
     6100.350800       0.161490
     6105.170100       0.186320
     6109.993300       0.212270
     6114.827900       0.239810
     6119.666400       0.270780
     6124.512600       0.302090
     6129.370200       0.334490
     6134.231700       0.367620
     6139.104700       0.401060
     6143.981800       0.434730
     6148.866500       0.466460
     6153.762800       0.497390
     6158.663200       0.526480
     6163.575100       0.554550
     6168.491100       0.583200
     6173.418700       0.610770
     6178.350400       0.637250
     6183.290000       0.664120
     6188.241400       0.687540
     6193.196800       0.711770
     6198.164000       0.737000
     6203.135300       0.760090
     6208.118500       0.780110
     6213.105800       0.800380
     6218.101100       0.822070
     6223.108400       0.843870
     6228.119800       0.862600
     6233.143200       0.879560
     6238.170900       0.894020
     6243.206600       0.915020
     6248.254400       0.931500
     6253.306400       0.942670
     6258.370600       0.953800
     6263.439000       0.963000
     6268.519600       0.972740
     6273.604400       0.980670
     6278.697600       0.985000
     6283.802900       0.989390
     6288.912600       0.994920
     6294.034600       1.000000
     6299.161000       0.998740
     6304.295700       0.999970
     6309.442800       0.999350
     6314.594400       0.995340
     6319.758300       0.990520
     6324.926700       0.978860
     6330.107500       0.963390
     6335.292800       0.943840
     6340.486700       0.917360
     6345.693100       0.888990
     6350.904000       0.857000
     6356.127500       0.818730
     6361.355500       0.782660
     6366.596300       0.746980
     6371.841600       0.704950
     6377.095500       0.665660
     6382.362200       0.628860
     6387.633500       0.588820
     6392.917700       0.551510
     6398.206500       0.516170
     6403.504000       0.478670
     6408.814400       0.441610
     6414.129600       0.404970
     6419.457600       0.369860
     6424.790400       0.334460
     6430.136200       0.301220
     6435.486800       0.271640
     6440.846300       0.241000
     6446.218900       0.210500
     6451.596300       0.181690
     6456.986800       0.155090
     6462.382200       0.131430
     6467.786500       0.110470
     6473.204200       0.091070
     6478.626700       0.074460
     6484.062500       0.061010
     6489.503200       0.050090
     6494.957300       0.041110
     6500.416400       0.033870
     6505.884600       0.028260
     6511.366200       0.023500
     6516.852900       0.019570
     6522.353100       0.016490
     6527.858300       0.013810
     6533.377100       0.011710
     6538.900900       0.009890
     6544.434100       0.008520
     6549.980900       0.007410
     6555.532900       0.006380
     6561.098600       0.005730
     6566.669400       0.004940
     6572.249700       0.004490
     6577.843800       0.003870
     6583.443200       0.003570
     6589.056400       0.003190
     6594.674800       0.002770
     6600.307200       0.002530
     6605.944800       0.002390
     6611.592100       0.002100
     6617.253400       0.001880
     6622.920100       0.001770
     6628.600800       0.001520
     6634.286900       0.001430
     6639.987200       0.001190
     6645.692900       0.001100
     6651.408300       0.001080
     6657.138100       0.000950
     6662.873300       0.000920
     6668.622800       0.000850
     6674.377800       0.000760
     6680.142700       0.000730
     6685.922100       0.000730
     6691.707000       0.000670
     6697.506500       0.000450
     6703.311400       0.000290
     6709.131000       0.000200
     6714.956200       0.000180
     6720.791400       0.000180
     6726.641400       0.000170
     6732.497000       0.000170
     6738.367400       0.000140
     6744.243500       0.000100
     6750.129800       0.000100
     6756.030900       0.000070
     6761.937900       0.000050
     6767.859700       0.000030
     6773.787300       0.000020
     6779.730000       0.000010
     6785.678400       0.000010
     6791.637300       0.000000
     6797.611300       0.000010
