6,   6, MVIRI VIS channel from srf_MET7_1998123_1998124_1801-Release_S10EE_10.dat
Number of data points:
793
Wavenumber (cm-1)   Filter response
     8442.380800       0.000000
     8449.514200       0.000000
     8456.659600       0.000004
     8463.817200       0.000052
     8470.986900       0.000152
     8478.168700       0.000305
     8485.362700       0.000508
     8492.569000       0.000759
     8499.787500       0.001058
     8507.018300       0.001402
     8514.261400       0.001792
     8521.516800       0.002224
     8528.784600       0.002699
     8536.064900       0.003215
     8543.357500       0.003771
     8550.662700       0.004365
     8557.980300       0.004998
     8565.310500       0.005667
     8572.653200       0.006372
     8580.008600       0.007112
     8587.376600       0.007886
     8594.757200       0.008693
     8602.150500       0.009532
     8609.556600       0.010403
     8616.975400       0.011305
     8624.407100       0.012237
     8631.851500       0.013198
     8639.308900       0.014188
     8646.779100       0.015206
     8654.262200       0.016252
     8661.758300       0.017325
     8669.267400       0.018424
     8676.789600       0.019548
     8684.324800       0.020699
     8691.873100       0.021874
     8699.434500       0.023074
     8707.009100       0.024298
     8714.596900       0.025546
     8722.198000       0.026817
     8729.812300       0.028111
     8737.439900       0.029428
     8745.080900       0.030767
     8752.735200       0.032128
     8760.403000       0.033511
     8768.084200       0.034916
     8775.778900       0.036342
     8783.487000       0.037790
     8791.208800       0.039258
     8798.944100       0.040747
     8806.693100       0.042257
     8814.455700       0.043787
     8822.232000       0.045338
     8830.022100       0.046909
     8837.825900       0.048500
     8845.643500       0.050111
     8853.475000       0.051742
     8861.320300       0.053393
     8869.179600       0.055064
     8877.052800       0.056755
     8884.940000       0.058466
     8892.841300       0.060196
     8900.756600       0.061946
     8908.686000       0.063716
     8916.629500       0.065506
     8924.587200       0.067315
     8932.559200       0.069144
     8940.545400       0.070993
     8948.545900       0.072862
     8956.560700       0.074751
     8964.589900       0.076660
     8972.633500       0.078589
     8980.691500       0.080538
     8988.764000       0.082507
     8996.851100       0.084496
     9004.952700       0.086505
     9013.068900       0.088535
     9021.199800       0.090585
     9029.345400       0.092656
     9037.505600       0.094747
     9045.680700       0.096859
     9053.870500       0.098992
     9062.075200       0.101146
     9070.294800       0.103320
     9078.529300       0.105516
     9086.778700       0.107733
     9095.043200       0.109971
     9103.322700       0.112230
     9111.617300       0.114511
     9119.927000       0.116813
     9128.251900       0.119137
     9136.592100       0.121483
     9144.947400       0.123850
     9153.318100       0.126239
     9161.704100       0.128651
     9170.105500       0.131084
     9178.522300       0.133540
     9186.954500       0.136018
     9195.402300       0.138518
     9203.865600       0.141041
     9212.344500       0.143586
     9220.839100       0.146154
     9229.349300       0.148745
     9237.875300       0.151358
     9246.417000       0.153994
     9254.974500       0.156653
     9263.547900       0.159336
     9272.137200       0.162040
     9280.742500       0.164769
     9289.363700       0.167520
     9298.000900       0.170294
     9306.654300       0.173092
     9315.323700       0.175913
     9324.009300       0.178757
     9332.711200       0.181625
     9341.429200       0.184515
     9350.163600       0.187430
     9358.914400       0.190367
     9367.681500       0.193328
     9376.465100       0.196313
     9385.265100       0.199320
     9394.081700       0.202352
     9402.914900       0.205406
     9411.764700       0.208484
     9420.631200       0.211586
     9429.514400       0.214710
     9438.414300       0.217858
     9447.331100       0.221029
     9456.264800       0.224224
     9465.215300       0.227441
     9474.182900       0.230682
     9483.167400       0.233945
     9492.169000       0.237232
     9501.187600       0.240542
     9510.223500       0.243874
     9519.276500       0.247229
     9528.346800       0.250607
     9537.434400       0.254007
     9546.539400       0.257430
     9555.661700       0.260875
     9564.801500       0.264342
     9573.958800       0.267832
     9583.133700       0.271343
     9592.326100       0.274876
     9601.536200       0.278431
     9610.764100       0.282008
     9620.009600       0.285606
     9629.273000       0.289225
     9638.554200       0.292865
     9647.853400       0.296526
     9657.170400       0.300208
     9666.505600       0.303910
     9675.858700       0.307633
     9685.230000       0.311376
     9694.619500       0.315139
     9704.027200       0.318922
     9713.453100       0.322724
     9722.897400       0.326546
     9732.360100       0.330386
     9741.841200       0.334246
     9751.340800       0.338124
     9760.859000       0.342021
     9770.395700       0.345936
     9779.951100       0.349868
     9789.525200       0.353818
     9799.118100       0.357786
     9808.729800       0.361771
     9818.360300       0.365773
     9828.009800       0.369790
     9837.678300       0.373825
     9847.365800       0.377876
     9857.072400       0.381942
     9866.798200       0.386023
     9876.543200       0.390119
     9886.307500       0.394231
     9896.091000       0.398357
     9905.894000       0.402497
     9915.716400       0.406650
     9925.558300       0.410817
     9935.419800       0.414998
     9945.300800       0.419191
     9955.201600       0.423396
     9965.122100       0.427614
     9975.062300       0.431843
     9985.022500       0.436084
     9995.002500       0.440337
    10005.002500       0.444599
    10015.022500       0.448872
    10025.062700       0.453155
    10035.122900       0.457447
    10045.203400       0.461748
    10055.304200       0.466059
    10065.425300       0.470377
    10075.566800       0.474704
    10085.728700       0.479038
    10095.911200       0.483380
    10106.114200       0.487728
    10116.337900       0.492083
    10126.582300       0.496444
    10136.847400       0.500810
    10147.133400       0.505182
    10157.440300       0.509558
    10167.768200       0.513938
    10178.117000       0.518323
    10188.487000       0.522711
    10198.878100       0.527102
    10209.290500       0.531496
    10219.724100       0.535892
    10230.179000       0.540290
    10240.655400       0.544689
    10251.153300       0.549089
    10261.672700       0.553490
    10272.213700       0.557890
    10282.776300       0.562290
    10293.360800       0.566690
    10303.967000       0.571088
    10314.595200       0.575484
    10325.245200       0.579879
    10335.917300       0.584270
    10346.611500       0.588659
    10357.327800       0.593044
    10368.066400       0.597425
    10378.827200       0.601802
    10389.610400       0.606174
    10400.416000       0.610540
    10411.244100       0.614901
    10422.094800       0.619255
    10432.968200       0.623603
    10443.864200       0.627944
    10454.783100       0.632277
    10465.724800       0.636603
    10476.689400       0.640919
    10487.677000       0.645227
    10498.687700       0.649526
    10509.721500       0.653815
    10520.778500       0.658093
    10531.858900       0.662361
    10542.962600       0.666618
    10554.089700       0.670863
    10565.240400       0.675096
    10576.414600       0.679316
    10587.612500       0.683524
    10598.834100       0.687718
    10610.079600       0.691899
    10621.348900       0.696065
    10632.642200       0.700217
    10643.959600       0.704354
    10655.301000       0.708475
    10666.666700       0.712580
    10678.056600       0.716668
    10689.470900       0.720740
    10700.909600       0.724795
    10712.372800       0.728832
    10723.860600       0.732851
    10735.373100       0.736851
    10746.910300       0.740833
    10758.472300       0.744796
    10770.059200       0.748738
    10781.671200       0.752661
    10793.308100       0.756563
    10804.970300       0.760444
    10816.657700       0.764304
    10828.370300       0.768142
    10840.108400       0.771958
    10851.871900       0.775751
    10863.661100       0.779522
    10875.475800       0.783270
    10887.316300       0.786994
    10899.182600       0.790694
    10911.074700       0.794369
    10922.992900       0.798020
    10934.937100       0.801646
    10946.907500       0.805247
    10958.904100       0.808821
    10970.927000       0.812370
    10982.976400       0.815892
    10995.052200       0.819388
    11007.154700       0.822856
    11019.283700       0.826297
    11031.439600       0.829710
    11043.622300       0.833095
    11055.832000       0.836452
    11068.068600       0.839780
    11080.332400       0.843079
    11092.623400       0.846349
    11104.941700       0.849589
    11117.287400       0.852799
    11129.660500       0.855979
    11142.061300       0.859129
    11154.489700       0.862247
    11166.945800       0.865335
    11179.429800       0.868392
    11191.941800       0.871417
    11204.481800       0.874410
    11217.049900       0.877371
    11229.646300       0.880300
    11242.270900       0.883197
    11254.924000       0.886061
    11267.605600       0.888892
    11280.315800       0.891689
    11293.054800       0.894453
    11305.822500       0.897184
    11318.619100       0.899881
    11331.444800       0.902544
    11344.299500       0.905173
    11357.183400       0.907767
    11370.096600       0.910327
    11383.039300       0.912852
    11396.011400       0.915342
    11409.013100       0.917797
    11422.044500       0.920217
    11435.105800       0.922602
    11448.196900       0.924951
    11461.318100       0.927265
    11474.469300       0.929542
    11487.650800       0.931784
    11500.862600       0.933990
    11514.104800       0.936160
    11527.377500       0.938294
    11540.680900       0.940391
    11554.015000       0.942452
    11567.380000       0.944477
    11580.775900       0.946465
    11594.202900       0.948416
    11607.661100       0.950331
    11621.150500       0.952209
    11634.671300       0.954050
    11648.223600       0.955854
    11661.807600       0.957621
    11675.423200       0.959352
    11689.070700       0.961045
    11702.750100       0.962702
    11716.461600       0.964321
    11730.205300       0.965904
    11743.981200       0.967450
    11757.789500       0.968958
    11771.630400       0.970430
    11785.503800       0.971865
    11799.410000       0.973262
    11813.349100       0.974624
    11827.321100       0.975948
    11841.326200       0.977235
    11855.364600       0.978485
    11869.436200       0.979699
    11883.541300       0.980877
    11897.680000       0.982017
    11911.852300       0.983122
    11926.058400       0.984190
    11940.298500       0.985221
    11954.572600       0.986217
    11968.880900       0.987176
    11983.223500       0.988099
    11997.600500       0.988987
    12012.012000       0.989838
    12026.458200       0.990654
    12040.939200       0.991435
    12055.455100       0.992180
    12070.006000       0.992890
    12084.592100       0.993566
    12099.213600       0.994206
    12113.870400       0.994811
    12128.562800       0.995382
    12143.290800       0.995919
    12158.054700       0.996421
    12172.854500       0.996890
    12187.690400       0.997324
    12202.562500       0.997725
    12217.471000       0.998093
    12232.415900       0.998427
    12247.397400       0.998729
    12262.415700       0.998998
    12277.470800       0.999234
    12292.563000       0.999438
    12307.692300       0.999611
    12322.858900       0.999751
    12338.062900       0.999860
    12353.304500       0.999937
    12368.583800       0.999984
    12383.900900       1.000000
    12399.256000       0.999985
    12414.649300       0.999941
    12430.080800       0.999866
    12445.550700       0.999762
    12461.059200       0.999629
    12476.606400       0.999466
    12492.192400       0.999275
    12507.817400       0.999056
    12523.481500       0.998808
    12539.185000       0.998533
    12554.927800       0.998230
    12570.710200       0.997900
    12586.532400       0.997544
    12602.394500       0.997161
    12618.296500       0.996752
    12634.238800       0.996317
    12650.221400       0.995857
    12666.244500       0.995372
    12682.308200       0.994862
    12698.412700       0.994328
    12714.558200       0.993770
    12730.744700       0.993189
    12746.972600       0.992584
    12763.241900       0.991956
    12779.552700       0.991306
    12795.905300       0.990634
    12812.299800       0.989940
    12828.736400       0.989225
    12845.215200       0.988490
    12861.736300       0.987733
    12878.300100       0.986957
    12894.906500       0.986161
    12911.555800       0.985345
    12928.248200       0.984511
    12944.983800       0.983659
    12961.762800       0.982788
    12978.585300       0.981900
    12995.451600       0.980995
    13012.361700       0.980072
    13029.316000       0.979134
    13046.314400       0.978180
    13063.357300       0.977210
    13080.444700       0.976225
    13097.576900       0.975226
    13114.754100       0.974212
    13131.976400       0.973185
    13149.243900       0.972144
    13166.556900       0.971091
    13183.915600       0.970025
    13201.320100       0.968947
    13218.770700       0.967858
    13236.267400       0.966757
    13253.810500       0.965646
    13271.400100       0.964525
    13289.036500       0.963394
    13306.719900       0.962254
    13324.450400       0.961105
    13342.228200       0.959947
    13360.053400       0.958782
    13377.926400       0.957609
    13395.847300       0.956429
    13413.816200       0.955243
    13431.833400       0.954050
    13449.899100       0.952852
    13468.013500       0.951649
    13486.176700       0.950441
    13504.388900       0.949228
    13522.650400       0.948012
    13540.961400       0.946792
    13559.322000       0.945569
    13577.732500       0.944344
    13596.193100       0.943117
    13614.703900       0.941888
    13633.265200       0.940658
    13651.877100       0.939427
    13670.540000       0.938196
    13689.253900       0.936965
    13708.019200       0.935734
    13726.836000       0.934505
    13745.704500       0.933277
    13764.624900       0.932051
    13783.597500       0.930827
    13802.622500       0.929606
    13821.700100       0.928389
    13840.830400       0.927175
    13860.013900       0.925964
    13879.250500       0.924759
    13898.540700       0.923558
    13917.884500       0.922362
    13937.282200       0.921172
    13956.734100       0.919989
    13976.240400       0.918811
    13995.801300       0.917641
    14015.417000       0.916478
    14035.087700       0.915323
    14054.813800       0.914175
    14074.595400       0.913036
    14094.432700       0.911906
    14114.326000       0.910786
    14134.275600       0.909674
    14154.281700       0.908573
    14174.344400       0.907482
    14194.464200       0.906402
    14214.641100       0.905333
    14234.875400       0.904275
    14255.167500       0.903230
    14275.517500       0.902196
    14295.925700       0.901174
    14316.392300       0.900166
    14336.917600       0.899170
    14357.501800       0.898188
    14378.145200       0.897220
    14398.848100       0.896265
    14419.610700       0.895325
    14440.433200       0.894400
    14461.316000       0.893490
    14482.259200       0.892595
    14503.263200       0.891715
    14524.328200       0.890851
    14545.454500       0.890003
    14566.642400       0.889172
    14587.892000       0.888357
    14609.203800       0.887559
    14630.577900       0.886778
    14652.014700       0.886015
    14673.514300       0.885269
    14695.077100       0.884540
    14716.703500       0.883830
    14738.393500       0.883138
    14760.147600       0.882464
    14781.966000       0.881809
    14803.849000       0.881173
    14825.796900       0.880556
    14847.809900       0.879957
    14869.888500       0.879378
    14892.032800       0.878819
    14914.243100       0.878279
    14936.519800       0.877759
    14958.863100       0.877259
    14981.273400       0.876778
    15003.750900       0.876318
    15026.296000       0.875878
    15048.909000       0.875459
    15071.590100       0.875060
    15094.339600       0.874681
    15117.158000       0.874323
    15140.045400       0.873986
    15163.002300       0.873669
    15186.028900       0.873373
    15209.125500       0.873098
    15232.292500       0.872843
    15255.530100       0.872610
    15278.838800       0.872397
    15302.218800       0.872205
    15325.670500       0.872034
    15349.194200       0.871884
    15372.790200       0.871755
    15396.458800       0.871646
    15420.200500       0.871558
    15444.015400       0.871491
    15467.904100       0.871444
    15491.866800       0.871418
    15515.903800       0.871413
    15540.015500       0.871427
    15564.202300       0.871462
    15588.464500       0.871517
    15612.802500       0.871593
    15637.216600       0.871688
    15661.707100       0.871802
    15686.274500       0.871937
    15710.919100       0.872091
    15735.641200       0.872264
    15760.441300       0.872456
    15785.319700       0.872667
    15810.276700       0.872896
    15835.312700       0.873145
    15860.428200       0.873411
    15885.623500       0.873695
    15910.899000       0.873998
    15936.255000       0.874317
    15961.691900       0.874654
    15987.210200       0.875008
    16012.810200       0.875378
    16038.492400       0.875765
    16064.257000       0.876168
    16090.104600       0.876587
    16116.035500       0.877021
    16142.050000       0.877470
    16168.148700       0.877934
    16194.332000       0.878413
    16220.600200       0.878905
    16246.953700       0.879411
    16273.393000       0.879930
    16299.918500       0.880462
    16326.530600       0.881007
    16353.229800       0.881563
    16380.016400       0.882131
    16406.890900       0.882710
    16433.853700       0.883300
    16460.905300       0.883900
    16488.046200       0.884509
    16515.276600       0.885128
    16542.597200       0.885756
    16570.008300       0.886392
    16597.510400       0.887035
    16625.103900       0.887686
    16652.789300       0.888343
    16680.567100       0.889007
    16708.437800       0.889676
    16736.401700       0.890350
    16764.459300       0.891028
    16792.611300       0.891710
    16820.857900       0.892396
    16849.199700       0.893084
    16877.637100       0.893774
    16906.170800       0.894465
    16934.801000       0.895157
    16963.528400       0.895849
    16992.353400       0.896541
    17021.276600       0.897231
    17050.298400       0.897920
    17079.419300       0.898606
    17108.639900       0.899288
    17137.960600       0.899967
    17167.382000       0.900641
    17196.904600       0.901309
    17226.528900       0.901972
    17256.255400       0.902627
    17286.084700       0.903275
    17316.017300       0.903915
    17346.053800       0.904545
    17376.194600       0.905166
    17406.440400       0.905776
    17436.791600       0.906374
    17467.248900       0.906960
    17497.812800       0.907533
    17528.483800       0.908092
    17559.262500       0.908637
    17590.149500       0.909166
    17621.145400       0.909679
    17652.250700       0.910174
    17683.466000       0.910652
    17714.791900       0.911111
    17746.228900       0.911550
    17777.777800       0.911968
    17809.439000       0.912365
    17841.213200       0.912740
    17873.101000       0.913092
    17905.103000       0.913419
    17937.219700       0.913722
    17969.451900       0.913999
    18001.800200       0.914249
    18034.265100       0.914471
    18066.847300       0.914665
    18099.547500       0.914829
    18132.366300       0.914963
    18165.304300       0.915066
    18198.362100       0.915136
    18231.540600       0.915174
    18264.840200       0.915177
    18298.261700       0.915145
    18331.805700       0.915077
    18365.472900       0.914973
    18399.264000       0.914830
    18433.179700       0.914649
    18467.220700       0.914428
    18501.387600       0.914166
    18535.681200       0.913863
    18570.102100       0.913517
    18604.651200       0.913128
    18639.329000       0.912695
    18674.136300       0.912215
    18709.073900       0.911690
    18744.142500       0.911117
    18779.342700       0.910497
    18814.675400       0.909827
    18850.141400       0.909106
    18885.741300       0.908335
    18921.475900       0.907512
    18957.346000       0.906636
    18993.352300       0.905706
    19029.495700       0.904721
    19065.776900       0.903681
    19102.196800       0.902584
    19138.756000       0.901430
    19175.455400       0.900217
    19212.295900       0.898944
    19249.278200       0.897612
    19286.403100       0.896218
    19323.671500       0.894762
    19361.084200       0.893244
    19398.642100       0.891661
    19436.346000       0.890014
    19474.196700       0.888301
    19512.195100       0.886522
    19550.342100       0.884676
    19588.638600       0.882762
    19627.085400       0.880779
    19665.683400       0.878726
    19704.433500       0.876603
    19743.336600       0.874408
    19782.393700       0.872142
    19821.605600       0.869802
    19860.973200       0.867389
    19900.497500       0.864902
    19940.179500       0.862340
    19980.020000       0.859701
    20020.020000       0.856987
    20060.180500       0.854195
    20100.502500       0.851325
    20140.986900       0.848377
    20181.634700       0.845350
    20222.446900       0.842243
    20263.424500       0.839056
    20304.568500       0.835787
    20345.880000       0.832438
    20387.359800       0.829006
    20429.009200       0.825491
    20470.829100       0.821894
    20512.820500       0.818212
    20554.984600       0.814447
    20597.322300       0.810597
    20639.834900       0.806663
    20682.523300       0.802643
    20725.388600       0.798537
    20768.432000       0.794345
    20811.654500       0.790067
    20855.057400       0.785702
    20898.641600       0.781250
    20942.408400       0.776710
    20986.358900       0.772084
    21030.494200       0.767369
    21074.815600       0.762567
    21119.324200       0.757677
    21164.021200       0.752699
    21208.907700       0.747632
    21253.985100       0.742478
    21299.254500       0.737235
    21344.717200       0.731904
    21390.374300       0.726485
    21436.227200       0.720978
    21482.277100       0.715383
    21528.525300       0.709700
    21574.973000       0.703930
    21621.621600       0.698072
    21668.472400       0.692127
    21715.526600       0.686096
    21762.785600       0.679978
    21810.250800       0.673774
    21857.923500       0.667484
    21905.805000       0.661110
    21953.896800       0.654651
    22002.200200       0.648107
    22050.716600       0.641481
    22099.447500       0.634771
    22148.394200       0.627980
    22197.558300       0.621107
    22246.941000       0.614153
    22296.544000       0.607120
    22346.368700       0.600008
    22396.416600       0.592818
    22446.689100       0.585551
    22497.187900       0.578209
    22547.914300       0.570792
    22598.870100       0.563301
    22650.056600       0.555737
    22701.475600       0.548103
    22753.128600       0.540398
    22805.017100       0.532625
    22857.142900       0.524785
    22909.507400       0.516880
    22962.112500       0.508911
    23014.959700       0.500879
    23068.050700       0.492786
    23121.387300       0.484635
    23174.971000       0.476427
    23228.803700       0.468163
    23282.887100       0.459846
    23337.222900       0.451477
    23391.812900       0.443060
    23446.658900       0.434595
    23501.762600       0.426085
    23557.126000       0.417533
    23612.750900       0.408941
    23668.639100       0.400311
    23724.792400       0.391645
    23781.212800       0.382947
    23837.902300       0.374219
    23894.862600       0.365464
    23952.095800       0.356684
    24009.603800       0.347882
    24067.388700       0.339062
    24125.452400       0.330227
    24183.796900       0.321379
    24242.424200       0.312522
    24301.336600       0.303660
    24360.535900       0.294795
    24420.024400       0.285931
    24479.804200       0.277072
    24539.877300       0.268221
    24600.246000       0.259383
    24660.912500       0.250561
    24721.878900       0.241759
    24783.147500       0.232981
    24844.720500       0.224232
    24906.600200       0.215515
    24968.789000       0.206835
    25031.289100       0.198196
    25094.102900       0.189604
    25157.232700       0.181062
    25220.681000       0.172576
    25284.450100       0.164150
    25348.542500       0.155789
    25412.960600       0.147499
    25477.707000       0.139285
