05  , Filter noaa_11_avhrr_05.flt
Number of data points:
60
Wavenumber (cm-1)   Filter response
      781.250000       0.008951
      783.312900       0.008490
      785.375800       0.008633
      787.438700       0.009984
      789.501600       0.012747
      791.564500       0.015611
      793.627400       0.016908
      795.690300       0.018031
      797.753200       0.033048
      799.816100       0.079303
      801.879000       0.169431
      803.941900       0.291371
      806.004800       0.424998
      808.067700       0.551305
      810.130600       0.659584
      812.193500       0.743150
      814.256400       0.795815
      816.319300       0.822116
      818.382200       0.834359
      820.445100       0.844853
      822.508000       0.860919
      824.570900       0.882684
      826.633800       0.909697
      828.696700       0.940338
      830.759600       0.969424
      832.822500       0.990996
      834.885400       1.000000
      836.948300       0.997085
      839.011200       0.986137
      841.074100       0.970979
      843.137000       0.954913
      845.199900       0.940338
      847.262800       0.929650
      849.325700       0.924467
      851.388600       0.923236
      853.451500       0.923366
      855.514400       0.922135
      857.577300       0.917989
      859.640200       0.910928
      861.703100       0.901082
      863.766000       0.887996
      865.828900       0.868174
      867.891800       0.836821
      869.954700       0.789078
      872.017600       0.721902
      874.080500       0.636179
      876.143400       0.533536
      878.206300       0.415715
      880.269200       0.291022
      882.332100       0.174367
      884.395000       0.080968
      886.457900       0.024256
      888.520800       0.000984
      890.583700       0.000000
      892.646600       0.005313
      894.709500       0.009721
      896.772400       0.010279
      898.835300       0.008268
      900.898200       0.004973
      902.961100       0.000000
