142,   142, MVIRI VIS channel from srf_MET7_2015123_2015124_1801-Release_S10EE_10.dat
Number of data points:
793
Wavenumber (cm-1)   Filter response
     8442.380800       0.000000
     8449.514200       0.000000
     8456.659600       0.000004
     8463.817200       0.000057
     8470.986900       0.000169
     8478.168700       0.000337
     8485.362700       0.000561
     8492.569000       0.000839
     8499.787500       0.001169
     8507.018300       0.001550
     8514.261400       0.001980
     8521.516800       0.002457
     8528.784600       0.002981
     8536.064900       0.003551
     8543.357500       0.004164
     8550.662700       0.004820
     8557.980300       0.005517
     8565.310500       0.006254
     8572.653200       0.007031
     8580.008600       0.007846
     8587.376600       0.008698
     8594.757200       0.009587
     8602.150500       0.010511
     8609.556600       0.011469
     8616.975400       0.012461
     8624.407100       0.013485
     8631.851500       0.014542
     8639.308900       0.015630
     8646.779100       0.016749
     8654.262200       0.017897
     8661.758300       0.019075
     8669.267400       0.020281
     8676.789600       0.021515
     8684.324800       0.022777
     8691.873100       0.024066
     8699.434500       0.025381
     8707.009100       0.026723
     8714.596900       0.028090
     8722.198000       0.029482
     8729.812300       0.030899
     8737.439900       0.032340
     8745.080900       0.033805
     8752.735200       0.035294
     8760.403000       0.036807
     8768.084200       0.038343
     8775.778900       0.039901
     8783.487000       0.041482
     8791.208800       0.043086
     8798.944100       0.044711
     8806.693100       0.046359
     8814.455700       0.048029
     8822.232000       0.049720
     8830.022100       0.051433
     8837.825900       0.053167
     8845.643500       0.054922
     8853.475000       0.056699
     8861.320300       0.058497
     8869.179600       0.060316
     8877.052800       0.062156
     8884.940000       0.064016
     8892.841300       0.065898
     8900.756600       0.067800
     8908.686000       0.069724
     8916.629500       0.071668
     8924.587200       0.073633
     8932.559200       0.075619
     8940.545400       0.077625
     8948.545900       0.079653
     8956.560700       0.081701
     8964.589900       0.083771
     8972.633500       0.085861
     8980.691500       0.087972
     8988.764000       0.090105
     8996.851100       0.092258
     9004.952700       0.094433
     9013.068900       0.096629
     9021.199800       0.098846
     9029.345400       0.101085
     9037.505600       0.103345
     9045.680700       0.105627
     9053.870500       0.107931
     9062.075200       0.110256
     9070.294800       0.112603
     9078.529300       0.114972
     9086.778700       0.117363
     9095.043200       0.119776
     9103.322700       0.122210
     9111.617300       0.124668
     9119.927000       0.127147
     9128.251900       0.129650
     9136.592100       0.132174
     9144.947400       0.134721
     9153.318100       0.137291
     9161.704100       0.139884
     9170.105500       0.142499
     9178.522300       0.145138
     9186.954500       0.147799
     9195.402300       0.150484
     9203.865600       0.153191
     9212.344500       0.155922
     9220.839100       0.158676
     9229.349300       0.161453
     9237.875300       0.164254
     9246.417000       0.167078
     9254.974500       0.169926
     9263.547900       0.172798
     9272.137200       0.175692
     9280.742500       0.178611
     9289.363700       0.181553
     9298.000900       0.184519
     9306.654300       0.187509
     9315.323700       0.190522
     9324.009300       0.193559
     9332.711200       0.196620
     9341.429200       0.199705
     9350.163600       0.202813
     9358.914400       0.205945
     9367.681500       0.209102
     9376.465100       0.212282
     9385.265100       0.215485
     9394.081700       0.218712
     9402.914900       0.221963
     9411.764700       0.225238
     9420.631200       0.228536
     9429.514400       0.231857
     9438.414300       0.235203
     9447.331100       0.238571
     9456.264800       0.241963
     9465.215300       0.245378
     9474.182900       0.248816
     9483.167400       0.252278
     9492.169000       0.255762
     9501.187600       0.259270
     9510.223500       0.262800
     9519.276500       0.266352
     9528.346800       0.269928
     9537.434400       0.273526
     9546.539400       0.277146
     9555.661700       0.280788
     9564.801500       0.284452
     9573.958800       0.288139
     9583.133700       0.291847
     9592.326100       0.295576
     9601.536200       0.299327
     9610.764100       0.303098
     9620.009600       0.306891
     9629.273000       0.310705
     9638.554200       0.314539
     9647.853400       0.318394
     9657.170400       0.322269
     9666.505600       0.326164
     9675.858700       0.330078
     9685.230000       0.334012
     9694.619500       0.337966
     9704.027200       0.341938
     9713.453100       0.345929
     9722.897400       0.349939
     9732.360100       0.353967
     9741.841200       0.358013
     9751.340800       0.362076
     9760.859000       0.366157
     9770.395700       0.370256
     9779.951100       0.374370
     9789.525200       0.378502
     9799.118100       0.382650
     9808.729800       0.386814
     9818.360300       0.390994
     9828.009800       0.395188
     9837.678300       0.399398
     9847.365800       0.403623
     9857.072400       0.407861
     9866.798200       0.412114
     9876.543200       0.416380
     9886.307500       0.420660
     9896.091000       0.424953
     9905.894000       0.429257
     9915.716400       0.433575
     9925.558300       0.437904
     9935.419800       0.442244
     9945.300800       0.446596
     9955.201600       0.450958
     9965.122100       0.455331
     9975.062300       0.459713
     9985.022500       0.464106
     9995.002500       0.468507
    10005.002500       0.472917
    10015.022500       0.477335
    10025.062700       0.481761
    10035.122900       0.486194
    10045.203400       0.490634
    10055.304200       0.495082
    10065.425300       0.499535
    10075.566800       0.503994
    10085.728700       0.508458
    10095.911200       0.512928
    10106.114200       0.517401
    10116.337900       0.521879
    10126.582300       0.526360
    10136.847400       0.530844
    10147.133400       0.535331
    10157.440300       0.539820
    10167.768200       0.544311
    10178.117000       0.548803
    10188.487000       0.553296
    10198.878100       0.557790
    10209.290500       0.562283
    10219.724100       0.566776
    10230.179000       0.571268
    10240.655400       0.575758
    10251.153300       0.580246
    10261.672700       0.584732
    10272.213700       0.589215
    10282.776300       0.593695
    10293.360800       0.598170
    10303.967000       0.602642
    10314.595200       0.607108
    10325.245200       0.611569
    10335.917300       0.616025
    10346.611500       0.620474
    10357.327800       0.624917
    10368.066400       0.629352
    10378.827200       0.633780
    10389.610400       0.638200
    10400.416000       0.642610
    10411.244100       0.647012
    10422.094800       0.651404
    10432.968200       0.655786
    10443.864200       0.660158
    10454.783100       0.664519
    10465.724800       0.668868
    10476.689400       0.673205
    10487.677000       0.677530
    10498.687700       0.681842
    10509.721500       0.686140
    10520.778500       0.690425
    10531.858900       0.694695
    10542.962600       0.698951
    10554.089700       0.703191
    10565.240400       0.707415
    10576.414600       0.711624
    10587.612500       0.715815
    10598.834100       0.719990
    10610.079600       0.724147
    10621.348900       0.728287
    10632.642200       0.732407
    10643.959600       0.736509
    10655.301000       0.740592
    10666.666700       0.744654
    10678.056600       0.748697
    10689.470900       0.752719
    10700.909600       0.756720
    10712.372800       0.760699
    10723.860600       0.764656
    10735.373100       0.768591
    10746.910300       0.772504
    10758.472300       0.776393
    10770.059200       0.780258
    10781.671200       0.784100
    10793.308100       0.787917
    10804.970300       0.791709
    10816.657700       0.795476
    10828.370300       0.799217
    10840.108400       0.802932
    10851.871900       0.806621
    10863.661100       0.810283
    10875.475800       0.813918
    10887.316300       0.817526
    10899.182600       0.821105
    10911.074700       0.824657
    10922.992900       0.828179
    10934.937100       0.831673
    10946.907500       0.835137
    10958.904100       0.838572
    10970.927000       0.841976
    10982.976400       0.845351
    10995.052200       0.848694
    11007.154700       0.852007
    11019.283700       0.855288
    11031.439600       0.858538
    11043.622300       0.861756
    11055.832000       0.864941
    11068.068600       0.868094
    11080.332400       0.871214
    11092.623400       0.874301
    11104.941700       0.877354
    11117.287400       0.880374
    11129.660500       0.883360
    11142.061300       0.886312
    11154.489700       0.889229
    11166.945800       0.892111
    11179.429800       0.894959
    11191.941800       0.897771
    11204.481800       0.900548
    11217.049900       0.903289
    11229.646300       0.905994
    11242.270900       0.908663
    11254.924000       0.911296
    11267.605600       0.913892
    11280.315800       0.916451
    11293.054800       0.918974
    11305.822500       0.921459
    11318.619100       0.923907
    11331.444800       0.926318
    11344.299500       0.928691
    11357.183400       0.931026
    11370.096600       0.933324
    11383.039300       0.935583
    11396.011400       0.937804
    11409.013100       0.939986
    11422.044500       0.942131
    11435.105800       0.944236
    11448.196900       0.946303
    11461.318100       0.948331
    11474.469300       0.950320
    11487.650800       0.952270
    11500.862600       0.954181
    11514.104800       0.956053
    11527.377500       0.957886
    11540.680900       0.959679
    11554.015000       0.961433
    11567.380000       0.963148
    11580.775900       0.964823
    11594.202900       0.966458
    11607.661100       0.968054
    11621.150500       0.969611
    11634.671300       0.971128
    11648.223600       0.972605
    11661.807600       0.974043
    11675.423200       0.975441
    11689.070700       0.976800
    11702.750100       0.978119
    11716.461600       0.979398
    11730.205300       0.980638
    11743.981200       0.981839
    11757.789500       0.983000
    11771.630400       0.984122
    11785.503800       0.985204
    11799.410000       0.986248
    11813.349100       0.987252
    11827.321100       0.988217
    11841.326200       0.989143
    11855.364600       0.990030
    11869.436200       0.990878
    11883.541300       0.991688
    11897.680000       0.992459
    11911.852300       0.993191
    11926.058400       0.993885
    11940.298500       0.994541
    11954.572600       0.995159
    11968.880900       0.995739
    11983.223500       0.996281
    11997.600500       0.996785
    12012.012000       0.997252
    12026.458200       0.997682
    12040.939200       0.998074
    12055.455100       0.998430
    12070.006000       0.998749
    12084.592100       0.999031
    12099.213600       0.999277
    12113.870400       0.999486
    12128.562800       0.999660
    12143.290800       0.999798
    12158.054700       0.999901
    12172.854500       0.999968
    12187.690400       1.000000
    12202.562500       0.999997
    12217.471000       0.999960
    12232.415900       0.999889
    12247.397400       0.999783
    12262.415700       0.999644
    12277.470800       0.999471
    12292.563000       0.999265
    12307.692300       0.999026
    12322.858900       0.998755
    12338.062900       0.998451
    12353.304500       0.998115
    12368.583800       0.997747
    12383.900900       0.997347
    12399.256000       0.996917
    12414.649300       0.996456
    12430.080800       0.995964
    12445.550700       0.995442
    12461.059200       0.994890
    12476.606400       0.994308
    12492.192400       0.993698
    12507.817400       0.993058
    12523.481500       0.992390
    12539.185000       0.991694
    12554.927800       0.990970
    12570.710200       0.990218
    12586.532400       0.989440
    12602.394500       0.988635
    12618.296500       0.987803
    12634.238800       0.986946
    12650.221400       0.986063
    12666.244500       0.985155
    12682.308200       0.984222
    12698.412700       0.983264
    12714.558200       0.982283
    12730.744700       0.981278
    12746.972600       0.980249
    12763.241900       0.979198
    12779.552700       0.978125
    12795.905300       0.977029
    12812.299800       0.975912
    12828.736400       0.974774
    12845.215200       0.973615
    12861.736300       0.972436
    12878.300100       0.971236
    12894.906500       0.970018
    12911.555800       0.968780
    12928.248200       0.967524
    12944.983800       0.966249
    12961.762800       0.964956
    12978.585300       0.963647
    12995.451600       0.962320
    13012.361700       0.960977
    13029.316000       0.959618
    13046.314400       0.958244
    13063.357300       0.956854
    13080.444700       0.955450
    13097.576900       0.954031
    13114.754100       0.952599
    13131.976400       0.951153
    13149.243900       0.949694
    13166.556900       0.948223
    13183.915600       0.946740
    13201.320100       0.945246
    13218.770700       0.943740
    13236.267400       0.942224
    13253.810500       0.940697
    13271.400100       0.939161
    13289.036500       0.937616
    13306.719900       0.936062
    13324.450400       0.934499
    13342.228200       0.932929
    13360.053400       0.931351
    13377.926400       0.929766
    13395.847300       0.928174
    13413.816200       0.926577
    13431.833400       0.924973
    13449.899100       0.923365
    13468.013500       0.921752
    13486.176700       0.920134
    13504.388900       0.918513
    13522.650400       0.916888
    13540.961400       0.915260
    13559.322000       0.913630
    13577.732500       0.911998
    13596.193100       0.910363
    13614.703900       0.908728
    13633.265200       0.907092
    13651.877100       0.905455
    13670.540000       0.903819
    13689.253900       0.902183
    13708.019200       0.900548
    13726.836000       0.898914
    13745.704500       0.897282
    13764.624900       0.895653
    13783.597500       0.894025
    13802.622500       0.892401
    13821.700100       0.890781
    13840.830400       0.889164
    13860.013900       0.887551
    13879.250500       0.885943
    13898.540700       0.884340
    13917.884500       0.882742
    13937.282200       0.881150
    13956.734100       0.879564
    13976.240400       0.877985
    13995.801300       0.876413
    14015.417000       0.874848
    14035.087700       0.873290
    14054.813800       0.871741
    14074.595400       0.870200
    14094.432700       0.868668
    14114.326000       0.867144
    14134.275600       0.865631
    14154.281700       0.864127
    14174.344400       0.862633
    14194.464200       0.861149
    14214.641100       0.859677
    14234.875400       0.858215
    14255.167500       0.856765
    14275.517500       0.855326
    14295.925700       0.853900
    14316.392300       0.852486
    14336.917600       0.851084
    14357.501800       0.849695
    14378.145200       0.848320
    14398.848100       0.846958
    14419.610700       0.845609
    14440.433200       0.844275
    14461.316000       0.842955
    14482.259200       0.841649
    14503.263200       0.840358
    14524.328200       0.839082
    14545.454500       0.837821
    14566.642400       0.836576
    14587.892000       0.835346
    14609.203800       0.834132
    14630.577900       0.832934
    14652.014700       0.831752
    14673.514300       0.830587
    14695.077100       0.829438
    14716.703500       0.828306
    14738.393500       0.827192
    14760.147600       0.826094
    14781.966000       0.825013
    14803.849000       0.823950
    14825.796900       0.822905
    14847.809900       0.821877
    14869.888500       0.820867
    14892.032800       0.819875
    14914.243100       0.818901
    14936.519800       0.817945
    14958.863100       0.817007
    14981.273400       0.816088
    15003.750900       0.815187
    15026.296000       0.814305
    15048.909000       0.813441
    15071.590100       0.812595
    15094.339600       0.811769
    15117.158000       0.810961
    15140.045400       0.810171
    15163.002300       0.809401
    15186.028900       0.808649
    15209.125500       0.807915
    15232.292500       0.807201
    15255.530100       0.806505
    15278.838800       0.805828
    15302.218800       0.805169
    15325.670500       0.804529
    15349.194200       0.803908
    15372.790200       0.803305
    15396.458800       0.802721
    15420.200500       0.802155
    15444.015400       0.801607
    15467.904100       0.801077
    15491.866800       0.800565
    15515.903800       0.800072
    15540.015500       0.799596
    15564.202300       0.799138
    15588.464500       0.798697
    15612.802500       0.798274
    15637.216600       0.797868
    15661.707100       0.797480
    15686.274500       0.797108
    15710.919100       0.796753
    15735.641200       0.796414
    15760.441300       0.796092
    15785.319700       0.795786
    15810.276700       0.795496
    15835.312700       0.795221
    15860.428200       0.794962
    15885.623500       0.794718
    15910.899000       0.794490
    15936.255000       0.794276
    15961.691900       0.794076
    15987.210200       0.793890
    16012.810200       0.793718
    16038.492400       0.793560
    16064.257000       0.793415
    16090.104600       0.793283
    16116.035500       0.793164
    16142.050000       0.793056
    16168.148700       0.792961
    16194.332000       0.792877
    16220.600200       0.792805
    16246.953700       0.792743
    16273.393000       0.792692
    16299.918500       0.792650
    16326.530600       0.792619
    16353.229800       0.792597
    16380.016400       0.792583
    16406.890900       0.792578
    16433.853700       0.792581
    16460.905300       0.792591
    16488.046200       0.792609
    16515.276600       0.792633
    16542.597200       0.792663
    16570.008300       0.792699
    16597.510400       0.792741
    16625.103900       0.792787
    16652.789300       0.792837
    16680.567100       0.792891
    16708.437800       0.792948
    16736.401700       0.793008
    16764.459300       0.793071
    16792.611300       0.793135
    16820.857900       0.793200
    16849.199700       0.793265
    16877.637100       0.793331
    16906.170800       0.793396
    16934.801000       0.793460
    16963.528400       0.793522
    16992.353400       0.793582
    17021.276600       0.793639
    17050.298400       0.793693
    17079.419300       0.793742
    17108.639900       0.793787
    17137.960600       0.793827
    17167.382000       0.793861
    17196.904600       0.793888
    17226.528900       0.793908
    17256.255400       0.793920
    17286.084700       0.793924
    17316.017300       0.793919
    17346.053800       0.793904
    17376.194600       0.793878
    17406.440400       0.793842
    17436.791600       0.793794
    17467.248900       0.793733
    17497.812800       0.793659
    17528.483800       0.793572
    17559.262500       0.793470
    17590.149500       0.793353
    17621.145400       0.793220
    17652.250700       0.793071
    17683.466000       0.792904
    17714.791900       0.792719
    17746.228900       0.792516
    17777.777800       0.792293
    17809.439000       0.792051
    17841.213200       0.791787
    17873.101000       0.791502
    17905.103000       0.791195
    17937.219700       0.790864
    17969.451900       0.790510
    18001.800200       0.790132
    18034.265100       0.789728
    18066.847300       0.789299
    18099.547500       0.788843
    18132.366300       0.788360
    18165.304300       0.787848
    18198.362100       0.787308
    18231.540600       0.786738
    18264.840200       0.786138
    18298.261700       0.785507
    18331.805700       0.784844
    18365.472900       0.784149
    18399.264000       0.783420
    18433.179700       0.782658
    18467.220700       0.781861
    18501.387600       0.781028
    18535.681200       0.780160
    18570.102100       0.779254
    18604.651200       0.778311
    18639.329000       0.777330
    18674.136300       0.776310
    18709.073900       0.775250
    18744.142500       0.774149
    18779.342700       0.773008
    18814.675400       0.771824
    18850.141400       0.770598
    18885.741300       0.769329
    18921.475900       0.768016
    18957.346000       0.766659
    18993.352300       0.765256
    19029.495700       0.763807
    19065.776900       0.762312
    19102.196800       0.760769
    19138.756000       0.759179
    19175.455400       0.757540
    19212.295900       0.755851
    19249.278200       0.754113
    19286.403100       0.752325
    19323.671500       0.750485
    19361.084200       0.748594
    19398.642100       0.746651
    19436.346000       0.744654
    19474.196700       0.742605
    19512.195100       0.740501
    19550.342100       0.738343
    19588.638600       0.736129
    19627.085400       0.733860
    19665.683400       0.731535
    19704.433500       0.729153
    19743.336600       0.726714
    19782.393700       0.724218
    19821.605600       0.721663
    19860.973200       0.719049
    19900.497500       0.716377
    19940.179500       0.713645
    19980.020000       0.710853
    20020.020000       0.708000
    20060.180500       0.705087
    20100.502500       0.702113
    20140.986900       0.699077
    20181.634700       0.695980
    20222.446900       0.692820
    20263.424500       0.689598
    20304.568500       0.686313
    20345.880000       0.682965
    20387.359800       0.679553
    20429.009200       0.676078
    20470.829100       0.672539
    20512.820500       0.668937
    20554.984600       0.665269
    20597.322300       0.661538
    20639.834900       0.657742
    20682.523300       0.653881
    20725.388600       0.649956
    20768.432000       0.645965
    20811.654500       0.641910
    20855.057400       0.637790
    20898.641600       0.633605
    20942.408400       0.629354
    20986.358900       0.625039
    21030.494200       0.620659
    21074.815600       0.616214
    21119.324200       0.611704
    21164.021200       0.607130
    21208.907700       0.602491
    21253.985100       0.597788
    21299.254500       0.593020
    21344.717200       0.588189
    21390.374300       0.583294
    21436.227200       0.578336
    21482.277100       0.573315
    21528.525300       0.568231
    21574.973000       0.563085
    21621.621600       0.557877
    21668.472400       0.552608
    21715.526600       0.547277
    21762.785600       0.541886
    21810.250800       0.536435
    21857.923500       0.530925
    21905.805000       0.525355
    21953.896800       0.519728
    22002.200200       0.514043
    22050.716600       0.508301
    22099.447500       0.502502
    22148.394200       0.496649
    22197.558300       0.490741
    22246.941000       0.484779
    22296.544000       0.478764
    22346.368700       0.472697
    22396.416600       0.466579
    22446.689100       0.460411
    22497.187900       0.454194
    22547.914300       0.447929
    22598.870100       0.441617
    22650.056600       0.435259
    22701.475600       0.428857
    22753.128600       0.422411
    22805.017100       0.415923
    22857.142900       0.409395
    22909.507400       0.402827
    22962.112500       0.396221
    23014.959700       0.389578
    23068.050700       0.382900
    23121.387300       0.376188
    23174.971000       0.369444
    23228.803700       0.362670
    23282.887100       0.355867
    23337.222900       0.349037
    23391.812900       0.342181
    23446.658900       0.335302
    23501.762600       0.328402
    23557.126000       0.321481
    23612.750900       0.314542
    23668.639100       0.307588
    23724.792400       0.300620
    23781.212800       0.293640
    23837.902300       0.286650
    23894.862600       0.279653
    23952.095800       0.272651
    24009.603800       0.265646
    24067.388700       0.258640
    24125.452400       0.251637
    24183.796900       0.244638
    24242.424200       0.237646
    24301.336600       0.230663
    24360.535900       0.223692
    24420.024400       0.216737
    24479.804200       0.209798
    24539.877300       0.202881
    24600.246000       0.195986
    24660.912500       0.189118
    24721.878900       0.182279
    24783.147500       0.175472
    24844.720500       0.168700
    24906.600200       0.161967
    24968.789000       0.155275
    25031.289100       0.148629
    25094.102900       0.142031
    25157.232700       0.135484
    25220.681000       0.128993
    25284.450100       0.122561
    25348.542500       0.116191
    25412.960600       0.109887
    25477.707000       0.103653
