65,   65, MVIRI VIS channel from srf_MET2_1990078_1990079_1801-Release_S10EL_10.dat
Number of data points:
730
Wavenumber (cm-1)   Filter response
     8916.629500       0.000000
     8924.587200       0.000000
     8932.559200       0.000002
     8940.545400       0.000012
     8948.545900       0.000033
     8956.560700       0.000070
     8964.589900       0.000128
     8972.633500       0.000210
     8980.691500       0.000322
     8988.764000       0.000467
     8996.851100       0.000647
     9004.952700       0.000868
     9013.068900       0.001133
     9021.199800       0.001444
     9029.345400       0.001804
     9037.505600       0.002217
     9045.680700       0.002686
     9053.870500       0.003213
     9062.075200       0.003800
     9070.294800       0.004451
     9078.529300       0.005166
     9086.778700       0.005949
     9095.043200       0.006801
     9103.322700       0.007725
     9111.617300       0.008721
     9119.927000       0.009792
     9128.251900       0.010940
     9136.592100       0.012164
     9144.947400       0.013468
     9153.318100       0.014852
     9161.704100       0.016317
     9170.105500       0.017864
     9178.522300       0.019494
     9186.954500       0.021208
     9195.402300       0.023007
     9203.865600       0.024891
     9212.344500       0.026861
     9220.839100       0.028918
     9229.349300       0.031061
     9237.875300       0.033291
     9246.417000       0.035608
     9254.974500       0.038013
     9263.547900       0.040506
     9272.137200       0.043085
     9280.742500       0.045753
     9289.363700       0.048507
     9298.000900       0.051349
     9306.654300       0.054278
     9315.323700       0.057293
     9324.009300       0.060395
     9332.711200       0.063582
     9341.429200       0.066855
     9350.163600       0.070212
     9358.914400       0.073654
     9367.681500       0.077180
     9376.465100       0.080788
     9385.265100       0.084479
     9394.081700       0.088251
     9402.914900       0.092104
     9411.764700       0.096036
     9420.631200       0.100048
     9429.514400       0.104138
     9438.414300       0.108305
     9447.331100       0.112547
     9456.264800       0.116865
     9465.215300       0.121257
     9474.182900       0.125722
     9483.167400       0.130259
     9492.169000       0.134866
     9501.187600       0.139543
     9510.223500       0.144289
     9519.276500       0.149101
     9528.346800       0.153979
     9537.434400       0.158923
     9546.539400       0.163929
     9555.661700       0.168997
     9564.801500       0.174126
     9573.958800       0.179315
     9583.133700       0.184562
     9592.326100       0.189866
     9601.536200       0.195225
     9610.764100       0.200637
     9620.009600       0.206103
     9629.273000       0.211620
     9638.554200       0.217187
     9647.853400       0.222802
     9657.170400       0.228464
     9666.505600       0.234171
     9675.858700       0.239923
     9685.230000       0.245717
     9694.619500       0.251553
     9704.027200       0.257428
     9713.453100       0.263342
     9722.897400       0.269293
     9732.360100       0.275279
     9741.841200       0.281299
     9751.340800       0.287351
     9760.859000       0.293435
     9770.395700       0.299549
     9779.951100       0.305690
     9789.525200       0.311858
     9799.118100       0.318052
     9808.729800       0.324269
     9818.360300       0.330510
     9828.009800       0.336770
     9837.678300       0.343051
     9847.365800       0.349350
     9857.072400       0.355665
     9866.798200       0.361997
     9876.543200       0.368341
     9886.307500       0.374699
     9896.091000       0.381069
     9905.894000       0.387447
     9915.716400       0.393835
     9925.558300       0.400230
     9935.419800       0.406631
     9945.300800       0.413037
     9955.201600       0.419445
     9965.122100       0.425856
     9975.062300       0.432267
     9985.022500       0.438678
     9995.002500       0.445087
    10005.002500       0.451494
    10015.022500       0.457895
    10025.062700       0.464292
    10035.122900       0.470681
    10045.203400       0.477063
    10055.304200       0.483436
    10065.425300       0.489799
    10075.566800       0.496150
    10085.728700       0.502489
    10095.911200       0.508814
    10106.114200       0.515125
    10116.337900       0.521419
    10126.582300       0.527697
    10136.847400       0.533957
    10147.133400       0.540199
    10157.440300       0.546420
    10167.768200       0.552620
    10178.117000       0.558799
    10188.487000       0.564954
    10198.878100       0.571086
    10209.290500       0.577193
    10219.724100       0.583274
    10230.179000       0.589329
    10240.655400       0.595356
    10251.153300       0.601355
    10261.672700       0.607324
    10272.213700       0.613264
    10282.776300       0.619172
    10293.360800       0.625050
    10303.967000       0.630894
    10314.595200       0.636705
    10325.245200       0.642482
    10335.917300       0.648225
    10346.611500       0.653932
    10357.327800       0.659603
    10368.066400       0.665237
    10378.827200       0.670834
    10389.610400       0.676392
    10400.416000       0.681912
    10411.244100       0.687392
    10422.094800       0.692832
    10432.968200       0.698232
    10443.864200       0.703591
    10454.783100       0.708907
    10465.724800       0.714182
    10476.689400       0.719414
    10487.677000       0.724602
    10498.687700       0.729747
    10509.721500       0.734848
    10520.778500       0.739904
    10531.858900       0.744914
    10542.962600       0.749880
    10554.089700       0.754799
    10565.240400       0.759672
    10576.414600       0.764498
    10587.612500       0.769277
    10598.834100       0.774009
    10610.079600       0.778693
    10621.348900       0.783328
    10632.642200       0.787916
    10643.959600       0.792455
    10655.301000       0.796944
    10666.666700       0.801385
    10678.056600       0.805776
    10689.470900       0.810117
    10700.909600       0.814409
    10712.372800       0.818650
    10723.860600       0.822841
    10735.373100       0.826982
    10746.910300       0.831072
    10758.472300       0.835111
    10770.059200       0.839099
    10781.671200       0.843036
    10793.308100       0.846922
    10804.970300       0.850757
    10816.657700       0.854540
    10828.370300       0.858272
    10840.108400       0.861953
    10851.871900       0.865581
    10863.661100       0.869159
    10875.475800       0.872684
    10887.316300       0.876158
    10899.182600       0.879580
    10911.074700       0.882951
    10922.992900       0.886270
    10934.937100       0.889537
    10946.907500       0.892753
    10958.904100       0.895917
    10970.927000       0.899030
    10982.976400       0.902091
    10995.052200       0.905100
    11007.154700       0.908059
    11019.283700       0.910966
    11031.439600       0.913823
    11043.622300       0.916628
    11055.832000       0.919382
    11068.068600       0.922086
    11080.332400       0.924739
    11092.623400       0.927342
    11104.941700       0.929894
    11117.287400       0.932396
    11129.660500       0.934848
    11142.061300       0.937250
    11154.489700       0.939603
    11166.945800       0.941906
    11179.429800       0.944160
    11191.941800       0.946365
    11204.481800       0.948521
    11217.049900       0.950629
    11229.646300       0.952687
    11242.270900       0.954698
    11254.924000       0.956661
    11267.605600       0.958576
    11280.315800       0.960444
    11293.054800       0.962264
    11305.822500       0.964037
    11318.619100       0.965764
    11331.444800       0.967444
    11344.299500       0.969078
    11357.183400       0.970666
    11370.096600       0.972208
    11383.039300       0.973705
    11396.011400       0.975157
    11409.013100       0.976564
    11422.044500       0.977926
    11435.105800       0.979245
    11448.196900       0.980519
    11461.318100       0.981750
    11474.469300       0.982937
    11487.650800       0.984081
    11500.862600       0.985183
    11514.104800       0.986242
    11527.377500       0.987259
    11540.680900       0.988235
    11554.015000       0.989169
    11567.380000       0.990061
    11580.775900       0.990913
    11594.202900       0.991725
    11607.661100       0.992496
    11621.150500       0.993227
    11634.671300       0.993919
    11648.223600       0.994572
    11661.807600       0.995186
    11675.423200       0.995761
    11689.070700       0.996298
    11702.750100       0.996798
    11716.461600       0.997259
    11730.205300       0.997684
    11743.981200       0.998072
    11757.789500       0.998423
    11771.630400       0.998738
    11785.503800       0.999017
    11799.410000       0.999261
    11813.349100       0.999469
    11827.321100       0.999643
    11841.326200       0.999782
    11855.364600       0.999887
    11869.436200       0.999958
    11883.541300       0.999996
    11897.680000       1.000000
    11911.852300       0.999972
    11926.058400       0.999910
    11940.298500       0.999817
    11954.572600       0.999692
    11968.880900       0.999535
    11983.223500       0.999348
    11997.600500       0.999129
    12012.012000       0.998879
    12026.458200       0.998600
    12040.939200       0.998290
    12055.455100       0.997951
    12070.006000       0.997583
    12084.592100       0.997185
    12099.213600       0.996759
    12113.870400       0.996304
    12128.562800       0.995822
    12143.290800       0.995311
    12158.054700       0.994773
    12172.854500       0.994208
    12187.690400       0.993616
    12202.562500       0.992998
    12217.471000       0.992353
    12232.415900       0.991682
    12247.397400       0.990986
    12262.415700       0.990264
    12277.470800       0.989517
    12292.563000       0.988745
    12307.692300       0.987949
    12322.858900       0.987128
    12338.062900       0.986284
    12353.304500       0.985415
    12368.583800       0.984523
    12383.900900       0.983608
    12399.256000       0.982670
    12414.649300       0.981709
    12430.080800       0.980726
    12445.550700       0.979721
    12461.059200       0.978693
    12476.606400       0.977644
    12492.192400       0.976574
    12507.817400       0.975482
    12523.481500       0.974370
    12539.185000       0.973237
    12554.927800       0.972083
    12570.710200       0.970909
    12586.532400       0.969715
    12602.394500       0.968501
    12618.296500       0.967267
    12634.238800       0.966015
    12650.221400       0.964743
    12666.244500       0.963452
    12682.308200       0.962142
    12698.412700       0.960814
    12714.558200       0.959467
    12730.744700       0.958103
    12746.972600       0.956720
    12763.241900       0.955320
    12779.552700       0.953903
    12795.905300       0.952467
    12812.299800       0.951015
    12828.736400       0.949546
    12845.215200       0.948060
    12861.736300       0.946557
    12878.300100       0.945038
    12894.906500       0.943503
    12911.555800       0.941951
    12928.248200       0.940384
    12944.983800       0.938801
    12961.762800       0.937202
    12978.585300       0.935588
    12995.451600       0.933958
    13012.361700       0.932313
    13029.316000       0.930653
    13046.314400       0.928979
    13063.357300       0.927290
    13080.444700       0.925586
    13097.576900       0.923867
    13114.754100       0.922135
    13131.976400       0.920388
    13149.243900       0.918627
    13166.556900       0.916852
    13183.915600       0.915064
    13201.320100       0.913261
    13218.770700       0.911446
    13236.267400       0.909617
    13253.810500       0.907774
    13271.400100       0.905919
    13289.036500       0.904050
    13306.719900       0.902168
    13324.450400       0.900274
    13342.228200       0.898367
    13360.053400       0.896447
    13377.926400       0.894514
    13395.847300       0.892570
    13413.816200       0.890613
    13431.833400       0.888643
    13449.899100       0.886662
    13468.013500       0.884668
    13486.176700       0.882663
    13504.388900       0.880645
    13522.650400       0.878616
    13540.961400       0.876576
    13559.322000       0.874523
    13577.732500       0.872460
    13596.193100       0.870384
    13614.703900       0.868298
    13633.265200       0.866200
    13651.877100       0.864091
    13670.540000       0.861971
    13689.253900       0.859840
    13708.019200       0.857698
    13726.836000       0.855545
    13745.704500       0.853381
    13764.624900       0.851206
    13783.597500       0.849021
    13802.622500       0.846826
    13821.700100       0.844620
    13840.830400       0.842403
    13860.013900       0.840176
    13879.250500       0.837939
    13898.540700       0.835692
    13917.884500       0.833435
    13937.282200       0.831167
    13956.734100       0.828889
    13976.240400       0.826602
    13995.801300       0.824305
    14015.417000       0.821997
    14035.087700       0.819680
    14054.813800       0.817354
    14074.595400       0.815018
    14094.432700       0.812672
    14114.326000       0.810317
    14134.275600       0.807952
    14154.281700       0.805578
    14174.344400       0.803195
    14194.464200       0.800803
    14214.641100       0.798401
    14234.875400       0.795991
    14255.167500       0.793571
    14275.517500       0.791143
    14295.925700       0.788705
    14316.392300       0.786259
    14336.917600       0.783804
    14357.501800       0.781341
    14378.145200       0.778868
    14398.848100       0.776388
    14419.610700       0.773899
    14440.433200       0.771401
    14461.316000       0.768895
    14482.259200       0.766381
    14503.263200       0.763859
    14524.328200       0.761329
    14545.454500       0.758791
    14566.642400       0.756244
    14587.892000       0.753690
    14609.203800       0.751128
    14630.577900       0.748559
    14652.014700       0.745982
    14673.514300       0.743397
    14695.077100       0.740805
    14716.703500       0.738205
    14738.393500       0.735598
    14760.147600       0.732984
    14781.966000       0.730363
    14803.849000       0.727735
    14825.796900       0.725100
    14847.809900       0.722458
    14869.888500       0.719809
    14892.032800       0.717154
    14914.243100       0.714491
    14936.519800       0.711823
    14958.863100       0.709148
    14981.273400       0.706467
    15003.750900       0.703779
    15026.296000       0.701085
    15048.909000       0.698386
    15071.590100       0.695680
    15094.339600       0.692969
    15117.158000       0.690252
    15140.045400       0.687529
    15163.002300       0.684801
    15186.028900       0.682067
    15209.125500       0.679328
    15232.292500       0.676584
    15255.530100       0.673835
    15278.838800       0.671081
    15302.218800       0.668322
    15325.670500       0.665558
    15349.194200       0.662790
    15372.790200       0.660017
    15396.458800       0.657240
    15420.200500       0.654459
    15444.015400       0.651673
    15467.904100       0.648884
    15491.866800       0.646090
    15515.903800       0.643293
    15540.015500       0.640492
    15564.202300       0.637688
    15588.464500       0.634880
    15612.802500       0.632069
    15637.216600       0.629255
    15661.707100       0.626438
    15686.274500       0.623618
    15710.919100       0.620796
    15735.641200       0.617970
    15760.441300       0.615143
    15785.319700       0.612312
    15810.276700       0.609480
    15835.312700       0.606646
    15860.428200       0.603810
    15885.623500       0.600972
    15910.899000       0.598132
    15936.255000       0.595291
    15961.691900       0.592449
    15987.210200       0.589605
    16012.810200       0.586760
    16038.492400       0.583915
    16064.257000       0.581068
    16090.104600       0.578221
    16116.035500       0.575374
    16142.050000       0.572526
    16168.148700       0.569678
    16194.332000       0.566830
    16220.600200       0.563982
    16246.953700       0.561134
    16273.393000       0.558287
    16299.918500       0.555441
    16326.530600       0.552595
    16353.229800       0.549750
    16380.016400       0.546906
    16406.890900       0.544063
    16433.853700       0.541221
    16460.905300       0.538381
    16488.046200       0.535543
    16515.276600       0.532706
    16542.597200       0.529871
    16570.008300       0.527038
    16597.510400       0.524208
    16625.103900       0.521380
    16652.789300       0.518554
    16680.567100       0.515731
    16708.437800       0.512911
    16736.401700       0.510094
    16764.459300       0.507279
    16792.611300       0.504469
    16820.857900       0.501661
    16849.199700       0.498857
    16877.637100       0.496057
    16906.170800       0.493260
    16934.801000       0.490468
    16963.528400       0.487680
    16992.353400       0.484895
    17021.276600       0.482116
    17050.298400       0.479340
    17079.419300       0.476570
    17108.639900       0.473804
    17137.960600       0.471043
    17167.382000       0.468287
    17196.904600       0.465537
    17226.528900       0.462791
    17256.255400       0.460051
    17286.084700       0.457317
    17316.017300       0.454588
    17346.053800       0.451866
    17376.194600       0.449149
    17406.440400       0.446438
    17436.791600       0.443733
    17467.248900       0.441035
    17497.812800       0.438343
    17528.483800       0.435657
    17559.262500       0.432978
    17590.149500       0.430306
    17621.145400       0.427641
    17652.250700       0.424982
    17683.466000       0.422331
    17714.791900       0.419687
    17746.228900       0.417049
    17777.777800       0.414420
    17809.439000       0.411797
    17841.213200       0.409182
    17873.101000       0.406575
    17905.103000       0.403975
    17937.219700       0.401383
    17969.451900       0.398799
    18001.800200       0.396222
    18034.265100       0.393653
    18066.847300       0.391093
    18099.547500       0.388540
    18132.366300       0.385996
    18165.304300       0.383459
    18198.362100       0.380931
    18231.540600       0.378411
    18264.840200       0.375900
    18298.261700       0.373397
    18331.805700       0.370902
    18365.472900       0.368415
    18399.264000       0.365937
    18433.179700       0.363467
    18467.220700       0.361006
    18501.387600       0.358554
    18535.681200       0.356109
    18570.102100       0.353674
    18604.651200       0.351247
    18639.329000       0.348828
    18674.136300       0.346418
    18709.073900       0.344017
    18744.142500       0.341624
    18779.342700       0.339239
    18814.675400       0.336863
    18850.141400       0.334496
    18885.741300       0.332137
    18921.475900       0.329786
    18957.346000       0.327444
    18993.352300       0.325110
    19029.495700       0.322784
    19065.776900       0.320467
    19102.196800       0.318158
    19138.756000       0.315856
    19175.455400       0.313564
    19212.295900       0.311279
    19249.278200       0.309002
    19286.403100       0.306733
    19323.671500       0.304472
    19361.084200       0.302218
    19398.642100       0.299973
    19436.346000       0.297735
    19474.196700       0.295504
    19512.195100       0.293281
    19550.342100       0.291065
    19588.638600       0.288856
    19627.085400       0.286655
    19665.683400       0.284460
    19704.433500       0.282273
    19743.336600       0.280092
    19782.393700       0.277917
    19821.605600       0.275750
    19860.973200       0.273588
    19900.497500       0.271433
    19940.179500       0.269284
    19980.020000       0.267141
    20020.020000       0.265004
    20060.180500       0.262873
    20100.502500       0.260747
    20140.986900       0.258627
    20181.634700       0.256511
    20222.446900       0.254401
    20263.424500       0.252296
    20304.568500       0.250196
    20345.880000       0.248100
    20387.359800       0.246008
    20429.009200       0.243921
    20470.829100       0.241838
    20512.820500       0.239759
    20554.984600       0.237684
    20597.322300       0.235612
    20639.834900       0.233543
    20682.523300       0.231478
    20725.388600       0.229415
    20768.432000       0.227356
    20811.654500       0.225299
    20855.057400       0.223244
    20898.641600       0.221192
    20942.408400       0.219141
    20986.358900       0.217093
    21030.494200       0.215046
    21074.815600       0.213000
    21119.324200       0.210956
    21164.021200       0.208913
    21208.907700       0.206870
    21253.985100       0.204828
    21299.254500       0.202787
    21344.717200       0.200746
    21390.374300       0.198705
    21436.227200       0.196663
    21482.277100       0.194621
    21528.525300       0.192579
    21574.973000       0.190536
    21621.621600       0.188492
    21668.472400       0.186446
    21715.526600       0.184400
    21762.785600       0.182351
    21810.250800       0.180301
    21857.923500       0.178249
    21905.805000       0.176195
    21953.896800       0.174139
    22002.200200       0.172080
    22050.716600       0.170019
    22099.447500       0.167955
    22148.394200       0.165887
    22197.558300       0.163817
    22246.941000       0.161743
    22296.544000       0.159666
    22346.368700       0.157585
    22396.416600       0.155501
    22446.689100       0.153412
    22497.187900       0.151320
    22547.914300       0.149223
    22598.870100       0.147122
    22650.056600       0.145016
    22701.475600       0.142907
    22753.128600       0.140792
    22805.017100       0.138673
    22857.142900       0.136549
    22909.507400       0.134420
    22962.112500       0.132286
    23014.959700       0.130147
    23068.050700       0.128003
    23121.387300       0.125854
    23174.971000       0.123700
    23228.803700       0.121541
    23282.887100       0.119377
    23337.222900       0.117207
    23391.812900       0.115032
    23446.658900       0.112852
    23501.762600       0.110667
    23557.126000       0.108477
    23612.750900       0.106282
    23668.639100       0.104082
    23724.792400       0.101877
    23781.212800       0.099667
    23837.902300       0.097452
    23894.862600       0.095233
    23952.095800       0.093010
    24009.603800       0.090783
    24067.388700       0.088551
    24125.452400       0.086315
    24183.796900       0.084076
    24242.424200       0.081833
    24301.336600       0.079587
    24360.535900       0.077338
    24420.024400       0.075086
    24479.804200       0.072831
    24539.877300       0.070575
    24600.246000       0.068317
    24660.912500       0.066057
    24721.878900       0.063796
    24783.147500       0.061535
    24844.720500       0.059273
    24906.600200       0.057011
    24968.789000       0.054750
    25031.289100       0.052490
    25094.102900       0.050231
    25157.232700       0.047975
    25220.681000       0.045720
    25284.450100       0.043470
    25348.542500       0.041222
    25412.960600       0.038980
    25477.707000       0.036742
