          21  , Jan 12th 2012 http://fy3.satellite.cma.gov.cn/ArssEn/Download/FY3A_calibration_info_params.rar
Number of data points:
250
Wavenumber (cm-1)   Filter response
    11123.470000       0.001186
    11135.860000       0.001064
    11148.270000       0.000817
    11160.710000       0.004638
    11173.180000       0.005131
    11185.680000       0.004011
    11198.210000       0.001974
    11210.760000       0.004561
    11223.340000       0.004324
    11235.960000       0.003695
    11248.590000       0.006052
    11261.260000       0.005106
    11273.960000       0.004610
    11286.680000       0.004864
    11299.440000       0.005835
    11312.220000       0.005856
    11325.030000       0.004945
    11337.870000       0.006661
    11350.740000       0.006083
    11363.640000       0.005818
    11376.560000       0.006999
    11389.520000       0.006917
    11402.510000       0.007357
    11415.530000       0.005749
    11428.570000       0.005421
    11441.650000       0.006591
    11454.750000       0.005333
    11467.890000       0.005499
    11481.060000       0.004157
    11494.250000       0.003192
    11507.480000       0.004599
    11520.740000       0.003077
    11534.030000       0.003519
    11547.340000       0.006099
    11560.690000       0.005555
    11574.070000       0.005003
    11587.490000       0.004529
    11600.930000       0.005121
    11614.400000       0.004082
    11627.910000       0.008230
    11641.440000       0.011394
    11655.010000       0.007981
    11668.610000       0.005734
    11682.240000       0.004483
    11695.910000       0.004383
    11709.600000       0.004255
    11723.330000       0.004088
    11737.090000       0.004534
    11750.880000       0.004834
    11764.710000       0.004522
    11778.560000       0.004482
    11792.450000       0.005404
    11806.380000       0.005817
    11820.330000       0.005781
    11834.320000       0.006291
    11848.340000       0.006573
    11862.400000       0.006676
    11876.480000       0.007190
    11890.610000       0.007570
    11904.760000       0.007438
    11918.950000       0.006150
    11933.170000       0.006391
    11947.430000       0.007081
    11961.720000       0.006977
    11976.050000       0.007597
    11990.410000       0.007953
    12004.800000       0.007496
    12019.230000       0.007814
    12033.690000       0.008093
    12048.190000       0.008572
    12062.730000       0.008354
    12077.290000       0.007939
    12091.900000       0.007647
    12106.540000       0.007663
    12121.210000       0.009060
    12135.920000       0.008321
    12150.670000       0.007725
    12165.450000       0.008931
    12180.270000       0.008798
    12195.120000       0.008304
    12210.010000       0.008409
    12224.940000       0.007243
    12239.900000       0.006919
    12254.900000       0.007529
    12269.940000       0.007909
    12285.010000       0.007485
    12300.120000       0.006930
    12315.270000       0.006999
    12330.460000       0.007195
    12345.680000       0.007126
    12360.940000       0.024627
    12376.240000       0.021392
    12391.570000       0.013390
    12406.950000       0.009297
    12422.360000       0.007032
    12437.810000       0.006343
    12453.300000       0.007410
    12468.830000       0.006665
    12484.390000       0.006158
    12500.000000       0.006220
    12515.640000       0.006171
    12531.330000       0.006061
    12547.050000       0.005941
    12562.810000       0.006285
    12578.620000       0.006155
    12594.460000       0.005919
    12610.340000       0.005965
    12626.260000       0.006342
    12642.220000       0.006474
    12658.230000       0.006479
    12674.270000       0.006585
    12690.360000       0.006241
    12706.480000       0.008097
    12722.650000       0.006924
    12738.850000       0.006606
    12755.100000       0.006811
    12771.390000       0.006626
    12787.720000       0.006316
    12804.100000       0.006605
    12820.510000       0.007357
    12836.970000       0.006786
    12853.470000       0.006835
    12870.010000       0.007197
    12886.600000       0.007141
    12903.230000       0.006930
    12919.900000       0.008075
    12936.610000       0.007953
    12953.370000       0.008480
    12970.170000       0.007963
    12987.010000       0.008395
    13003.900000       0.008567
    13020.830000       0.008218
    13037.810000       0.009430
    13054.830000       0.009941
    13071.900000       0.010216
    13089.000000       0.010767
    13106.160000       0.011352
    13123.360000       0.011714
    13140.600000       0.012115
    13157.890000       0.012961
    13175.230000       0.013747
    13192.610000       0.014130
    13210.040000       0.014654
    13227.510000       0.015794
    13245.030000       0.016478
    13262.600000       0.017487
    13280.210000       0.018841
    13297.870000       0.020049
    13315.580000       0.020967
    13333.330000       0.022520
    13351.130000       0.024300
    13368.980000       0.025158
    13386.880000       0.027484
    13404.830000       0.029978
    13422.820000       0.032503
    13440.860000       0.035065
    13458.950000       0.038389
    13477.090000       0.042017
    13495.280000       0.045519
    13513.510000       0.049639
    13531.800000       0.054545
    13550.140000       0.059414
    13568.520000       0.064500
    13586.960000       0.071854
    13605.440000       0.079773
    13623.980000       0.088150
    13642.570000       0.099200
    13661.200000       0.111426
    13679.890000       0.125725
    13698.630000       0.141775
    13717.420000       0.161403
    13736.260000       0.183538
    13755.160000       0.210815
    13774.100000       0.242645
    13793.100000       0.277525
    13812.160000       0.320966
    13831.260000       0.370001
    13850.420000       0.424684
    13869.630000       0.486273
    13888.890000       0.550161
    13908.210000       0.616382
    13927.580000       0.685130
    13947.000000       0.750900
    13966.480000       0.813931
    13986.010000       0.870565
    14005.600000       0.918567
    14025.250000       0.952317
    14044.940000       0.982149
    14064.700000       0.997269
    14084.510000       1.000000
    14104.370000       0.997492
    14124.290000       0.991525
    14144.270000       0.986461
    14164.310000       0.970380
    14184.400000       0.957131
    14204.550000       0.947054
    14224.750000       0.935622
    14245.010000       0.929459
    14265.340000       0.920496
    14285.710000       0.911748
    14306.150000       0.909304
    14326.650000       0.903918
    14347.200000       0.899742
    14367.820000       0.899410
    14388.490000       0.891542
    14409.220000       0.887141
    14430.010000       0.879147
    14450.870000       0.869619
    14471.780000       0.859378
    14492.750000       0.847219
    14513.790000       0.831256
    14534.880000       0.812712
    14556.040000       0.788411
    14577.260000       0.763848
    14598.540000       0.738774
    14619.880000       0.712160
    14641.290000       0.683133
    14662.760000       0.653674
    14684.290000       0.625222
    14705.880000       0.591314
    14727.540000       0.554021
    14749.260000       0.515447
    14771.050000       0.472200
    14792.900000       0.427492
    14814.810000       0.381994
    14836.790000       0.337383
    14858.840000       0.294215
    14880.950000       0.252740
    14903.130000       0.215379
    14925.370000       0.183736
    14947.680000       0.155210
    14970.060000       0.131167
    14992.500000       0.110300
    15015.010000       0.092176
    15037.590000       0.076815
    15060.240000       0.063889
    15082.960000       0.052961
    15105.740000       0.043521
    15128.590000       0.035829
    15151.510000       0.029635
    15174.510000       0.024438
    15197.570000       0.020288
    15220.700000       0.016985
    15243.900000       0.014233
    15267.180000       0.012022
    15290.520000       0.010310
    15313.940000       0.009022
    15337.420000       0.007878
    15360.980000       0.006861
    15384.620000       0.006222
