13,   from S2-SRF_COPE-GSEG-EOPG-TN-15-0007_3.0.xlsx (column S2B_SR_AV_B12)
Number of data points:
241
Wavenumber (cm-1)   Filter response
     4340.277800       0.000000
     4342.162400       0.000849
     4344.048700       0.004443
     4345.936500       0.008464
     4347.826100       0.013838
     4349.717300       0.020008
     4351.610100       0.025086
     4353.504600       0.028983
     4355.400700       0.033469
     4357.298500       0.037986
     4359.197900       0.043196
     4361.099000       0.049381
     4363.001700       0.056322
     4364.906200       0.064469
     4366.812200       0.074064
     4368.720000       0.084875
     4370.629400       0.096899
     4372.540400       0.111531
     4374.453200       0.128957
     4376.367600       0.149356
     4378.283700       0.173670
     4380.201500       0.202253
     4382.120900       0.234102
     4384.042100       0.269313
     4385.964900       0.309840
     4387.889400       0.354177
     4389.815600       0.400488
     4391.743500       0.451376
     4393.673100       0.506650
     4395.604400       0.564025
     4397.537400       0.623138
     4399.472100       0.681862
     4401.408500       0.736343
     4403.346500       0.786119
     4405.286300       0.831948
     4407.227900       0.870441
     4409.171100       0.902305
     4411.116000       0.929344
     4413.062700       0.951679
     4415.011000       0.968715
     4416.961100       0.981521
     4418.912900       0.990605
     4420.866500       0.995753
     4422.821800       0.998655
     4424.778800       1.000000
     4426.737500       0.999605
     4428.698000       0.998282
     4430.660200       0.996705
     4432.624100       0.995273
     4434.589800       0.993184
     4436.557200       0.991223
     4438.526400       0.989144
     4440.497300       0.986738
     4442.470000       0.984631
     4444.444400       0.983337
     4446.420600       0.982532
     4448.398600       0.981524
     4450.378300       0.980446
     4452.359800       0.978986
     4454.343000       0.977203
     4456.328000       0.976012
     4458.314800       0.974301
     4460.303300       0.972426
     4462.293600       0.970549
     4464.285700       0.968868
     4466.279600       0.967538
     4468.275200       0.966349
     4470.272700       0.965513
     4472.271900       0.964774
     4474.272900       0.963701
     4476.275700       0.962730
     4478.280300       0.961645
     4480.286700       0.960360
     4482.294900       0.959707
     4484.304900       0.959368
     4486.316700       0.960638
     4488.330300       0.961666
     4490.345800       0.962930
     4492.363000       0.964367
     4494.382000       0.965460
     4496.402900       0.966504
     4498.425600       0.967550
     4500.450000       0.968258
     4502.476400       0.969098
     4504.504500       0.969968
     4506.534500       0.969510
     4508.566300       0.968957
     4510.599900       0.968508
     4512.635400       0.968041
     4514.672700       0.967555
     4516.711800       0.967636
     4518.752800       0.968330
     4520.795700       0.969140
     4522.840300       0.970920
     4524.886900       0.973886
     4526.935300       0.966208
     4528.985500       0.959778
     4531.037600       0.955012
     4533.091600       0.951673
     4535.147400       0.949712
     4537.205100       0.949105
     4539.264600       0.949722
     4541.326100       0.950489
     4543.389400       0.952413
     4545.454500       0.955263
     4547.521600       0.953624
     4549.590500       0.951991
     4551.661400       0.950767
     4553.734100       0.949622
     4555.808700       0.948482
     4557.885100       0.947277
     4559.963500       0.945752
     4562.043800       0.943779
     4564.126000       0.941493
     4566.210000       0.938919
     4568.296000       0.940655
     4570.383900       0.942138
     4572.473700       0.943481
     4574.565400       0.945216
     4576.659000       0.946620
     4578.754600       0.947706
     4580.852000       0.948296
     4582.951400       0.948548
     4585.052700       0.948562
     4587.156000       0.948594
     4589.261100       0.950598
     4591.368200       0.952125
     4593.477300       0.953454
     4595.588200       0.954612
     4597.701100       0.955357
     4599.816000       0.955675
     4601.932800       0.955719
     4604.051600       0.955177
     4606.172300       0.954061
     4608.294900       0.953076
     4610.419500       0.955120
     4612.546100       0.956972
     4614.674700       0.958377
     4616.805200       0.959561
     4618.937600       0.960730
     4621.072100       0.961851
     4623.208500       0.962754
     4625.346900       0.963105
     4627.487300       0.963610
     4629.629600       0.964122
     4631.774000       0.962644
     4633.920300       0.961413
     4636.068600       0.960451
     4638.218900       0.959237
     4640.371200       0.957986
     4642.525500       0.956750
     4644.681800       0.955539
     4646.840100       0.954837
     4649.000500       0.954292
     4651.162800       0.953779
     4653.327100       0.953318
     4655.493500       0.952962
     4657.661900       0.952654
     4659.832200       0.952418
     4662.004700       0.952552
     4664.179100       0.952721
     4666.355600       0.952327
     4668.534100       0.951532
     4670.714600       0.951054
     4672.897200       0.950676
     4675.081800       0.949880
     4677.268500       0.948940
     4679.457200       0.947942
     4681.647900       0.947085
     4683.840700       0.946213
     4686.035600       0.945286
     4688.232500       0.944244
     4690.431500       0.943274
     4692.632600       0.942446
     4694.835700       0.941894
     4697.040900       0.943485
     4699.248100       0.944871
     4701.457500       0.946127
     4703.668900       0.947116
     4705.882400       0.948112
     4708.097900       0.948830
     4710.315600       0.948568
     4712.535300       0.947408
     4714.757200       0.945579
     4716.981100       0.943377
     4719.207200       0.938438
     4721.435300       0.933095
     4723.665600       0.926913
     4725.897900       0.920180
     4728.132400       0.912841
     4730.369000       0.905619
     4732.607700       0.898904
     4734.848500       0.892733
     4737.091400       0.887154
     4739.336500       0.882698
     4741.583700       0.881696
     4743.833000       0.882095
     4746.084500       0.884432
     4748.338100       0.887964
     4750.593800       0.892353
     4752.851700       0.897114
     4755.111700       0.900791
     4757.373900       0.901518
     4759.638300       0.897588
     4761.904800       0.886330
     4764.173400       0.866335
     4766.444200       0.835659
     4768.717200       0.792931
     4770.992400       0.737899
     4773.269700       0.672128
     4775.549200       0.598899
     4777.830900       0.522785
     4780.114700       0.449470
     4782.400800       0.380866
     4784.689000       0.317228
     4786.979400       0.261991
     4789.272000       0.214375
     4791.566800       0.173288
     4793.863900       0.138884
     4796.163100       0.110694
     4798.464500       0.088005
     4800.768100       0.070017
     4803.074000       0.056363
     4805.382000       0.045771
     4807.692300       0.037234
     4810.004800       0.030609
     4812.319500       0.025428
     4814.636500       0.021063
     4816.955700       0.017459
     4819.277100       0.014593
     4821.600800       0.012236
     4823.926700       0.010265
     4826.254800       0.008748
     4828.585200       0.007535
     4830.917900       0.005925
     4833.252800       0.004589
     4835.589900       0.003020
     4837.929400       0.001657
     4840.271100       0.000739
     4842.615000       0.000228
     4844.961200       0.000000
