15,   channel 15 SRF from file SRF_SSH-1_Delivery_220520/SRF_DMSP-F3_SSH_Chan15.asc received June 2022 from SPASCIA
Number of data points:
297
Wavenumber (cm-1)   Filter response
      819.600000       0.000910
      819.700000       0.001000
      819.800000       0.001100
      819.900000       0.001210
      820.000000       0.001320
      820.100000       0.001450
      820.200000       0.001590
      820.300000       0.001740
      820.400000       0.001900
      820.500000       0.002080
      820.600000       0.002270
      820.700000       0.002480
      820.800000       0.002700
      820.900000       0.002950
      821.000000       0.003210
      821.100000       0.003500
      821.200000       0.003800
      821.300000       0.004140
      821.400000       0.004500
      821.500000       0.004880
      821.600000       0.005300
      821.700000       0.005750
      821.800000       0.006230
      821.900000       0.006750
      822.000000       0.007310
      822.100000       0.007910
      822.200000       0.008560
      822.300000       0.009240
      822.400000       0.009980
      822.500000       0.010780
      822.600000       0.011620
      822.700000       0.012530
      822.800000       0.013490
      822.900000       0.014530
      823.000000       0.015630
      823.100000       0.016800
      823.200000       0.018050
      823.300000       0.019380
      823.400000       0.020800
      823.500000       0.022310
      823.600000       0.023910
      823.700000       0.025610
      823.800000       0.027410
      823.900000       0.029320
      824.000000       0.031340
      824.100000       0.033480
      824.200000       0.035750
      824.300000       0.038140
      824.400000       0.040670
      824.500000       0.043330
      824.600000       0.046150
      824.700000       0.049110
      824.800000       0.052230
      824.900000       0.055520
      825.000000       0.058970
      825.100000       0.062600
      825.200000       0.066410
      825.300000       0.070410
      825.400000       0.074600
      825.500000       0.078990
      825.600000       0.083580
      825.700000       0.088390
      825.800000       0.093410
      825.900000       0.098650
      826.000000       0.103350
      826.100000       0.107970
      826.200000       0.112740
      826.300000       0.117690
      826.400000       0.122810
      826.500000       0.128110
      826.600000       0.133590
      826.700000       0.139260
      826.800000       0.145120
      826.900000       0.151180
      827.000000       0.157450
      827.100000       0.163930
      827.200000       0.170620
      827.300000       0.177530
      827.400000       0.184670
      827.500000       0.192040
      827.600000       0.199650
      827.700000       0.207500
      827.800000       0.215600
      827.900000       0.223950
      828.000000       0.232560
      828.100000       0.241440
      828.200000       0.250580
      828.300000       0.259990
      828.400000       0.269680
      828.500000       0.279650
      828.600000       0.289910
      828.700000       0.300440
      828.800000       0.311270
      828.900000       0.322390
      829.000000       0.333790
      829.100000       0.345490
      829.200000       0.357480
      829.300000       0.369750
      829.400000       0.382320
      829.500000       0.395170
      829.600000       0.408290
      829.700000       0.421700
      829.800000       0.435370
      829.900000       0.449300
      830.000000       0.463490
      830.100000       0.477920
      830.200000       0.492580
      830.300000       0.508310
      830.400000       0.525030
      830.500000       0.541880
      830.600000       0.558820
      830.700000       0.575830
      830.800000       0.592890
      830.900000       0.609980
      831.000000       0.627050
      831.100000       0.644100
      831.200000       0.661080
      831.300000       0.677970
      831.400000       0.694740
      831.500000       0.711360
      831.600000       0.727810
      831.700000       0.744040
      831.800000       0.760030
      831.900000       0.775750
      832.000000       0.791160
      832.100000       0.806240
      832.200000       0.820960
      832.300000       0.835280
      832.400000       0.849180
      832.500000       0.862630
      832.600000       0.875590
      832.700000       0.888050
      832.800000       0.899960
      832.900000       0.911320
      833.000000       0.922080
      833.100000       0.932230
      833.200000       0.941750
      833.300000       0.950610
      833.400000       0.958790
      833.500000       0.966270
      833.600000       0.973040
      833.700000       0.979080
      833.800000       0.984380
      833.900000       0.988920
      834.000000       0.992690
      834.100000       0.995690
      834.200000       0.997900
      834.300000       0.999330
      834.400000       0.999960
      834.500000       0.999810
      834.600000       0.998850
      834.700000       0.997110
      834.800000       0.994580
      834.900000       0.991270
      835.000000       0.987190
      835.100000       0.982350
      835.200000       0.976750
      835.300000       0.970420
      835.400000       0.963360
      835.500000       0.955600
      835.600000       0.947140
      835.700000       0.938020
      835.800000       0.928250
      835.900000       0.917850
      836.000000       0.906840
      836.100000       0.895260
      836.200000       0.883130
      836.300000       0.870470
      836.400000       0.857310
      836.500000       0.843680
      836.600000       0.829600
      836.700000       0.815120
      836.800000       0.800250
      836.900000       0.785030
      837.000000       0.769490
      837.100000       0.753660
      837.200000       0.737570
      837.300000       0.721250
      837.400000       0.704730
      837.500000       0.688050
      837.600000       0.671230
      837.700000       0.654290
      837.800000       0.637280
      837.900000       0.620220
      838.000000       0.603140
      838.100000       0.586070
      838.200000       0.569020
      838.300000       0.552030
      838.400000       0.535130
      838.500000       0.518330
      838.600000       0.501660
      838.700000       0.486690
      838.800000       0.472120
      838.900000       0.457780
      839.000000       0.443700
      839.100000       0.429870
      839.200000       0.416300
      839.300000       0.403010
      839.400000       0.389990
      839.500000       0.377260
      839.600000       0.364810
      839.700000       0.352650
      839.800000       0.340780
      839.900000       0.329200
      840.000000       0.317910
      840.100000       0.306910
      840.200000       0.296190
      840.300000       0.285770
      840.400000       0.275630
      840.500000       0.265770
      840.600000       0.256190
      840.700000       0.246890
      840.800000       0.237860
      840.900000       0.229090
      841.000000       0.220580
      841.100000       0.212330
      841.200000       0.204330
      841.300000       0.196580
      841.400000       0.189060
      841.500000       0.181790
      841.600000       0.174740
      841.700000       0.167910
      841.800000       0.161310
      841.900000       0.154920
      842.000000       0.148730
      842.100000       0.142750
      842.200000       0.136970
      842.300000       0.131370
      842.400000       0.125970
      842.500000       0.120740
      842.600000       0.115690
      842.700000       0.110810
      842.800000       0.106100
      842.900000       0.101550
      843.000000       0.096530
      843.100000       0.091370
      843.200000       0.086440
      843.300000       0.081720
      843.400000       0.077210
      843.500000       0.072900
      843.600000       0.068790
      843.700000       0.064870
      843.800000       0.061130
      843.900000       0.057570
      844.000000       0.054180
      844.100000       0.050970
      844.200000       0.047910
      844.300000       0.045000
      844.400000       0.042250
      844.500000       0.039640
      844.600000       0.037170
      844.700000       0.034820
      844.800000       0.032610
      844.900000       0.030520
      845.000000       0.028540
      845.100000       0.026670
      845.200000       0.024910
      845.300000       0.023260
      845.400000       0.021690
      845.500000       0.020220
      845.600000       0.018840
      845.700000       0.017540
      845.800000       0.016320
      845.900000       0.015180
      846.000000       0.014110
      846.100000       0.013100
      846.200000       0.012160
      846.300000       0.011280
      846.400000       0.010450
      846.500000       0.009680
      846.600000       0.008960
      846.700000       0.008290
      846.800000       0.007670
      846.900000       0.007080
      847.000000       0.006540
      847.100000       0.006040
      847.200000       0.005570
      847.300000       0.005130
      847.400000       0.004730
      847.500000       0.004350
      847.600000       0.004000
      847.700000       0.003680
      847.800000       0.003380
      847.900000       0.003100
      848.000000       0.002850
      848.100000       0.002610
      848.200000       0.002390
      848.300000       0.002190
      848.400000       0.002000
      848.500000       0.001830
      848.600000       0.001680
      848.700000       0.001530
      848.800000       0.001400
      848.900000       0.001270
      849.000000       0.001160
      849.100000       0.001060
      849.200000       0.000960
