140,   140, MVIRI VIS channel from srf_MET7_2015033_2015034_1801-Release_S10EE_10.dat
Number of data points:
793
Wavenumber (cm-1)   Filter response
     8442.380800       0.000000
     8449.514200       0.000000
     8456.659600       0.000004
     8463.817200       0.000057
     8470.986900       0.000168
     8478.168700       0.000337
     8485.362700       0.000561
     8492.569000       0.000839
     8499.787500       0.001168
     8507.018300       0.001549
     8514.261400       0.001978
     8521.516800       0.002456
     8528.784600       0.002980
     8536.064900       0.003549
     8543.357500       0.004161
     8550.662700       0.004817
     8557.980300       0.005514
     8565.310500       0.006251
     8572.653200       0.007027
     8580.008600       0.007842
     8587.376600       0.008694
     8594.757200       0.009582
     8602.150500       0.010505
     8609.556600       0.011463
     8616.975400       0.012454
     8624.407100       0.013478
     8631.851500       0.014534
     8639.308900       0.015621
     8646.779100       0.016739
     8654.262200       0.017887
     8661.758300       0.019064
     8669.267400       0.020270
     8676.789600       0.021503
     8684.324800       0.022765
     8691.873100       0.024053
     8699.434500       0.025368
     8707.009100       0.026708
     8714.596900       0.028074
     8722.198000       0.029466
     8729.812300       0.030882
     8737.439900       0.032323
     8745.080900       0.033787
     8752.735200       0.035275
     8760.403000       0.036787
     8768.084200       0.038322
     8775.778900       0.039880
     8783.487000       0.041460
     8791.208800       0.043063
     8798.944100       0.044688
     8806.693100       0.046335
     8814.455700       0.048003
     8822.232000       0.049694
     8830.022100       0.051406
     8837.825900       0.053139
     8845.643500       0.054894
     8853.475000       0.056669
     8861.320300       0.058466
     8869.179600       0.060284
     8877.052800       0.062123
     8884.940000       0.063983
     8892.841300       0.065864
     8900.756600       0.067766
     8908.686000       0.069688
     8916.629500       0.071631
     8924.587200       0.073595
     8932.559200       0.075580
     8940.545400       0.077586
     8948.545900       0.079613
     8956.560700       0.081660
     8964.589900       0.083728
     8972.633500       0.085818
     8980.691500       0.087928
     8988.764000       0.090060
     8996.851100       0.092212
     9004.952700       0.094386
     9013.068900       0.096581
     9021.199800       0.098797
     9029.345400       0.101035
     9037.505600       0.103294
     9045.680700       0.105575
     9053.870500       0.107877
     9062.075200       0.110202
     9070.294800       0.112548
     9078.529300       0.114915
     9086.778700       0.117305
     9095.043200       0.119717
     9103.322700       0.122151
     9111.617300       0.124608
     9119.927000       0.127086
     9128.251900       0.129587
     9136.592100       0.132111
     9144.947400       0.134657
     9153.318100       0.137226
     9161.704100       0.139817
     9170.105500       0.142432
     9178.522300       0.145069
     9186.954500       0.147729
     9195.402300       0.150413
     9203.865600       0.153119
     9212.344500       0.155849
     9220.839100       0.158602
     9229.349300       0.161378
     9237.875300       0.164178
     9246.417000       0.167001
     9254.974500       0.169848
     9263.547900       0.172718
     9272.137200       0.175612
     9280.742500       0.178529
     9289.363700       0.181470
     9298.000900       0.184435
     9306.654300       0.187424
     9315.323700       0.190436
     9324.009300       0.193472
     9332.711200       0.196532
     9341.429200       0.199615
     9350.163600       0.202723
     9358.914400       0.205854
     9367.681500       0.209009
     9376.465100       0.212187
     9385.265100       0.215390
     9394.081700       0.218616
     9402.914900       0.221865
     9411.764700       0.225139
     9420.631200       0.228436
     9429.514400       0.231756
     9438.414300       0.235100
     9447.331100       0.238468
     9456.264800       0.241859
     9465.215300       0.245273
     9474.182900       0.248710
     9483.167400       0.252170
     9492.169000       0.255653
     9501.187600       0.259160
     9510.223500       0.262689
     9519.276500       0.266240
     9528.346800       0.269815
     9537.434400       0.273411
     9546.539400       0.277030
     9555.661700       0.280671
     9564.801500       0.284334
     9573.958800       0.288019
     9583.133700       0.291726
     9592.326100       0.295454
     9601.536200       0.299204
     9610.764100       0.302975
     9620.009600       0.306767
     9629.273000       0.310579
     9638.554200       0.314412
     9647.853400       0.318266
     9657.170400       0.322139
     9666.505600       0.326033
     9675.858700       0.329947
     9685.230000       0.333880
     9694.619500       0.337832
     9704.027200       0.341803
     9713.453100       0.345793
     9722.897400       0.349802
     9732.360100       0.353829
     9741.841200       0.357874
     9751.340800       0.361936
     9760.859000       0.366016
     9770.395700       0.370114
     9779.951100       0.374228
     9789.525200       0.378358
     9799.118100       0.382505
     9808.729800       0.386668
     9818.360300       0.390847
     9828.009800       0.395040
     9837.678300       0.399249
     9847.365800       0.403473
     9857.072400       0.407710
     9866.798200       0.411962
     9876.543200       0.416227
     9886.307500       0.420506
     9896.091000       0.424798
     9905.894000       0.429102
     9915.716400       0.433418
     9925.558300       0.437746
     9935.419800       0.442086
     9945.300800       0.446437
     9955.201600       0.450798
     9965.122100       0.455170
     9975.062300       0.459552
     9985.022500       0.463943
     9995.002500       0.468344
    10005.002500       0.472753
    10015.022500       0.477170
    10025.062700       0.481595
    10035.122900       0.486028
    10045.203400       0.490467
    10055.304200       0.494914
    10065.425300       0.499366
    10075.566800       0.503825
    10085.728700       0.508288
    10095.911200       0.512757
    10106.114200       0.517230
    10116.337900       0.521707
    10126.582300       0.526187
    10136.847400       0.530671
    10147.133400       0.535157
    10157.440300       0.539646
    10167.768200       0.544136
    10178.117000       0.548628
    10188.487000       0.553120
    10198.878100       0.557613
    10209.290500       0.562106
    10219.724100       0.566598
    10230.179000       0.571090
    10240.655400       0.575580
    10251.153300       0.580067
    10261.672700       0.584553
    10272.213700       0.589035
    10282.776300       0.593514
    10293.360800       0.597990
    10303.967000       0.602461
    10314.595200       0.606927
    10325.245200       0.611388
    10335.917300       0.615843
    10346.611500       0.620292
    10357.327800       0.624735
    10368.066400       0.629170
    10378.827200       0.633597
    10389.610400       0.638017
    10400.416000       0.642427
    10411.244100       0.646829
    10422.094800       0.651221
    10432.968200       0.655603
    10443.864200       0.659975
    10454.783100       0.664335
    10465.724800       0.668684
    10476.689400       0.673021
    10487.677000       0.677346
    10498.687700       0.681658
    10509.721500       0.685956
    10520.778500       0.690241
    10531.858900       0.694511
    10542.962600       0.698767
    10554.089700       0.703008
    10565.240400       0.707232
    10576.414600       0.711441
    10587.612500       0.715633
    10598.834100       0.719808
    10610.079600       0.723965
    10621.348900       0.728104
    10632.642200       0.732225
    10643.959600       0.736328
    10655.301000       0.740411
    10666.666700       0.744474
    10678.056600       0.748517
    10689.470900       0.752539
    10700.909600       0.756540
    10712.372800       0.760520
    10723.860600       0.764478
    10735.373100       0.768413
    10746.910300       0.772326
    10758.472300       0.776216
    10770.059200       0.780082
    10781.671200       0.783923
    10793.308100       0.787741
    10804.970300       0.791534
    10816.657700       0.795301
    10828.370300       0.799043
    10840.108400       0.802759
    10851.871900       0.806449
    10863.661100       0.810112
    10875.475800       0.813748
    10887.316300       0.817356
    10899.182600       0.820936
    10911.074700       0.824488
    10922.992900       0.828012
    10934.937100       0.831506
    10946.907500       0.834971
    10958.904100       0.838407
    10970.927000       0.841813
    10982.976400       0.845188
    10995.052200       0.848532
    11007.154700       0.851846
    11019.283700       0.855128
    11031.439600       0.858379
    11043.622300       0.861598
    11055.832000       0.864784
    11068.068600       0.867938
    11080.332400       0.871060
    11092.623400       0.874148
    11104.941700       0.877202
    11117.287400       0.880223
    11129.660500       0.883210
    11142.061300       0.886163
    11154.489700       0.889082
    11166.945800       0.891966
    11179.429800       0.894814
    11191.941800       0.897628
    11204.481800       0.900406
    11217.049900       0.903148
    11229.646300       0.905855
    11242.270900       0.908525
    11254.924000       0.911160
    11267.605600       0.913757
    11280.315800       0.916318
    11293.054800       0.918842
    11305.822500       0.921329
    11318.619100       0.923779
    11331.444800       0.926191
    11344.299500       0.928566
    11357.183400       0.930902
    11370.096600       0.933201
    11383.039300       0.935462
    11396.011400       0.937685
    11409.013100       0.939869
    11422.044500       0.942015
    11435.105800       0.944122
    11448.196900       0.946191
    11461.318100       0.948221
    11474.469300       0.950212
    11487.650800       0.952164
    11500.862600       0.954077
    11514.104800       0.955950
    11527.377500       0.957785
    11540.680900       0.959580
    11554.015000       0.961336
    11567.380000       0.963052
    11580.775900       0.964729
    11594.202900       0.966367
    11607.661100       0.967964
    11621.150500       0.969523
    11634.671300       0.971042
    11648.223600       0.972521
    11661.807600       0.973961
    11675.423200       0.975361
    11689.070700       0.976722
    11702.750100       0.978043
    11716.461600       0.979324
    11730.205300       0.980567
    11743.981200       0.981769
    11757.789500       0.982933
    11771.630400       0.984056
    11785.503800       0.985141
    11799.410000       0.986186
    11813.349100       0.987193
    11827.321100       0.988160
    11841.326200       0.989088
    11855.364600       0.989977
    11869.436200       0.990828
    11883.541300       0.991639
    11897.680000       0.992413
    11911.852300       0.993147
    11926.058400       0.993844
    11940.298500       0.994502
    11954.572600       0.995122
    11968.880900       0.995704
    11983.223500       0.996248
    11997.600500       0.996755
    12012.012000       0.997224
    12026.458200       0.997656
    12040.939200       0.998051
    12055.455100       0.998409
    12070.006000       0.998730
    12084.592100       0.999014
    12099.213600       0.999262
    12113.870400       0.999475
    12128.562800       0.999651
    12143.290800       0.999791
    12158.054700       0.999896
    12172.854500       0.999965
    12187.690400       1.000000
    12202.562500       1.000000
    12217.471000       0.999965
    12232.415900       0.999896
    12247.397400       0.999793
    12262.415700       0.999656
    12277.470800       0.999486
    12292.563000       0.999282
    12307.692300       0.999045
    12322.858900       0.998776
    12338.062900       0.998475
    12353.304500       0.998141
    12368.583800       0.997776
    12383.900900       0.997379
    12399.256000       0.996951
    12414.649300       0.996492
    12430.080800       0.996002
    12445.550700       0.995483
    12461.059200       0.994933
    12476.606400       0.994354
    12492.192400       0.993746
    12507.817400       0.993109
    12523.481500       0.992443
    12539.185000       0.991750
    12554.927800       0.991028
    12570.710200       0.990279
    12586.532400       0.989503
    12602.394500       0.988700
    12618.296500       0.987871
    12634.238800       0.987016
    12650.221400       0.986136
    12666.244500       0.985230
    12682.308200       0.984299
    12698.412700       0.983344
    12714.558200       0.982365
    12730.744700       0.981363
    12746.972600       0.980337
    12763.241900       0.979288
    12779.552700       0.978217
    12795.905300       0.977124
    12812.299800       0.976009
    12828.736400       0.974874
    12845.215200       0.973717
    12861.736300       0.972540
    12878.300100       0.971343
    12894.906500       0.970127
    12911.555800       0.968892
    12928.248200       0.967638
    12944.983800       0.966365
    12961.762800       0.965075
    12978.585300       0.963768
    12995.451600       0.962444
    13012.361700       0.961103
    13029.316000       0.959747
    13046.314400       0.958375
    13063.357300       0.956987
    13080.444700       0.955585
    13097.576900       0.954169
    13114.754100       0.952739
    13131.976400       0.951296
    13149.243900       0.949840
    13166.556900       0.948371
    13183.915600       0.946890
    13201.320100       0.945398
    13218.770700       0.943895
    13236.267400       0.942381
    13253.810500       0.940857
    13271.400100       0.939323
    13289.036500       0.937780
    13306.719900       0.936228
    13324.450400       0.934668
    13342.228200       0.933100
    13360.053400       0.931524
    13377.926400       0.929942
    13395.847300       0.928353
    13413.816200       0.926757
    13431.833400       0.925156
    13449.899100       0.923550
    13468.013500       0.921939
    13486.176700       0.920324
    13504.388900       0.918705
    13522.650400       0.917082
    13540.961400       0.915457
    13559.322000       0.913829
    13577.732500       0.912199
    13596.193100       0.910567
    13614.703900       0.908934
    13633.265200       0.907300
    13651.877100       0.905666
    13670.540000       0.904032
    13689.253900       0.902398
    13708.019200       0.900765
    13726.836000       0.899134
    13745.704500       0.897504
    13764.624900       0.895876
    13783.597500       0.894251
    13802.622500       0.892630
    13821.700100       0.891011
    13840.830400       0.889396
    13860.013900       0.887786
    13879.250500       0.886180
    13898.540700       0.884579
    13917.884500       0.882983
    13937.282200       0.881394
    13956.734100       0.879810
    13976.240400       0.878233
    13995.801300       0.876663
    14015.417000       0.875100
    14035.087700       0.873545
    14054.813800       0.871998
    14074.595400       0.870459
    14094.432700       0.868929
    14114.326000       0.867408
    14134.275600       0.865897
    14154.281700       0.864395
    14174.344400       0.862903
    14194.464200       0.861422
    14214.641100       0.859952
    14234.875400       0.858492
    14255.167500       0.857044
    14275.517500       0.855608
    14295.925700       0.854184
    14316.392300       0.852772
    14336.917600       0.851372
    14357.501800       0.849986
    14378.145200       0.848613
    14398.848100       0.847253
    14419.610700       0.845906
    14440.433200       0.844574
    14461.316000       0.843256
    14482.259200       0.841953
    14503.263200       0.840664
    14524.328200       0.839390
    14545.454500       0.838132
    14566.642400       0.836888
    14587.892000       0.835661
    14609.203800       0.834449
    14630.577900       0.833254
    14652.014700       0.832074
    14673.514300       0.830911
    14695.077100       0.829765
    14716.703500       0.828635
    14738.393500       0.827523
    14760.147600       0.826427
    14781.966000       0.825349
    14803.849000       0.824288
    14825.796900       0.823245
    14847.809900       0.822220
    14869.888500       0.821212
    14892.032800       0.820222
    14914.243100       0.819251
    14936.519800       0.818297
    14958.863100       0.817362
    14981.273400       0.816445
    15003.750900       0.815546
    15026.296000       0.814666
    15048.909000       0.813805
    15071.590100       0.812962
    15094.339600       0.812138
    15117.158000       0.811332
    15140.045400       0.810545
    15163.002300       0.809777
    15186.028900       0.809027
    15209.125500       0.808296
    15232.292500       0.807584
    15255.530100       0.806891
    15278.838800       0.806216
    15302.218800       0.805560
    15325.670500       0.804923
    15349.194200       0.804304
    15372.790200       0.803704
    15396.458800       0.803122
    15420.200500       0.802558
    15444.015400       0.802013
    15467.904100       0.801486
    15491.866800       0.800977
    15515.903800       0.800486
    15540.015500       0.800013
    15564.202300       0.799557
    15588.464500       0.799119
    15612.802500       0.798699
    15637.216600       0.798296
    15661.707100       0.797910
    15686.274500       0.797540
    15710.919100       0.797188
    15735.641200       0.796852
    15760.441300       0.796533
    15785.319700       0.796230
    15810.276700       0.795942
    15835.312700       0.795671
    15860.428200       0.795414
    15885.623500       0.795173
    15910.899000       0.794947
    15936.255000       0.794736
    15961.691900       0.794539
    15987.210200       0.794357
    16012.810200       0.794188
    16038.492400       0.794032
    16064.257000       0.793890
    16090.104600       0.793761
    16116.035500       0.793645
    16142.050000       0.793540
    16168.148700       0.793448
    16194.332000       0.793367
    16220.600200       0.793298
    16246.953700       0.793239
    16273.393000       0.793191
    16299.918500       0.793152
    16326.530600       0.793124
    16353.229800       0.793104
    16380.016400       0.793094
    16406.890900       0.793092
    16433.853700       0.793098
    16460.905300       0.793112
    16488.046200       0.793132
    16515.276600       0.793160
    16542.597200       0.793193
    16570.008300       0.793232
    16597.510400       0.793277
    16625.103900       0.793326
    16652.789300       0.793379
    16680.567100       0.793437
    16708.437800       0.793497
    16736.401700       0.793560
    16764.459300       0.793626
    16792.611300       0.793693
    16820.857900       0.793761
    16849.199700       0.793830
    16877.637100       0.793899
    16906.170800       0.793967
    16934.801000       0.794034
    16963.528400       0.794100
    16992.353400       0.794163
    17021.276600       0.794224
    17050.298400       0.794281
    17079.419300       0.794333
    17108.639900       0.794382
    17137.960600       0.794425
    17167.382000       0.794462
    17196.904600       0.794492
    17226.528900       0.794516
    17256.255400       0.794531
    17286.084700       0.794538
    17316.017300       0.794537
    17346.053800       0.794525
    17376.194600       0.794503
    17406.440400       0.794470
    17436.791600       0.794425
    17467.248900       0.794368
    17497.812800       0.794297
    17528.483800       0.794213
    17559.262500       0.794114
    17590.149500       0.794001
    17621.145400       0.793871
    17652.250700       0.793725
    17683.466000       0.793562
    17714.791900       0.793380
    17746.228900       0.793180
    17777.777800       0.792961
    17809.439000       0.792721
    17841.213200       0.792461
    17873.101000       0.792179
    17905.103000       0.791875
    17937.219700       0.791548
    17969.451900       0.791197
    18001.800200       0.790822
    18034.265100       0.790422
    18066.847300       0.789995
    18099.547500       0.789542
    18132.366300       0.789062
    18165.304300       0.788554
    18198.362100       0.788017
    18231.540600       0.787450
    18264.840200       0.786853
    18298.261700       0.786225
    18331.805700       0.785565
    18365.472900       0.784872
    18399.264000       0.784147
    18433.179700       0.783387
    18467.220700       0.782593
    18501.387600       0.781763
    18535.681200       0.780897
    18570.102100       0.779995
    18604.651200       0.779054
    18639.329000       0.778076
    18674.136300       0.777058
    18709.073900       0.776000
    18744.142500       0.774903
    18779.342700       0.773763
    18814.675400       0.772583
    18850.141400       0.771359
    18885.741300       0.770092
    18921.475900       0.768782
    18957.346000       0.767426
    18993.352300       0.766026
    19029.495700       0.764579
    19065.776900       0.763086
    19102.196800       0.761545
    19138.756000       0.759957
    19175.455400       0.758320
    19212.295900       0.756633
    19249.278200       0.754897
    19286.403100       0.753110
    19323.671500       0.751273
    19361.084200       0.749383
    19398.642100       0.747441
    19436.346000       0.745446
    19474.196700       0.743398
    19512.195100       0.741296
    19550.342100       0.739139
    19588.638600       0.736927
    19627.085400       0.734659
    19665.683400       0.732335
    19704.433500       0.729954
    19743.336600       0.727516
    19782.393700       0.725020
    19821.605600       0.722466
    19860.973200       0.719853
    19900.497500       0.717181
    19940.179500       0.714450
    19980.020000       0.711658
    20020.020000       0.708806
    20060.180500       0.705893
    20100.502500       0.702919
    20140.986900       0.699884
    20181.634700       0.696786
    20222.446900       0.693626
    20263.424500       0.690404
    20304.568500       0.687118
    20345.880000       0.683770
    20387.359800       0.680358
    20429.009200       0.676882
    20470.829100       0.673343
    20512.820500       0.669739
    20554.984600       0.666071
    20597.322300       0.662339
    20639.834900       0.658541
    20682.523300       0.654679
    20725.388600       0.650753
    20768.432000       0.646761
    20811.654500       0.642704
    20855.057400       0.638582
    20898.641600       0.634395
    20942.408400       0.630142
    20986.358900       0.625825
    21030.494200       0.621443
    21074.815600       0.616996
    21119.324200       0.612483
    21164.021200       0.607906
    21208.907700       0.603265
    21253.985100       0.598559
    21299.254500       0.593789
    21344.717200       0.588954
    21390.374300       0.584056
    21436.227200       0.579095
    21482.277100       0.574070
    21528.525300       0.568983
    21574.973000       0.563833
    21621.621600       0.558621
    21668.472400       0.553348
    21715.526600       0.548013
    21762.785600       0.542618
    21810.250800       0.537162
    21857.923500       0.531647
    21905.805000       0.526073
    21953.896800       0.520441
    22002.200200       0.514751
    22050.716600       0.509004
    22099.447500       0.503201
    22148.394200       0.497342
    22197.558300       0.491428
    22246.941000       0.485460
    22296.544000       0.479440
    22346.368700       0.473367
    22396.416600       0.467243
    22446.689100       0.461069
    22497.187900       0.454846
    22547.914300       0.448574
    22598.870100       0.442256
    22650.056600       0.435891
    22701.475600       0.429482
    22753.128600       0.423030
    22805.017100       0.416535
    22857.142900       0.409999
    22909.507400       0.403424
    22962.112500       0.396810
    23014.959700       0.390159
    23068.050700       0.383474
    23121.387300       0.376754
    23174.971000       0.370002
    23228.803700       0.363220
    23282.887100       0.356409
    23337.222900       0.349570
    23391.812900       0.342707
    23446.658900       0.335819
    23501.762600       0.328909
    23557.126000       0.321980
    23612.750900       0.315033
    23668.639100       0.308069
    23724.792400       0.301092
    23781.212800       0.294103
    23837.902300       0.287104
    23894.862600       0.280097
    23952.095800       0.273086
    24009.603800       0.266071
    24067.388700       0.259056
    24125.452400       0.252043
    24183.796900       0.245034
    24242.424200       0.238032
    24301.336600       0.231039
    24360.535900       0.224059
    24420.024400       0.217093
    24479.804200       0.210145
    24539.877300       0.203217
    24600.246000       0.196312
    24660.912500       0.189434
    24721.878900       0.182584
    24783.147500       0.175767
    24844.720500       0.168985
    24906.600200       0.162241
    24968.789000       0.155540
    25031.289100       0.148883
    25094.102900       0.142274
    25157.232700       0.135718
    25220.681000       0.129216
    25284.450100       0.122773
    25348.542500       0.116393
    25412.960600       0.110079
    25477.707000       0.103835
