39,   39, MVIRI VIS channel from srf_MET2_1986348_1986349_1801-Release_S10EL_10.dat
Number of data points:
730
Wavenumber (cm-1)   Filter response
     8916.629500       0.000000
     8924.587200       0.000000
     8932.559200       0.000002
     8940.545400       0.000011
     8948.545900       0.000032
     8956.560700       0.000069
     8964.589900       0.000126
     8972.633500       0.000208
     8980.691500       0.000318
     8988.764000       0.000461
     8996.851100       0.000640
     9004.952700       0.000858
     9013.068900       0.001120
     9021.199800       0.001427
     9029.345400       0.001784
     9037.505600       0.002192
     9045.680700       0.002656
     9053.870500       0.003177
     9062.075200       0.003758
     9070.294800       0.004401
     9078.529300       0.005108
     9086.778700       0.005883
     9095.043200       0.006725
     9103.322700       0.007639
     9111.617300       0.008624
     9119.927000       0.009684
     9128.251900       0.010818
     9136.592100       0.012030
     9144.947400       0.013319
     9153.318100       0.014688
     9161.704100       0.016137
     9170.105500       0.017668
     9178.522300       0.019281
     9186.954500       0.020977
     9195.402300       0.022756
     9203.865600       0.024621
     9212.344500       0.026570
     9220.839100       0.028605
     9229.349300       0.030725
     9237.875300       0.032932
     9246.417000       0.035225
     9254.974500       0.037605
     9263.547900       0.040072
     9272.137200       0.042625
     9280.742500       0.045265
     9289.363700       0.047991
     9298.000900       0.050804
     9306.654300       0.053703
     9315.323700       0.056687
     9324.009300       0.059758
     9332.711200       0.062913
     9341.429200       0.066153
     9350.163600       0.069477
     9358.914400       0.072885
     9367.681500       0.076375
     9376.465100       0.079949
     9385.265100       0.083603
     9394.081700       0.087338
     9402.914900       0.091153
     9411.764700       0.095048
     9420.631200       0.099021
     9429.514400       0.103071
     9438.414300       0.107198
     9447.331100       0.111400
     9456.264800       0.115678
     9465.215300       0.120028
     9474.182900       0.124451
     9483.167400       0.128946
     9492.169000       0.133510
     9501.187600       0.138144
     9510.223500       0.142846
     9519.276500       0.147614
     9528.346800       0.152448
     9537.434400       0.157346
     9546.539400       0.162307
     9555.661700       0.167331
     9564.801500       0.172414
     9573.958800       0.177557
     9583.133700       0.182757
     9592.326100       0.188014
     9601.536200       0.193327
     9610.764100       0.198692
     9620.009600       0.204111
     9629.273000       0.209581
     9638.554200       0.215100
     9647.853400       0.220668
     9657.170400       0.226282
     9666.505600       0.231942
     9675.858700       0.237647
     9685.230000       0.243393
     9694.619500       0.249181
     9704.027200       0.255008
     9713.453100       0.260875
     9722.897400       0.266778
     9732.360100       0.272716
     9741.841200       0.278689
     9751.340800       0.284694
     9760.859000       0.290731
     9770.395700       0.296797
     9779.951100       0.302892
     9789.525200       0.309013
     9799.118100       0.315161
     9808.729800       0.321332
     9818.360300       0.327526
     9828.009800       0.333741
     9837.678300       0.339976
     9847.365800       0.346230
     9857.072400       0.352500
     9866.798200       0.358787
     9876.543200       0.365088
     9886.307500       0.371402
     9896.091000       0.377728
     9905.894000       0.384063
     9915.716400       0.390408
     9925.558300       0.396761
     9935.419800       0.403120
     9945.300800       0.409484
     9955.201600       0.415852
     9965.122100       0.422222
     9975.062300       0.428594
     9985.022500       0.434965
     9995.002500       0.441336
    10005.002500       0.447704
    10015.022500       0.454068
    10025.062700       0.460427
    10035.122900       0.466780
    10045.203400       0.473126
    10055.304200       0.479464
    10065.425300       0.485792
    10075.566800       0.492109
    10085.728700       0.498414
    10095.911200       0.504707
    10106.114200       0.510985
    10116.337900       0.517249
    10126.582300       0.523496
    10136.847400       0.529726
    10147.133400       0.535938
    10157.440300       0.542130
    10167.768200       0.548303
    10178.117000       0.554454
    10188.487000       0.560583
    10198.878100       0.566689
    10209.290500       0.572771
    10219.724100       0.578828
    10230.179000       0.584860
    10240.655400       0.590865
    10251.153300       0.596841
    10261.672700       0.602790
    10272.213700       0.608709
    10282.776300       0.614598
    10293.360800       0.620457
    10303.967000       0.626284
    10314.595200       0.632078
    10325.245200       0.637839
    10335.917300       0.643567
    10346.611500       0.649260
    10357.327800       0.654917
    10368.066400       0.660538
    10378.827200       0.666123
    10389.610400       0.671671
    10400.416000       0.677181
    10411.244100       0.682652
    10422.094800       0.688084
    10432.968200       0.693476
    10443.864200       0.698828
    10454.783100       0.704139
    10465.724800       0.709409
    10476.689400       0.714637
    10487.677000       0.719823
    10498.687700       0.724965
    10509.721500       0.730065
    10520.778500       0.735120
    10531.858900       0.740131
    10542.962600       0.745098
    10554.089700       0.750020
    10565.240400       0.754896
    10576.414600       0.759726
    10587.612500       0.764510
    10598.834100       0.769248
    10610.079600       0.773939
    10621.348900       0.778582
    10632.642200       0.783178
    10643.959600       0.787727
    10655.301000       0.792227
    10666.666700       0.796679
    10678.056600       0.801082
    10689.470900       0.805436
    10700.909600       0.809742
    10712.372800       0.813998
    10723.860600       0.818205
    10735.373100       0.822362
    10746.910300       0.826470
    10758.472300       0.830527
    10770.059200       0.834535
    10781.671200       0.838492
    10793.308100       0.842399
    10804.970300       0.846255
    10816.657700       0.850061
    10828.370300       0.853816
    10840.108400       0.857521
    10851.871900       0.861175
    10863.661100       0.864778
    10875.475800       0.868331
    10887.316300       0.871832
    10899.182600       0.875283
    10911.074700       0.878683
    10922.992900       0.882032
    10934.937100       0.885330
    10946.907500       0.888578
    10958.904100       0.891774
    10970.927000       0.894921
    10982.976400       0.898016
    10995.052200       0.901061
    11007.154700       0.904055
    11019.283700       0.906999
    11031.439600       0.909892
    11043.622300       0.912736
    11055.832000       0.915529
    11068.068600       0.918272
    11080.332400       0.920966
    11092.623400       0.923609
    11104.941700       0.926203
    11117.287400       0.928748
    11129.660500       0.931243
    11142.061300       0.933690
    11154.489700       0.936087
    11166.945800       0.938436
    11179.429800       0.940736
    11191.941800       0.942988
    11204.481800       0.945191
    11217.049900       0.947347
    11229.646300       0.949455
    11242.270900       0.951515
    11254.924000       0.953528
    11267.605600       0.955494
    11280.315800       0.957413
    11293.054800       0.959286
    11305.822500       0.961112
    11318.619100       0.962892
    11331.444800       0.964626
    11344.299500       0.966315
    11357.183400       0.967958
    11370.096600       0.969556
    11383.039300       0.971110
    11396.011400       0.972619
    11409.013100       0.974084
    11422.044500       0.975504
    11435.105800       0.976882
    11448.196900       0.978215
    11461.318100       0.979506
    11474.469300       0.980754
    11487.650800       0.981960
    11500.862600       0.983123
    11514.104800       0.984244
    11527.377500       0.985324
    11540.680900       0.986363
    11554.015000       0.987361
    11567.380000       0.988318
    11580.775900       0.989235
    11594.202900       0.990111
    11607.661100       0.990948
    11621.150500       0.991746
    11634.671300       0.992505
    11648.223600       0.993225
    11661.807600       0.993907
    11675.423200       0.994550
    11689.070700       0.995156
    11702.750100       0.995725
    11716.461600       0.996256
    11730.205300       0.996751
    11743.981200       0.997209
    11757.789500       0.997631
    11771.630400       0.998017
    11785.503800       0.998368
    11799.410000       0.998684
    11813.349100       0.998965
    11827.321100       0.999211
    11841.326200       0.999424
    11855.364600       0.999602
    11869.436200       0.999748
    11883.541300       0.999860
    11897.680000       0.999939
    11911.852300       0.999985
    11926.058400       1.000000
    11940.298500       0.999983
    11954.572600       0.999934
    11968.880900       0.999854
    11983.223500       0.999743
    11997.600500       0.999601
    12012.012000       0.999429
    12026.458200       0.999228
    12040.939200       0.998996
    12055.455100       0.998736
    12070.006000       0.998446
    12084.592100       0.998128
    12099.213600       0.997781
    12113.870400       0.997406
    12128.562800       0.997003
    12143.290800       0.996573
    12158.054700       0.996116
    12172.854500       0.995631
    12187.690400       0.995120
    12202.562500       0.994583
    12217.471000       0.994020
    12232.415900       0.993431
    12247.397400       0.992817
    12262.415700       0.992177
    12277.470800       0.991513
    12292.563000       0.990824
    12307.692300       0.990110
    12322.858900       0.989373
    12338.062900       0.988612
    12353.304500       0.987827
    12368.583800       0.987019
    12383.900900       0.986187
    12399.256000       0.985334
    12414.649300       0.984457
    12430.080800       0.983559
    12445.550700       0.982638
    12461.059200       0.981696
    12476.606400       0.980732
    12492.192400       0.979747
    12507.817400       0.978741
    12523.481500       0.977714
    12539.185000       0.976666
    12554.927800       0.975598
    12570.710200       0.974510
    12586.532400       0.973402
    12602.394500       0.972275
    12618.296500       0.971128
    12634.238800       0.969962
    12650.221400       0.968777
    12666.244500       0.967573
    12682.308200       0.966350
    12698.412700       0.965109
    12714.558200       0.963850
    12730.744700       0.962573
    12746.972600       0.961278
    12763.241900       0.959965
    12779.552700       0.958635
    12795.905300       0.957287
    12812.299800       0.955923
    12828.736400       0.954542
    12845.215200       0.953143
    12861.736300       0.951729
    12878.300100       0.950298
    12894.906500       0.948851
    12911.555800       0.947387
    12928.248200       0.945908
    12944.983800       0.944413
    12961.762800       0.942903
    12978.585300       0.941377
    12995.451600       0.939836
    13012.361700       0.938280
    13029.316000       0.936709
    13046.314400       0.935123
    13063.357300       0.933522
    13080.444700       0.931907
    13097.576900       0.930277
    13114.754100       0.928633
    13131.976400       0.926975
    13149.243900       0.925303
    13166.556900       0.923617
    13183.915600       0.921917
    13201.320100       0.920203
    13218.770700       0.918476
    13236.267400       0.916736
    13253.810500       0.914982
    13271.400100       0.913215
    13289.036500       0.911435
    13306.719900       0.909642
    13324.450400       0.907836
    13342.228200       0.906017
    13360.053400       0.904186
    13377.926400       0.902342
    13395.847300       0.900485
    13413.816200       0.898617
    13431.833400       0.896735
    13449.899100       0.894842
    13468.013500       0.892937
    13486.176700       0.891019
    13504.388900       0.889090
    13522.650400       0.887149
    13540.961400       0.885196
    13559.322000       0.883231
    13577.732500       0.881255
    13596.193100       0.879267
    13614.703900       0.877268
    13633.265200       0.875257
    13651.877100       0.873236
    13670.540000       0.871203
    13689.253900       0.869158
    13708.019200       0.867103
    13726.836000       0.865037
    13745.704500       0.862960
    13764.624900       0.860872
    13783.597500       0.858773
    13802.622500       0.856663
    13821.700100       0.854543
    13840.830400       0.852412
    13860.013900       0.850271
    13879.250500       0.848119
    13898.540700       0.845957
    13917.884500       0.843785
    13937.282200       0.841602
    13956.734100       0.839409
    13976.240400       0.837206
    13995.801300       0.834993
    14015.417000       0.832770
    14035.087700       0.830537
    14054.813800       0.828294
    14074.595400       0.826041
    14094.432700       0.823779
    14114.326000       0.821507
    14134.275600       0.819225
    14154.281700       0.816933
    14174.344400       0.814633
    14194.464200       0.812322
    14214.641100       0.810002
    14234.875400       0.807673
    14255.167500       0.805335
    14275.517500       0.802987
    14295.925700       0.800631
    14316.392300       0.798265
    14336.917600       0.795890
    14357.501800       0.793506
    14378.145200       0.791113
    14398.848100       0.788712
    14419.610700       0.786302
    14440.433200       0.783883
    14461.316000       0.781455
    14482.259200       0.779019
    14503.263200       0.776574
    14524.328200       0.774121
    14545.454500       0.771660
    14566.642400       0.769190
    14587.892000       0.766713
    14609.203800       0.764226
    14630.577900       0.761732
    14652.014700       0.759230
    14673.514300       0.756720
    14695.077100       0.754202
    14716.703500       0.751677
    14738.393500       0.749143
    14760.147600       0.746603
    14781.966000       0.744054
    14803.849000       0.741498
    14825.796900       0.738935
    14847.809900       0.736364
    14869.888500       0.733787
    14892.032800       0.731202
    14914.243100       0.728610
    14936.519800       0.726011
    14958.863100       0.723406
    14981.273400       0.720793
    15003.750900       0.718174
    15026.296000       0.715548
    15048.909000       0.712916
    15071.590100       0.710278
    15094.339600       0.707633
    15117.158000       0.704982
    15140.045400       0.702325
    15163.002300       0.699662
    15186.028900       0.696993
    15209.125500       0.694318
    15232.292500       0.691637
    15255.530100       0.688951
    15278.838800       0.686260
    15302.218800       0.683563
    15325.670500       0.680861
    15349.194200       0.678154
    15372.790200       0.675441
    15396.458800       0.672724
    15420.200500       0.670002
    15444.015400       0.667276
    15467.904100       0.664544
    15491.866800       0.661809
    15515.903800       0.659069
    15540.015500       0.656325
    15564.202300       0.653576
    15588.464500       0.650824
    15612.802500       0.648068
    15637.216600       0.645308
    15661.707100       0.642545
    15686.274500       0.639778
    15710.919100       0.637008
    15735.641200       0.634235
    15760.441300       0.631459
    15785.319700       0.628679
    15810.276700       0.625897
    15835.312700       0.623113
    15860.428200       0.620326
    15885.623500       0.617536
    15910.899000       0.614744
    15936.255000       0.611950
    15961.691900       0.609154
    15987.210200       0.606357
    16012.810200       0.603557
    16038.492400       0.600756
    16064.257000       0.597954
    16090.104600       0.595151
    16116.035500       0.592346
    16142.050000       0.589540
    16168.148700       0.586734
    16194.332000       0.583927
    16220.600200       0.581119
    16246.953700       0.578311
    16273.393000       0.575503
    16299.918500       0.572695
    16326.530600       0.569887
    16353.229800       0.567079
    16380.016400       0.564271
    16406.890900       0.561464
    16433.853700       0.558657
    16460.905300       0.555852
    16488.046200       0.553047
    16515.276600       0.550243
    16542.597200       0.547441
    16570.008300       0.544640
    16597.510400       0.541841
    16625.103900       0.539043
    16652.789300       0.536248
    16680.567100       0.533454
    16708.437800       0.530662
    16736.401700       0.527873
    16764.459300       0.525086
    16792.611300       0.522302
    16820.857900       0.519520
    16849.199700       0.516742
    16877.637100       0.513966
    16906.170800       0.511194
    16934.801000       0.508425
    16963.528400       0.505659
    16992.353400       0.502897
    17021.276600       0.500139
    17050.298400       0.497384
    17079.419300       0.494634
    17108.639900       0.491888
    17137.960600       0.489146
    17167.382000       0.486408
    17196.904600       0.483675
    17226.528900       0.480947
    17256.255400       0.478223
    17286.084700       0.475504
    17316.017300       0.472791
    17346.053800       0.470082
    17376.194600       0.467379
    17406.440400       0.464682
    17436.791600       0.461989
    17467.248900       0.459303
    17497.812800       0.456622
    17528.483800       0.453947
    17559.262500       0.451279
    17590.149500       0.448616
    17621.145400       0.445959
    17652.250700       0.443309
    17683.466000       0.440665
    17714.791900       0.438028
    17746.228900       0.435397
    17777.777800       0.432773
    17809.439000       0.430156
    17841.213200       0.427545
    17873.101000       0.424942
    17905.103000       0.422345
    17937.219700       0.419756
    17969.451900       0.417174
    18001.800200       0.414599
    18034.265100       0.412031
    18066.847300       0.409471
    18099.547500       0.406919
    18132.366300       0.404373
    18165.304300       0.401836
    18198.362100       0.399305
    18231.540600       0.396783
    18264.840200       0.394268
    18298.261700       0.391762
    18331.805700       0.389262
    18365.472900       0.386771
    18399.264000       0.384288
    18433.179700       0.381812
    18467.220700       0.379344
    18501.387600       0.376884
    18535.681200       0.374433
    18570.102100       0.371989
    18604.651200       0.369553
    18639.329000       0.367125
    18674.136300       0.364705
    18709.073900       0.362292
    18744.142500       0.359888
    18779.342700       0.357492
    18814.675400       0.355104
    18850.141400       0.352723
    18885.741300       0.350351
    18921.475900       0.347986
    18957.346000       0.345629
    18993.352300       0.343280
    19029.495700       0.340938
    19065.776900       0.338604
    19102.196800       0.336278
    19138.756000       0.333959
    19175.455400       0.331648
    19212.295900       0.329345
    19249.278200       0.327048
    19286.403100       0.324759
    19323.671500       0.322477
    19361.084200       0.320202
    19398.642100       0.317935
    19436.346000       0.315674
    19474.196700       0.313420
    19512.195100       0.311173
    19550.342100       0.308932
    19588.638600       0.306698
    19627.085400       0.304471
    19665.683400       0.302249
    19704.433500       0.300034
    19743.336600       0.297825
    19782.393700       0.295622
    19821.605600       0.293425
    19860.973200       0.291233
    19900.497500       0.289047
    19940.179500       0.286866
    19980.020000       0.284691
    20020.020000       0.282520
    20060.180500       0.280355
    20100.502500       0.278194
    20140.986900       0.276037
    20181.634700       0.273886
    20222.446900       0.271738
    20263.424500       0.269594
    20304.568500       0.267455
    20345.880000       0.265319
    20387.359800       0.263186
    20429.009200       0.261057
    20470.829100       0.258931
    20512.820500       0.256808
    20554.984600       0.254687
    20597.322300       0.252569
    20639.834900       0.250454
    20682.523300       0.248340
    20725.388600       0.246229
    20768.432000       0.244119
    20811.654500       0.242011
    20855.057400       0.239904
    20898.641600       0.237798
    20942.408400       0.235692
    20986.358900       0.233588
    21030.494200       0.231484
    21074.815600       0.229380
    21119.324200       0.227275
    21164.021200       0.225171
    21208.907700       0.223066
    21253.985100       0.220960
    21299.254500       0.218854
    21344.717200       0.216746
    21390.374300       0.214637
    21436.227200       0.212526
    21482.277100       0.210413
    21528.525300       0.208298
    21574.973000       0.206181
    21621.621600       0.204061
    21668.472400       0.201938
    21715.526600       0.199813
    21762.785600       0.197684
    21810.250800       0.195551
    21857.923500       0.193415
    21905.805000       0.191275
    21953.896800       0.189131
    22002.200200       0.186983
    22050.716600       0.184830
    22099.447500       0.182672
    22148.394200       0.180510
    22197.558300       0.178342
    22246.941000       0.176169
    22296.544000       0.173991
    22346.368700       0.171807
    22396.416600       0.169617
    22446.689100       0.167420
    22497.187900       0.165218
    22547.914300       0.163009
    22598.870100       0.160794
    22650.056600       0.158572
    22701.475600       0.156344
    22753.128600       0.154108
    22805.017100       0.151865
    22857.142900       0.149615
    22909.507400       0.147358
    22962.112500       0.145093
    23014.959700       0.142821
    23068.050700       0.140541
    23121.387300       0.138254
    23174.971000       0.135958
    23228.803700       0.133655
    23282.887100       0.131345
    23337.222900       0.129026
    23391.812900       0.126700
    23446.658900       0.124365
    23501.762600       0.122023
    23557.126000       0.119673
    23612.750900       0.117315
    23668.639100       0.114949
    23724.792400       0.112576
    23781.212800       0.110194
    23837.902300       0.107806
    23894.862600       0.105410
    23952.095800       0.103006
    24009.603800       0.100596
    24067.388700       0.098178
    24125.452400       0.095754
    24183.796900       0.093323
    24242.424200       0.090885
    24301.336600       0.088442
    24360.535900       0.085992
    24420.024400       0.083537
    24479.804200       0.081076
    24539.877300       0.078610
    24600.246000       0.076140
    24660.912500       0.073665
    24721.878900       0.071186
    24783.147500       0.068704
    24844.720500       0.066218
    24906.600200       0.063730
    24968.789000       0.061239
    25031.289100       0.058747
    25094.102900       0.056253
    25157.232700       0.053759
    25220.681000       0.051265
    25284.450100       0.048772
    25348.542500       0.046279
    25412.960600       0.043789
    25477.707000       0.041301
