2,   2, MVIRI VIS channel from srf_MET4_1989258_1989259_1801-Release_S10EL_10.dat
Number of data points:
752
Wavenumber (cm-1)   Filter response
     8745.080900       0.000000
     8752.735200       0.000000
     8760.403000       0.000001
     8768.084200       0.000058
     8775.778900       0.000196
     8783.487000       0.000413
     8791.208800       0.000707
     8798.944100       0.001076
     8806.693100       0.001516
     8814.455700       0.002027
     8822.232000       0.002605
     8830.022100       0.003249
     8837.825900       0.003958
     8845.643500       0.004728
     8853.475000       0.005558
     8861.320300       0.006447
     8869.179600       0.007392
     8877.052800       0.008392
     8884.940000       0.009445
     8892.841300       0.010550
     8900.756600       0.011705
     8908.686000       0.012909
     8916.629500       0.014160
     8924.587200       0.015456
     8932.559200       0.016797
     8940.545400       0.018181
     8948.545900       0.019607
     8956.560700       0.021074
     8964.589900       0.022580
     8972.633500       0.024125
     8980.691500       0.025707
     8988.764000       0.027325
     8996.851100       0.028978
     9004.952700       0.030666
     9013.068900       0.032387
     9021.199800       0.034140
     9029.345400       0.035925
     9037.505600       0.037741
     9045.680700       0.039586
     9053.870500       0.041461
     9062.075200       0.043365
     9070.294800       0.045296
     9078.529300       0.047254
     9086.778700       0.049238
     9095.043200       0.051249
     9103.322700       0.053284
     9111.617300       0.055344
     9119.927000       0.057429
     9128.251900       0.059537
     9136.592100       0.061668
     9144.947400       0.063821
     9153.318100       0.065998
     9161.704100       0.068195
     9170.105500       0.070415
     9178.522300       0.072655
     9186.954500       0.074916
     9195.402300       0.077197
     9203.865600       0.079498
     9212.344500       0.081820
     9220.839100       0.084160
     9229.349300       0.086520
     9237.875300       0.088899
     9246.417000       0.091296
     9254.974500       0.093712
     9263.547900       0.096146
     9272.137200       0.098598
     9280.742500       0.101068
     9289.363700       0.103556
     9298.000900       0.106062
     9306.654300       0.108585
     9315.323700       0.111125
     9324.009300       0.113683
     9332.711200       0.116258
     9341.429200       0.118849
     9350.163600       0.121458
     9358.914400       0.124084
     9367.681500       0.126726
     9376.465100       0.129386
     9385.265100       0.132061
     9394.081700       0.134754
     9402.914900       0.137463
     9411.764700       0.140189
     9420.631200       0.142932
     9429.514400       0.145690
     9438.414300       0.148466
     9447.331100       0.151258
     9456.264800       0.154066
     9465.215300       0.156891
     9474.182900       0.159733
     9483.167400       0.162591
     9492.169000       0.165465
     9501.187600       0.168357
     9510.223500       0.171264
     9519.276500       0.174189
     9528.346800       0.177130
     9537.434400       0.180087
     9546.539400       0.183061
     9555.661700       0.186052
     9564.801500       0.189060
     9573.958800       0.192084
     9583.133700       0.195126
     9592.326100       0.198183
     9601.536200       0.201258
     9610.764100       0.204350
     9620.009600       0.207458
     9629.273000       0.210584
     9638.554200       0.213726
     9647.853400       0.216885
     9657.170400       0.220061
     9666.505600       0.223254
     9675.858700       0.226464
     9685.230000       0.229691
     9694.619500       0.232935
     9704.027200       0.236196
     9713.453100       0.239474
     9722.897400       0.242770
     9732.360100       0.246082
     9741.841200       0.249411
     9751.340800       0.252757
     9760.859000       0.256121
     9770.395700       0.259501
     9779.951100       0.262898
     9789.525200       0.266313
     9799.118100       0.269744
     9808.729800       0.273192
     9818.360300       0.276657
     9828.009800       0.280139
     9837.678300       0.283637
     9847.365800       0.287153
     9857.072400       0.290685
     9866.798200       0.294234
     9876.543200       0.297799
     9886.307500       0.301381
     9896.091000       0.304980
     9905.894000       0.308594
     9915.716400       0.312226
     9925.558300       0.315873
     9935.419800       0.319536
     9945.300800       0.323216
     9955.201600       0.326911
     9965.122100       0.330623
     9975.062300       0.334350
     9985.022500       0.338093
     9995.002500       0.341851
    10005.002500       0.345625
    10015.022500       0.349414
    10025.062700       0.353218
    10035.122900       0.357036
    10045.203400       0.360870
    10055.304200       0.364719
    10065.425300       0.368582
    10075.566800       0.372459
    10085.728700       0.376350
    10095.911200       0.380256
    10106.114200       0.384175
    10116.337900       0.388108
    10126.582300       0.392055
    10136.847400       0.396014
    10147.133400       0.399987
    10157.440300       0.403973
    10167.768200       0.407971
    10178.117000       0.411981
    10188.487000       0.416004
    10198.878100       0.420039
    10209.290500       0.424085
    10219.724100       0.428143
    10230.179000       0.432212
    10240.655400       0.436293
    10251.153300       0.440384
    10261.672700       0.444485
    10272.213700       0.448596
    10282.776300       0.452718
    10293.360800       0.456849
    10303.967000       0.460989
    10314.595200       0.465139
    10325.245200       0.469297
    10335.917300       0.473464
    10346.611500       0.477639
    10357.327800       0.481822
    10368.066400       0.486013
    10378.827200       0.490211
    10389.610400       0.494416
    10400.416000       0.498627
    10411.244100       0.502845
    10422.094800       0.507069
    10432.968200       0.511298
    10443.864200       0.515533
    10454.783100       0.519773
    10465.724800       0.524017
    10476.689400       0.528266
    10487.677000       0.532518
    10498.687700       0.536774
    10509.721500       0.541034
    10520.778500       0.545296
    10531.858900       0.549560
    10542.962600       0.553827
    10554.089700       0.558095
    10565.240400       0.562365
    10576.414600       0.566636
    10587.612500       0.570907
    10598.834100       0.575179
    10610.079600       0.579450
    10621.348900       0.583720
    10632.642200       0.587990
    10643.959600       0.592259
    10655.301000       0.596525
    10666.666700       0.600789
    10678.056600       0.605051
    10689.470900       0.609310
    10700.909600       0.613565
    10712.372800       0.617817
    10723.860600       0.622064
    10735.373100       0.626307
    10746.910300       0.630545
    10758.472300       0.634777
    10770.059200       0.639003
    10781.671200       0.643223
    10793.308100       0.647436
    10804.970300       0.651643
    10816.657700       0.655841
    10828.370300       0.660032
    10840.108400       0.664214
    10851.871900       0.668387
    10863.661100       0.672551
    10875.475800       0.676705
    10887.316300       0.680849
    10899.182600       0.684983
    10911.074700       0.689106
    10922.992900       0.693217
    10934.937100       0.697316
    10946.907500       0.701404
    10958.904100       0.705478
    10970.927000       0.709540
    10982.976400       0.713587
    10995.052200       0.717621
    11007.154700       0.721641
    11019.283700       0.725645
    11031.439600       0.729635
    11043.622300       0.733609
    11055.832000       0.737566
    11068.068600       0.741507
    11080.332400       0.745432
    11092.623400       0.749339
    11104.941700       0.753228
    11117.287400       0.757099
    11129.660500       0.760951
    11142.061300       0.764785
    11154.489700       0.768599
    11166.945800       0.772393
    11179.429800       0.776167
    11191.941800       0.779920
    11204.481800       0.783653
    11217.049900       0.787364
    11229.646300       0.791053
    11242.270900       0.794719
    11254.924000       0.798364
    11267.605600       0.801985
    11280.315800       0.805583
    11293.054800       0.809157
    11305.822500       0.812707
    11318.619100       0.816233
    11331.444800       0.819733
    11344.299500       0.823209
    11357.183400       0.826658
    11370.096600       0.830082
    11383.039300       0.833480
    11396.011400       0.836850
    11409.013100       0.840194
    11422.044500       0.843510
    11435.105800       0.846798
    11448.196900       0.850059
    11461.318100       0.853290
    11474.469300       0.856493
    11487.650800       0.859667
    11500.862600       0.862812
    11514.104800       0.865926
    11527.377500       0.869011
    11540.680900       0.872065
    11554.015000       0.875089
    11567.380000       0.878081
    11580.775900       0.881043
    11594.202900       0.883972
    11607.661100       0.886870
    11621.150500       0.889735
    11634.671300       0.892569
    11648.223600       0.895369
    11661.807600       0.898136
    11675.423200       0.900870
    11689.070700       0.903571
    11702.750100       0.906237
    11716.461600       0.908870
    11730.205300       0.911468
    11743.981200       0.914032
    11757.789500       0.916561
    11771.630400       0.919056
    11785.503800       0.921514
    11799.410000       0.923938
    11813.349100       0.926326
    11827.321100       0.928678
    11841.326200       0.930994
    11855.364600       0.933273
    11869.436200       0.935516
    11883.541300       0.937723
    11897.680000       0.939893
    11911.852300       0.942026
    11926.058400       0.944121
    11940.298500       0.946180
    11954.572600       0.948201
    11968.880900       0.950184
    11983.223500       0.952129
    11997.600500       0.954037
    12012.012000       0.955907
    12026.458200       0.957738
    12040.939200       0.959532
    12055.455100       0.961287
    12070.006000       0.963003
    12084.592100       0.964681
    12099.213600       0.966320
    12113.870400       0.967921
    12128.562800       0.969483
    12143.290800       0.971006
    12158.054700       0.972489
    12172.854500       0.973934
    12187.690400       0.975340
    12202.562500       0.976707
    12217.471000       0.978034
    12232.415900       0.979322
    12247.397400       0.980571
    12262.415700       0.981781
    12277.470800       0.982952
    12292.563000       0.984083
    12307.692300       0.985175
    12322.858900       0.986228
    12338.062900       0.987241
    12353.304500       0.988215
    12368.583800       0.989150
    12383.900900       0.990046
    12399.256000       0.990903
    12414.649300       0.991720
    12430.080800       0.992499
    12445.550700       0.993238
    12461.059200       0.993939
    12476.606400       0.994601
    12492.192400       0.995223
    12507.817400       0.995808
    12523.481500       0.996353
    12539.185000       0.996860
    12554.927800       0.997329
    12570.710200       0.997759
    12586.532400       0.998151
    12602.394500       0.998505
    12618.296500       0.998821
    12634.238800       0.999099
    12650.221400       0.999340
    12666.244500       0.999543
    12682.308200       0.999708
    12698.412700       0.999837
    12714.558200       0.999928
    12730.744700       0.999982
    12746.972600       1.000000
    12763.241900       0.999981
    12779.552700       0.999926
    12795.905300       0.999834
    12812.299800       0.999707
    12828.736400       0.999544
    12845.215200       0.999345
    12861.736300       0.999111
    12878.300100       0.998842
    12894.906500       0.998538
    12911.555800       0.998199
    12928.248200       0.997826
    12944.983800       0.997419
    12961.762800       0.996978
    12978.585300       0.996503
    12995.451600       0.995995
    13012.361700       0.995454
    13029.316000       0.994880
    13046.314400       0.994273
    13063.357300       0.993634
    13080.444700       0.992963
    13097.576900       0.992260
    13114.754100       0.991526
    13131.976400       0.990761
    13149.243900       0.989965
    13166.556900       0.989139
    13183.915600       0.988282
    13201.320100       0.987395
    13218.770700       0.986479
    13236.267400       0.985534
    13253.810500       0.984560
    13271.400100       0.983558
    13289.036500       0.982527
    13306.719900       0.981468
    13324.450400       0.980382
    13342.228200       0.979269
    13360.053400       0.978129
    13377.926400       0.976963
    13395.847300       0.975771
    13413.816200       0.974553
    13431.833400       0.973309
    13449.899100       0.972041
    13468.013500       0.970749
    13486.176700       0.969432
    13504.388900       0.968091
    13522.650400       0.966728
    13540.961400       0.965341
    13559.322000       0.963932
    13577.732500       0.962500
    13596.193100       0.961047
    13614.703900       0.959573
    13633.265200       0.958077
    13651.877100       0.956561
    13670.540000       0.955026
    13689.253900       0.953470
    13708.019200       0.951895
    13726.836000       0.950302
    13745.704500       0.948690
    13764.624900       0.947060
    13783.597500       0.945412
    13802.622500       0.943748
    13821.700100       0.942066
    13840.830400       0.940369
    13860.013900       0.938656
    13879.250500       0.936927
    13898.540700       0.935184
    13917.884500       0.933426
    13937.282200       0.931654
    13956.734100       0.929869
    13976.240400       0.928070
    13995.801300       0.926259
    14015.417000       0.924435
    14035.087700       0.922600
    14054.813800       0.920753
    14074.595400       0.918896
    14094.432700       0.917028
    14114.326000       0.915150
    14134.275600       0.913263
    14154.281700       0.911366
    14174.344400       0.909461
    14194.464200       0.907548
    14214.641100       0.905627
    14234.875400       0.903699
    14255.167500       0.901764
    14275.517500       0.899822
    14295.925700       0.897875
    14316.392300       0.895922
    14336.917600       0.893964
    14357.501800       0.892002
    14378.145200       0.890035
    14398.848100       0.888065
    14419.610700       0.886091
    14440.433200       0.884115
    14461.316000       0.882136
    14482.259200       0.880156
    14503.263200       0.878174
    14524.328200       0.876191
    14545.454500       0.874207
    14566.642400       0.872223
    14587.892000       0.870239
    14609.203800       0.868256
    14630.577900       0.866274
    14652.014700       0.864294
    14673.514300       0.862316
    14695.077100       0.860339
    14716.703500       0.858366
    14738.393500       0.856396
    14760.147600       0.854429
    14781.966000       0.852467
    14803.849000       0.850508
    14825.796900       0.848555
    14847.809900       0.846607
    14869.888500       0.844664
    14892.032800       0.842728
    14914.243100       0.840797
    14936.519800       0.838873
    14958.863100       0.836957
    14981.273400       0.835048
    15003.750900       0.833147
    15026.296000       0.831254
    15048.909000       0.829369
    15071.590100       0.827494
    15094.339600       0.825628
    15117.158000       0.823771
    15140.045400       0.821924
    15163.002300       0.820088
    15186.028900       0.818262
    15209.125500       0.816448
    15232.292500       0.814644
    15255.530100       0.812852
    15278.838800       0.811072
    15302.218800       0.809304
    15325.670500       0.807549
    15349.194200       0.805806
    15372.790200       0.804077
    15396.458800       0.802361
    15420.200500       0.800658
    15444.015400       0.798969
    15467.904100       0.797295
    15491.866800       0.795635
    15515.903800       0.793989
    15540.015500       0.792359
    15564.202300       0.790744
    15588.464500       0.789144
    15612.802500       0.787559
    15637.216600       0.785991
    15661.707100       0.784438
    15686.274500       0.782902
    15710.919100       0.781382
    15735.641200       0.779878
    15760.441300       0.778392
    15785.319700       0.776922
    15810.276700       0.775470
    15835.312700       0.774034
    15860.428200       0.772617
    15885.623500       0.771216
    15910.899000       0.769834
    15936.255000       0.768469
    15961.691900       0.767122
    15987.210200       0.765793
    16012.810200       0.764483
    16038.492400       0.763191
    16064.257000       0.761917
    16090.104600       0.760661
    16116.035500       0.759424
    16142.050000       0.758205
    16168.148700       0.757006
    16194.332000       0.755824
    16220.600200       0.754662
    16246.953700       0.753518
    16273.393000       0.752393
    16299.918500       0.751286
    16326.530600       0.750198
    16353.229800       0.749129
    16380.016400       0.748079
    16406.890900       0.747048
    16433.853700       0.746035
    16460.905300       0.745040
    16488.046200       0.744064
    16515.276600       0.743107
    16542.597200       0.742168
    16570.008300       0.741248
    16597.510400       0.740345
    16625.103900       0.739461
    16652.789300       0.738595
    16680.567100       0.737747
    16708.437800       0.736916
    16736.401700       0.736103
    16764.459300       0.735308
    16792.611300       0.734530
    16820.857900       0.733769
    16849.199700       0.733025
    16877.637100       0.732298
    16906.170800       0.731588
    16934.801000       0.730894
    16963.528400       0.730216
    16992.353400       0.729555
    17021.276600       0.728909
    17050.298400       0.728278
    17079.419300       0.727663
    17108.639900       0.727062
    17137.960600       0.726477
    17167.382000       0.725906
    17196.904600       0.725349
    17226.528900       0.724806
    17256.255400       0.724276
    17286.084700       0.723759
    17316.017300       0.723256
    17346.053800       0.722765
    17376.194600       0.722286
    17406.440400       0.721819
    17436.791600       0.721364
    17467.248900       0.720919
    17497.812800       0.720486
    17528.483800       0.720062
    17559.262500       0.719649
    17590.149500       0.719245
    17621.145400       0.718850
    17652.250700       0.718464
    17683.466000       0.718086
    17714.791900       0.717715
    17746.228900       0.717352
    17777.777800       0.716996
    17809.439000       0.716646
    17841.213200       0.716302
    17873.101000       0.715963
    17905.103000       0.715630
    17937.219700       0.715300
    17969.451900       0.714975
    18001.800200       0.714652
    18034.265100       0.714333
    18066.847300       0.714015
    18099.547500       0.713700
    18132.366300       0.713385
    18165.304300       0.713071
    18198.362100       0.712757
    18231.540600       0.712442
    18264.840200       0.712126
    18298.261700       0.711808
    18331.805700       0.711488
    18365.472900       0.711165
    18399.264000       0.710838
    18433.179700       0.710506
    18467.220700       0.710170
    18501.387600       0.709828
    18535.681200       0.709480
    18570.102100       0.709125
    18604.651200       0.708763
    18639.329000       0.708392
    18674.136300       0.708012
    18709.073900       0.707623
    18744.142500       0.707223
    18779.342700       0.706813
    18814.675400       0.706391
    18850.141400       0.705956
    18885.741300       0.705508
    18921.475900       0.705047
    18957.346000       0.704571
    18993.352300       0.704080
    19029.495700       0.703572
    19065.776900       0.703048
    19102.196800       0.702507
    19138.756000       0.701947
    19175.455400       0.701369
    19212.295900       0.700771
    19249.278200       0.700152
    19286.403100       0.699512
    19323.671500       0.698851
    19361.084200       0.698166
    19398.642100       0.697458
    19436.346000       0.696726
    19474.196700       0.695969
    19512.195100       0.695186
    19550.342100       0.694377
    19588.638600       0.693541
    19627.085400       0.692676
    19665.683400       0.691782
    19704.433500       0.690859
    19743.336600       0.689906
    19782.393700       0.688921
    19821.605600       0.687904
    19860.973200       0.686855
    19900.497500       0.685772
    19940.179500       0.684656
    19980.020000       0.683504
    20020.020000       0.682316
    20060.180500       0.681092
    20100.502500       0.679830
    20140.986900       0.678531
    20181.634700       0.677193
    20222.446900       0.675815
    20263.424500       0.674397
    20304.568500       0.672938
    20345.880000       0.671437
    20387.359800       0.669894
    20429.009200       0.668307
    20470.829100       0.666677
    20512.820500       0.665002
    20554.984600       0.663282
    20597.322300       0.661516
    20639.834900       0.659702
    20682.523300       0.657842
    20725.388600       0.655933
    20768.432000       0.653976
    20811.654500       0.651969
    20855.057400       0.649913
    20898.641600       0.647805
    20942.408400       0.645646
    20986.358900       0.643435
    21030.494200       0.641172
    21074.815600       0.638855
    21119.324200       0.636485
    21164.021200       0.634060
    21208.907700       0.631581
    21253.985100       0.629046
    21299.254500       0.626455
    21344.717200       0.623807
    21390.374300       0.621103
    21436.227200       0.618341
    21482.277100       0.615521
    21528.525300       0.612643
    21574.973000       0.609705
    21621.621600       0.606709
    21668.472400       0.603653
    21715.526600       0.600536
    21762.785600       0.597359
    21810.250800       0.594122
    21857.923500       0.590823
    21905.805000       0.587463
    21953.896800       0.584041
    22002.200200       0.580557
    22050.716600       0.577010
    22099.447500       0.573402
    22148.394200       0.569730
    22197.558300       0.565996
    22246.941000       0.562198
    22296.544000       0.558338
    22346.368700       0.554414
    22396.416600       0.550427
    22446.689100       0.546376
    22497.187900       0.542262
    22547.914300       0.538085
    22598.870100       0.533844
    22650.056600       0.529540
    22701.475600       0.525172
    22753.128600       0.520742
    22805.017100       0.516249
    22857.142900       0.511692
    22909.507400       0.507074
    22962.112500       0.502393
    23014.959700       0.497650
    23068.050700       0.492845
    23121.387300       0.487979
    23174.971000       0.483051
    23228.803700       0.478064
    23282.887100       0.473016
    23337.222900       0.467909
    23391.812900       0.462743
    23446.658900       0.457518
    23501.762600       0.452236
    23557.126000       0.446896
    23612.750900       0.441500
    23668.639100       0.436049
    23724.792400       0.430542
    23781.212800       0.424982
    23837.902300       0.419368
    23894.862600       0.413702
    23952.095800       0.407985
    24009.603800       0.402217
    24067.388700       0.396401
    24125.452400       0.390536
    24183.796900       0.384625
    24242.424200       0.378668
    24301.336600       0.372666
    24360.535900       0.366622
    24420.024400       0.360536
    24479.804200       0.354409
    24539.877300       0.348244
    24600.246000       0.342042
    24660.912500       0.335805
    24721.878900       0.329533
    24783.147500       0.323229
    24844.720500       0.316895
    24906.600200       0.310532
    24968.789000       0.304143
    25031.289100       0.297729
    25094.102900       0.291293
    25157.232700       0.284836
    25220.681000       0.278361
    25284.450100       0.271869
    25348.542500       0.265364
    25412.960600       0.258847
    25477.707000       0.252322
