04  , Filter noaa_11_avhrr_04.flt
Number of data points:
60
Wavenumber (cm-1)   Filter response
      854.701000       0.000999
      857.206200       0.000000
      859.711400       0.000000
      862.216600       0.004405
      864.721800       0.013659
      867.227000       0.024631
      869.732200       0.033422
      872.237400       0.040704
      874.742600       0.062174
      877.247800       0.116598
      879.753000       0.214807
      882.258200       0.337937
      884.763400       0.460117
      887.268600       0.559650
      889.773800       0.635718
      892.279000       0.694060
      894.784200       0.740187
      897.289400       0.777633
      899.794600       0.808953
      902.299800       0.836746
      904.805000       0.861425
      907.310200       0.881977
      909.815400       0.897392
      912.320600       0.907590
      914.825800       0.914597
      917.331000       0.920280
      919.836200       0.926508
      922.341400       0.933515
      924.846600       0.941067
      927.351800       0.949085
      929.857000       0.957337
      932.362200       0.965823
      934.867400       0.974465
      937.372600       0.983028
      939.877800       0.990580
      942.383000       0.996030
      944.888200       0.998599
      947.393400       0.998832
      949.898600       0.998521
      952.403800       0.999455
      954.909000       1.000000
      957.414200       0.984430
      959.919400       0.933904
      962.424600       0.829661
      964.929800       0.672877
      967.435000       0.493764
      969.940200       0.324780
      972.445400       0.196551
      974.950600       0.114761
      977.455800       0.067183
      979.961000       0.041211
      982.466200       0.025274
      984.971400       0.014932
      987.476600       0.008707
      989.981800       0.005127
      992.487000       0.002893
      994.992200       0.001496
      997.497400       0.000659
     1000.002600       0.000100
     1002.507800       0.000000
