15,   15, MVIRI VIS channel from srf_MET3_1990258_1990259_1801-Release_S10EE_10.dat
Number of data points:
743
Wavenumber (cm-1)   Filter response
     8814.455700       0.000000
     8822.232000       0.000000
     8830.022100       0.000709
     8837.825900       0.002975
     8845.643500       0.005261
     8853.475000       0.007565
     8861.320300       0.009887
     8869.179600       0.012225
     8877.052800       0.014578
     8884.940000       0.016945
     8892.841300       0.019325
     8900.756600       0.021717
     8908.686000       0.024121
     8916.629500       0.026535
     8924.587200       0.028959
     8932.559200       0.031392
     8940.545400       0.033833
     8948.545900       0.036282
     8956.560700       0.038738
     8964.589900       0.041201
     8972.633500       0.043669
     8980.691500       0.046144
     8988.764000       0.048624
     8996.851100       0.051109
     9004.952700       0.053598
     9013.068900       0.056091
     9021.199800       0.058589
     9029.345400       0.061090
     9037.505600       0.063594
     9045.680700       0.066103
     9053.870500       0.068613
     9062.075200       0.071128
     9070.294800       0.073645
     9078.529300       0.076165
     9086.778700       0.078688
     9095.043200       0.081214
     9103.322700       0.083742
     9111.617300       0.086273
     9119.927000       0.088807
     9128.251900       0.091344
     9136.592100       0.093884
     9144.947400       0.096427
     9153.318100       0.098974
     9161.704100       0.101523
     9170.105500       0.104077
     9178.522300       0.106634
     9186.954500       0.109194
     9195.402300       0.111759
     9203.865600       0.114327
     9212.344500       0.116901
     9220.839100       0.119478
     9229.349300       0.122061
     9237.875300       0.124649
     9246.417000       0.127242
     9254.974500       0.129840
     9263.547900       0.132445
     9272.137200       0.135056
     9280.742500       0.137673
     9289.363700       0.140296
     9298.000900       0.142927
     9306.654300       0.145565
     9315.323700       0.148210
     9324.009300       0.150864
     9332.711200       0.153525
     9341.429200       0.156195
     9350.163600       0.158874
     9358.914400       0.161561
     9367.681500       0.164258
     9376.465100       0.166965
     9385.265100       0.169682
     9394.081700       0.172409
     9402.914900       0.175146
     9411.764700       0.177894
     9420.631200       0.180654
     9429.514400       0.183424
     9438.414300       0.186207
     9447.331100       0.189002
     9456.264800       0.191809
     9465.215300       0.194628
     9474.182900       0.197461
     9483.167400       0.200307
     9492.169000       0.203165
     9501.187600       0.206038
     9510.223500       0.208925
     9519.276500       0.211826
     9528.346800       0.214741
     9537.434400       0.217672
     9546.539400       0.220616
     9555.661700       0.223577
     9564.801500       0.226552
     9573.958800       0.229544
     9583.133700       0.232551
     9592.326100       0.235574
     9601.536200       0.238613
     9610.764100       0.241669
     9620.009600       0.244741
     9629.273000       0.247831
     9638.554200       0.250937
     9647.853400       0.254060
     9657.170400       0.257200
     9666.505600       0.260358
     9675.858700       0.263534
     9685.230000       0.266727
     9694.619500       0.269938
     9704.027200       0.273166
     9713.453100       0.276413
     9722.897400       0.279678
     9732.360100       0.282961
     9741.841200       0.286262
     9751.340800       0.289581
     9760.859000       0.292919
     9770.395700       0.296276
     9779.951100       0.299650
     9789.525200       0.303043
     9799.118100       0.306455
     9808.729800       0.309885
     9818.360300       0.313333
     9828.009800       0.316800
     9837.678300       0.320286
     9847.365800       0.323790
     9857.072400       0.327312
     9866.798200       0.330852
     9876.543200       0.334411
     9886.307500       0.337988
     9896.091000       0.341584
     9905.894000       0.345196
     9915.716400       0.348828
     9925.558300       0.352477
     9935.419800       0.356144
     9945.300800       0.359828
     9955.201600       0.363530
     9965.122100       0.367250
     9975.062300       0.370986
     9985.022500       0.374740
     9995.002500       0.378510
    10005.002500       0.382298
    10015.022500       0.386102
    10025.062700       0.389922
    10035.122900       0.393758
    10045.203400       0.397611
    10055.304200       0.401479
    10065.425300       0.405363
    10075.566800       0.409262
    10085.728700       0.413176
    10095.911200       0.417105
    10106.114200       0.421049
    10116.337900       0.425006
    10126.582300       0.428978
    10136.847400       0.432964
    10147.133400       0.436964
    10157.440300       0.440976
    10167.768200       0.445001
    10178.117000       0.449040
    10188.487000       0.453090
    10198.878100       0.457153
    10209.290500       0.461227
    10219.724100       0.465312
    10230.179000       0.469409
    10240.655400       0.473516
    10251.153300       0.477634
    10261.672700       0.481761
    10272.213700       0.485899
    10282.776300       0.490045
    10293.360800       0.494201
    10303.967000       0.498365
    10314.595200       0.502537
    10325.245200       0.506717
    10335.917300       0.510905
    10346.611500       0.515099
    10357.327800       0.519301
    10368.066400       0.523508
    10378.827200       0.527721
    10389.610400       0.531940
    10400.416000       0.536164
    10411.244100       0.540392
    10422.094800       0.544624
    10432.968200       0.548860
    10443.864200       0.553100
    10454.783100       0.557342
    10465.724800       0.561587
    10476.689400       0.565834
    10487.677000       0.570082
    10498.687700       0.574332
    10509.721500       0.578582
    10520.778500       0.582833
    10531.858900       0.587083
    10542.962600       0.591333
    10554.089700       0.595582
    10565.240400       0.599829
    10576.414600       0.604074
    10587.612500       0.608317
    10598.834100       0.612557
    10610.079600       0.616793
    10621.348900       0.621026
    10632.642200       0.625254
    10643.959600       0.629478
    10655.301000       0.633696
    10666.666700       0.637909
    10678.056600       0.642115
    10689.470900       0.646315
    10700.909600       0.650509
    10712.372800       0.654694
    10723.860600       0.658871
    10735.373100       0.663040
    10746.910300       0.667200
    10758.472300       0.671351
    10770.059200       0.675492
    10781.671200       0.679622
    10793.308100       0.683742
    10804.970300       0.687851
    10816.657700       0.691948
    10828.370300       0.696033
    10840.108400       0.700105
    10851.871900       0.704164
    10863.661100       0.708210
    10875.475800       0.712242
    10887.316300       0.716259
    10899.182600       0.720262
    10911.074700       0.724249
    10922.992900       0.728221
    10934.937100       0.732176
    10946.907500       0.736115
    10958.904100       0.740037
    10970.927000       0.743942
    10982.976400       0.747828
    10995.052200       0.751696
    11007.154700       0.755546
    11019.283700       0.759376
    11031.439600       0.763188
    11043.622300       0.766978
    11055.832000       0.770749
    11068.068600       0.774499
    11080.332400       0.778228
    11092.623400       0.781935
    11104.941700       0.785620
    11117.287400       0.789282
    11129.660500       0.792922
    11142.061300       0.796539
    11154.489700       0.800133
    11166.945800       0.803702
    11179.429800       0.807247
    11191.941800       0.810768
    11204.481800       0.814264
    11217.049900       0.817734
    11229.646300       0.821179
    11242.270900       0.824597
    11254.924000       0.827990
    11267.605600       0.831355
    11280.315800       0.834694
    11293.054800       0.838005
    11305.822500       0.841288
    11318.619100       0.844544
    11331.444800       0.847771
    11344.299500       0.850970
    11357.183400       0.854139
    11370.096600       0.857280
    11383.039300       0.860391
    11396.011400       0.863472
    11409.013100       0.866523
    11422.044500       0.869544
    11435.105800       0.872534
    11448.196900       0.875493
    11461.318100       0.878421
    11474.469300       0.881318
    11487.650800       0.884183
    11500.862600       0.887016
    11514.104800       0.889817
    11527.377500       0.892586
    11540.680900       0.895322
    11554.015000       0.898025
    11567.380000       0.900696
    11580.775900       0.903333
    11594.202900       0.905937
    11607.661100       0.908507
    11621.150500       0.911044
    11634.671300       0.913546
    11648.223600       0.916014
    11661.807600       0.918449
    11675.423200       0.920848
    11689.070700       0.923213
    11702.750100       0.925543
    11716.461600       0.927839
    11730.205300       0.930099
    11743.981200       0.932324
    11757.789500       0.934514
    11771.630400       0.936668
    11785.503800       0.938787
    11799.410000       0.940870
    11813.349100       0.942917
    11827.321100       0.944928
    11841.326200       0.946904
    11855.364600       0.948843
    11869.436200       0.950747
    11883.541300       0.952614
    11897.680000       0.954445
    11911.852300       0.956239
    11926.058400       0.957997
    11940.298500       0.959719
    11954.572600       0.961404
    11968.880900       0.963053
    11983.223500       0.964665
    11997.600500       0.966241
    12012.012000       0.967780
    12026.458200       0.969283
    12040.939200       0.970749
    12055.455100       0.972178
    12070.006000       0.973571
    12084.592100       0.974927
    12099.213600       0.976247
    12113.870400       0.977530
    12128.562800       0.978776
    12143.290800       0.979986
    12158.054700       0.981160
    12172.854500       0.982297
    12187.690400       0.983398
    12202.562500       0.984463
    12217.471000       0.985491
    12232.415900       0.986483
    12247.397400       0.987439
    12262.415700       0.988359
    12277.470800       0.989244
    12292.563000       0.990092
    12307.692300       0.990904
    12322.858900       0.991681
    12338.062900       0.992422
    12353.304500       0.993128
    12368.583800       0.993798
    12383.900900       0.994434
    12399.256000       0.995034
    12414.649300       0.995599
    12430.080800       0.996129
    12445.550700       0.996624
    12461.059200       0.997085
    12476.606400       0.997512
    12492.192400       0.997904
    12507.817400       0.998262
    12523.481500       0.998586
    12539.185000       0.998876
    12554.927800       0.999132
    12570.710200       0.999355
    12586.532400       0.999545
    12602.394500       0.999702
    12618.296500       0.999825
    12634.238800       0.999916
    12650.221400       0.999974
    12666.244500       1.000000
    12682.308200       0.999994
    12698.412700       0.999955
    12714.558200       0.999885
    12730.744700       0.999783
    12746.972600       0.999650
    12763.241900       0.999486
    12779.552700       0.999290
    12795.905300       0.999064
    12812.299800       0.998808
    12828.736400       0.998521
    12845.215200       0.998204
    12861.736300       0.997858
    12878.300100       0.997481
    12894.906500       0.997076
    12911.555800       0.996641
    12928.248200       0.996177
    12944.983800       0.995685
    12961.762800       0.995164
    12978.585300       0.994615
    12995.451600       0.994039
    13012.361700       0.993434
    13029.316000       0.992802
    13046.314400       0.992144
    13063.357300       0.991458
    13080.444700       0.990746
    13097.576900       0.990007
    13114.754100       0.989242
    13131.976400       0.988451
    13149.243900       0.987635
    13166.556900       0.986794
    13183.915600       0.985927
    13201.320100       0.985036
    13218.770700       0.984121
    13236.267400       0.983181
    13253.810500       0.982217
    13271.400100       0.981230
    13289.036500       0.980219
    13306.719900       0.979185
    13324.450400       0.978128
    13342.228200       0.977049
    13360.053400       0.975947
    13377.926400       0.974824
    13395.847300       0.973679
    13413.816200       0.972512
    13431.833400       0.971324
    13449.899100       0.970115
    13468.013500       0.968886
    13486.176700       0.967637
    13504.388900       0.966367
    13522.650400       0.965078
    13540.961400       0.963769
    13559.322000       0.962441
    13577.732500       0.961094
    13596.193100       0.959728
    13614.703900       0.958345
    13633.265200       0.956943
    13651.877100       0.955523
    13670.540000       0.954085
    13689.253900       0.952631
    13708.019200       0.951159
    13726.836000       0.949671
    13745.704500       0.948166
    13764.624900       0.946645
    13783.597500       0.945109
    13802.622500       0.943556
    13821.700100       0.941989
    13840.830400       0.940406
    13860.013900       0.938808
    13879.250500       0.937196
    13898.540700       0.935570
    13917.884500       0.933929
    13937.282200       0.932275
    13956.734100       0.930607
    13976.240400       0.928926
    13995.801300       0.927232
    14015.417000       0.925525
    14035.087700       0.923805
    14054.813800       0.922073
    14074.595400       0.920330
    14094.432700       0.918574
    14114.326000       0.916807
    14134.275600       0.915029
    14154.281700       0.913239
    14174.344400       0.911439
    14194.464200       0.909628
    14214.641100       0.907807
    14234.875400       0.905975
    14255.167500       0.904134
    14275.517500       0.902283
    14295.925700       0.900423
    14316.392300       0.898553
    14336.917600       0.896674
    14357.501800       0.894786
    14378.145200       0.892890
    14398.848100       0.890985
    14419.610700       0.889072
    14440.433200       0.887151
    14461.316000       0.885222
    14482.259200       0.883286
    14503.263200       0.881342
    14524.328200       0.879390
    14545.454500       0.877432
    14566.642400       0.875467
    14587.892000       0.873495
    14609.203800       0.871516
    14630.577900       0.869531
    14652.014700       0.867540
    14673.514300       0.865543
    14695.077100       0.863540
    14716.703500       0.861531
    14738.393500       0.859517
    14760.147600       0.857497
    14781.966000       0.855472
    14803.849000       0.853441
    14825.796900       0.851406
    14847.809900       0.849366
    14869.888500       0.847321
    14892.032800       0.845272
    14914.243100       0.843218
    14936.519800       0.841160
    14958.863100       0.839097
    14981.273400       0.837031
    15003.750900       0.834960
    15026.296000       0.832886
    15048.909000       0.830807
    15071.590100       0.828726
    15094.339600       0.826640
    15117.158000       0.824551
    15140.045400       0.822459
    15163.002300       0.820363
    15186.028900       0.818264
    15209.125500       0.816162
    15232.292500       0.814057
    15255.530100       0.811949
    15278.838800       0.809838
    15302.218800       0.807724
    15325.670500       0.805607
    15349.194200       0.803487
    15372.790200       0.801365
    15396.458800       0.799240
    15420.200500       0.797113
    15444.015400       0.794983
    15467.904100       0.792851
    15491.866800       0.790716
    15515.903800       0.788579
    15540.015500       0.786439
    15564.202300       0.784297
    15588.464500       0.782152
    15612.802500       0.780006
    15637.216600       0.777857
    15661.707100       0.775705
    15686.274500       0.773552
    15710.919100       0.771396
    15735.641200       0.769238
    15760.441300       0.767078
    15785.319700       0.764915
    15810.276700       0.762750
    15835.312700       0.760583
    15860.428200       0.758414
    15885.623500       0.756242
    15910.899000       0.754068
    15936.255000       0.751892
    15961.691900       0.749713
    15987.210200       0.747532
    16012.810200       0.745349
    16038.492400       0.743163
    16064.257000       0.740974
    16090.104600       0.738784
    16116.035500       0.736590
    16142.050000       0.734394
    16168.148700       0.732196
    16194.332000       0.729994
    16220.600200       0.727790
    16246.953700       0.725583
    16273.393000       0.723374
    16299.918500       0.721161
    16326.530600       0.718946
    16353.229800       0.716728
    16380.016400       0.714506
    16406.890900       0.712282
    16433.853700       0.710054
    16460.905300       0.707823
    16488.046200       0.705589
    16515.276600       0.703351
    16542.597200       0.701110
    16570.008300       0.698865
    16597.510400       0.696617
    16625.103900       0.694365
    16652.789300       0.692109
    16680.567100       0.689849
    16708.437800       0.687586
    16736.401700       0.685318
    16764.459300       0.683046
    16792.611300       0.680770
    16820.857900       0.678490
    16849.199700       0.676206
    16877.637100       0.673916
    16906.170800       0.671623
    16934.801000       0.669325
    16963.528400       0.667022
    16992.353400       0.664714
    17021.276600       0.662401
    17050.298400       0.660084
    17079.419300       0.657761
    17108.639900       0.655433
    17137.960600       0.653100
    17167.382000       0.650761
    17196.904600       0.648417
    17226.528900       0.646068
    17256.255400       0.643713
    17286.084700       0.641351
    17316.017300       0.638985
    17346.053800       0.636612
    17376.194600       0.634233
    17406.440400       0.631848
    17436.791600       0.629457
    17467.248900       0.627059
    17497.812800       0.624656
    17528.483800       0.622245
    17559.262500       0.619828
    17590.149500       0.617405
    17621.145400       0.614974
    17652.250700       0.612537
    17683.466000       0.610093
    17714.791900       0.607642
    17746.228900       0.605183
    17777.777800       0.602718
    17809.439000       0.600245
    17841.213200       0.597765
    17873.101000       0.595278
    17905.103000       0.592783
    17937.219700       0.590281
    17969.451900       0.587770
    18001.800200       0.585252
    18034.265100       0.582727
    18066.847300       0.580194
    18099.547500       0.577652
    18132.366300       0.575103
    18165.304300       0.572545
    18198.362100       0.569980
    18231.540600       0.567407
    18264.840200       0.564825
    18298.261700       0.562235
    18331.805700       0.559636
    18365.472900       0.557030
    18399.264000       0.554415
    18433.179700       0.551792
    18467.220700       0.549160
    18501.387600       0.546519
    18535.681200       0.543871
    18570.102100       0.541213
    18604.651200       0.538547
    18639.329000       0.535873
    18674.136300       0.533190
    18709.073900       0.530498
    18744.142500       0.527798
    18779.342700       0.525089
    18814.675400       0.522371
    18850.141400       0.519645
    18885.741300       0.516910
    18921.475900       0.514167
    18957.346000       0.511414
    18993.352300       0.508654
    19029.495700       0.505885
    19065.776900       0.503107
    19102.196800       0.500321
    19138.756000       0.497526
    19175.455400       0.494722
    19212.295900       0.491911
    19249.278200       0.489091
    19286.403100       0.486262
    19323.671500       0.483426
    19361.084200       0.480581
    19398.642100       0.477728
    19436.346000       0.474867
    19474.196700       0.471998
    19512.195100       0.469121
    19550.342100       0.466236
    19588.638600       0.463344
    19627.085400       0.460444
    19665.683400       0.457536
    19704.433500       0.454620
    19743.336600       0.451697
    19782.393700       0.448767
    19821.605600       0.445830
    19860.973200       0.442886
    19900.497500       0.439935
    19940.179500       0.436977
    19980.020000       0.434012
    20020.020000       0.431041
    20060.180500       0.428063
    20100.502500       0.425079
    20140.986900       0.422089
    20181.634700       0.419093
    20222.446900       0.416091
    20263.424500       0.413083
    20304.568500       0.410071
    20345.880000       0.407052
    20387.359800       0.404029
    20429.009200       0.401001
    20470.829100       0.397968
    20512.820500       0.394930
    20554.984600       0.391888
    20597.322300       0.388842
    20639.834900       0.385792
    20682.523300       0.382738
    20725.388600       0.379680
    20768.432000       0.376620
    20811.654500       0.373556
    20855.057400       0.370489
    20898.641600       0.367420
    20942.408400       0.364348
    20986.358900       0.361274
    21030.494200       0.358198
    21074.815600       0.355121
    21119.324200       0.352042
    21164.021200       0.348962
    21208.907700       0.345881
    21253.985100       0.342800
    21299.254500       0.339718
    21344.717200       0.336636
    21390.374300       0.333554
    21436.227200       0.330473
    21482.277100       0.327392
    21528.525300       0.324313
    21574.973000       0.321234
    21621.621600       0.318158
    21668.472400       0.315083
    21715.526600       0.312011
    21762.785600       0.308941
    21810.250800       0.305873
    21857.923500       0.302809
    21905.805000       0.299749
    21953.896800       0.296692
    22002.200200       0.293639
    22050.716600       0.290591
    22099.447500       0.287547
    22148.394200       0.284508
    22197.558300       0.281475
    22246.941000       0.278447
    22296.544000       0.275425
    22346.368700       0.272410
    22396.416600       0.269401
    22446.689100       0.266399
    22497.187900       0.263404
    22547.914300       0.260417
    22598.870100       0.257438
    22650.056600       0.254467
    22701.475600       0.251505
    22753.128600       0.248552
    22805.017100       0.245608
    22857.142900       0.242674
    22909.507400       0.239749
    22962.112500       0.236835
    23014.959700       0.233932
    23068.050700       0.231039
    23121.387300       0.228158
    23174.971000       0.225288
    23228.803700       0.222430
    23282.887100       0.219584
    23337.222900       0.216750
    23391.812900       0.213930
    23446.658900       0.211123
    23501.762600       0.208329
    23557.126000       0.205549
    23612.750900       0.202782
    23668.639100       0.200031
    23724.792400       0.197294
    23781.212800       0.194571
    23837.902300       0.191864
    23894.862600       0.189173
    23952.095800       0.186497
    24009.603800       0.183837
    24067.388700       0.181194
    24125.452400       0.178567
    24183.796900       0.175957
    24242.424200       0.173364
    24301.336600       0.170788
    24360.535900       0.168229
    24420.024400       0.165689
    24479.804200       0.163166
    24539.877300       0.160662
    24600.246000       0.158176
    24660.912500       0.155708
    24721.878900       0.153259
    24783.147500       0.150829
    24844.720500       0.148418
    24906.600200       0.146026
    24968.789000       0.143654
    25031.289100       0.141301
    25094.102900       0.138967
    25157.232700       0.136653
    25220.681000       0.134359
    25284.450100       0.132085
    25348.542500       0.129831
    25412.960600       0.127597
    25477.707000       0.125382
