7  ,metop_02_hirs_07.flt  shift of -0.15cm-1 applied
Number of data points:
410
Wavenumber (cm-1)   Filter response
      728.350000       0.003308
      728.450000       0.003400
      728.550000       0.003497
      728.650000       0.003598
      728.750000       0.003702
      728.850000       0.003807
      728.950000       0.003912
      729.050000       0.004016
      729.150000       0.004118
      729.250000       0.004218
      729.350000       0.004316
      729.450000       0.004412
      729.550000       0.004505
      729.650000       0.004597
      729.750000       0.004689
      729.850000       0.004781
      729.950000       0.004873
      730.050000       0.004968
      730.150000       0.005067
      730.250000       0.005170
      730.350000       0.005280
      730.450000       0.005395
      730.550000       0.005518
      730.650000       0.005648
      730.750000       0.005784
      730.850000       0.005928
      730.950000       0.006077
      731.050000       0.006233
      731.150000       0.006393
      731.250000       0.006558
      731.350000       0.006726
      731.450000       0.006897
      731.550000       0.007071
      731.650000       0.007247
      731.750000       0.007426
      731.850000       0.007608
      731.950000       0.008008
      732.050000       0.008143
      732.150000       0.008262
      732.250000       0.008371
      732.350000       0.008476
      732.450000       0.008587
      732.550000       0.008714
      732.650000       0.008866
      732.750000       0.009052
      732.850000       0.009281
      732.950000       0.009561
      733.050000       0.009895
      733.150000       0.010286
      733.250000       0.010735
      733.350000       0.011239
      733.450000       0.011795
      733.550000       0.012396
      733.650000       0.013036
      733.750000       0.013707
      733.850000       0.014402
      733.950000       0.015108
      734.050000       0.015824
      734.150000       0.016548
      734.250000       0.017277
      734.350000       0.018014
      734.450000       0.018765
      734.550000       0.019536
      734.650000       0.020339
      734.750000       0.021188
      734.850000       0.022098
      734.950000       0.023086
      735.050000       0.024171
      735.150000       0.025371
      735.250000       0.026704
      735.350000       0.028185
      735.450000       0.029831
      735.550000       0.031654
      735.650000       0.033665
      735.750000       0.035873
      735.850000       0.038287
      735.950000       0.040907
      736.050000       0.043745
      736.150000       0.046808
      736.250000       0.050104
      736.350000       0.053646
      736.450000       0.057448
      736.550000       0.061530
      736.650000       0.065919
      736.750000       0.070647
      736.850000       0.075752
      736.950000       0.081281
      737.050000       0.087284
      737.150000       0.093821
      737.250000       0.100950
      737.350000       0.108750
      737.450000       0.117270
      737.550000       0.126600
      737.650000       0.136800
      737.750000       0.147940
      737.850000       0.160060
      737.950000       0.173290
      738.050000       0.187620
      738.150000       0.203090
      738.250000       0.219700
      738.350000       0.237460
      738.450000       0.256380
      738.550000       0.276410
      738.650000       0.297510
      738.750000       0.319630
      738.850000       0.342680
      738.950000       0.366570
      739.050000       0.391200
      739.150000       0.416430
      739.250000       0.442140
      739.350000       0.468170
      739.450000       0.494380
      739.550000       0.520580
      739.650000       0.546630
      739.750000       0.572330
      739.850000       0.597540
      739.950000       0.622080
      740.050000       0.645790
      740.150000       0.668520
      740.250000       0.690110
      740.350000       0.710430
      740.450000       0.729370
      740.550000       0.746820
      740.650000       0.762700
      740.750000       0.776960
      740.850000       0.789530
      740.950000       0.800410
      741.050000       0.809580
      741.150000       0.817080
      741.250000       0.822940
      741.350000       0.827220
      741.450000       0.830000
      741.550000       0.831380
      741.650000       0.831470
      741.750000       0.830370
      741.850000       0.828240
      741.950000       0.825220
      742.050000       0.821440
      742.150000       0.817020
      742.250000       0.812100
      742.350000       0.806830
      742.450000       0.801320
      742.550000       0.795690
      742.650000       0.790040
      742.750000       0.784500
      742.850000       0.779130
      742.950000       0.774040
      743.050000       0.769270
      743.150000       0.764890
      743.250000       0.760940
      743.350000       0.757460
      743.450000       0.754480
      743.550000       0.752020
      743.650000       0.750100
      743.750000       0.748720
      743.850000       0.747890
      743.950000       0.747670
      744.050000       0.748010
      744.150000       0.748900
      744.250000       0.750330
      744.350000       0.752290
      744.450000       0.754780
      744.550000       0.757790
      744.650000       0.761300
      744.750000       0.765270
      744.850000       0.769700
      744.950000       0.774560
      745.050000       0.779810
      745.150000       0.785430
      745.250000       0.791380
      745.350000       0.797620
      745.450000       0.804110
      745.550000       0.810830
      745.650000       0.817710
      745.750000       0.824740
      745.850000       0.831860
      745.950000       0.838870
      746.050000       0.845900
      746.150000       0.852930
      746.250000       0.859940
      746.350000       0.866900
      746.450000       0.873830
      746.550000       0.880670
      746.650000       0.887430
      746.750000       0.894080
      746.850000       0.900620
      746.950000       0.907050
      747.050000       0.913350
      747.150000       0.919510
      747.250000       0.925530
      747.350000       0.931390
      747.450000       0.937070
      747.550000       0.942570
      747.650000       0.947860
      747.750000       0.952920
      747.850000       0.957730
      747.950000       0.962640
      748.050000       0.967260
      748.150000       0.971580
      748.250000       0.975590
      748.350000       0.979270
      748.450000       0.982620
      748.550000       0.985620
      748.650000       0.988290
      748.750000       0.990610
      748.850000       0.992620
      748.950000       0.994320
      749.050000       0.995740
      749.150000       0.996890
      749.250000       0.997810
      749.350000       0.998520
      749.450000       0.999050
      749.550000       0.999440
      749.650000       0.999710
      749.750000       0.999890
      749.850000       1.000000
      749.950000       0.999750
      750.050000       0.999470
      750.150000       0.999160
      750.250000       0.998820
      750.350000       0.998470
      750.450000       0.998100
      750.550000       0.997710
      750.650000       0.997300
      750.750000       0.996870
      750.850000       0.996400
      750.950000       0.995880
      751.050000       0.995300
      751.150000       0.994670
      751.250000       0.993970
      751.350000       0.993190
      751.450000       0.992330
      751.550000       0.991370
      751.650000       0.990330
      751.750000       0.989180
      751.850000       0.987930
      751.950000       0.986680
      752.050000       0.985310
      752.150000       0.983800
      752.250000       0.982130
      752.350000       0.980290
      752.450000       0.978260
      752.550000       0.976010
      752.650000       0.973520
      752.750000       0.970770
      752.850000       0.967730
      752.950000       0.964370
      753.050000       0.960660
      753.150000       0.956570
      753.250000       0.952080
      753.350000       0.947170
      753.450000       0.941810
      753.550000       0.935990
      753.650000       0.929690
      753.750000       0.922900
      753.850000       0.915610
      753.950000       0.907660
      754.050000       0.899200
      754.150000       0.890200
      754.250000       0.880690
      754.350000       0.870690
      754.450000       0.860210
      754.550000       0.849260
      754.650000       0.837830
      754.750000       0.825960
      754.850000       0.813640
      754.950000       0.800870
      755.050000       0.787680
      755.150000       0.774090
      755.250000       0.760100
      755.350000       0.745740
      755.450000       0.731030
      755.550000       0.715990
      755.650000       0.700630
      755.750000       0.685000
      755.850000       0.669120
      755.950000       0.653370
      756.050000       0.637410
      756.150000       0.621290
      756.250000       0.605050
      756.350000       0.588740
      756.450000       0.572410
      756.550000       0.556090
      756.650000       0.539830
      756.750000       0.523670
      756.850000       0.507650
      756.950000       0.491790
      757.050000       0.476140
      757.150000       0.460720
      757.250000       0.445540
      757.350000       0.430620
      757.450000       0.415980
      757.550000       0.401630
      757.650000       0.387560
      757.750000       0.373780
      757.850000       0.360290
      757.950000       0.347150
      758.050000       0.334270
      758.150000       0.321670
      758.250000       0.309330
      758.350000       0.297270
      758.450000       0.285460
      758.550000       0.273930
      758.650000       0.262670
      758.750000       0.251680
      758.850000       0.240970
      758.950000       0.230560
      759.050000       0.220460
      759.150000       0.210660
      759.250000       0.201190
      759.350000       0.192050
      759.450000       0.183260
      759.550000       0.174810
      759.650000       0.166700
      759.750000       0.158950
      759.850000       0.151540
      759.950000       0.144430
      760.050000       0.137660
      760.150000       0.131210
      760.250000       0.125070
      760.350000       0.119230
      760.450000       0.113660
      760.550000       0.108360
      760.650000       0.103300
      760.750000       0.098473
      760.850000       0.093856
      760.950000       0.089438
      761.050000       0.085207
      761.150000       0.081154
      761.250000       0.077272
      761.350000       0.073556
      761.450000       0.070001
      761.550000       0.066606
      761.650000       0.063369
      761.750000       0.060291
      761.850000       0.057368
      761.950000       0.054595
      762.050000       0.051977
      762.150000       0.049513
      762.250000       0.047197
      762.350000       0.045024
      762.450000       0.042986
      762.550000       0.041073
      762.650000       0.039276
      762.750000       0.037583
      762.850000       0.035981
      762.950000       0.034459
      763.050000       0.033005
      763.150000       0.031609
      763.250000       0.030260
      763.350000       0.028952
      763.450000       0.027679
      763.550000       0.026438
      763.650000       0.025227
      763.750000       0.024047
      763.850000       0.022903
      763.950000       0.021800
      764.050000       0.020742
      764.150000       0.019739
      764.250000       0.018795
      764.350000       0.017918
      764.450000       0.017115
      764.550000       0.016387
      764.650000       0.015739
      764.750000       0.015169
      764.850000       0.014676
      764.950000       0.014253
      765.050000       0.013892
      765.150000       0.013585
      765.250000       0.013318
      765.350000       0.013079
      765.450000       0.012853
      765.550000       0.012627
      765.650000       0.012388
      765.750000       0.012122
      765.850000       0.011286
      765.950000       0.010883
      766.050000       0.010476
      766.150000       0.010066
      766.250000       0.009652
      766.350000       0.009237
      766.450000       0.008824
      766.550000       0.008415
      766.650000       0.008016
      766.750000       0.007629
      766.850000       0.007261
      766.950000       0.006915
      767.050000       0.006596
      767.150000       0.006307
      767.250000       0.006051
      767.350000       0.005830
      767.450000       0.005647
      767.550000       0.005500
      767.650000       0.005389
      767.750000       0.005311
      767.850000       0.005265
      767.950000       0.005245
      768.050000       0.005248
      768.150000       0.005269
      768.250000       0.005304
      768.350000       0.005347
      768.450000       0.005392
      768.550000       0.005437
      768.650000       0.005476
      768.750000       0.005505
      768.850000       0.005524
      768.950000       0.005530
      769.050000       0.005522
      769.150000       0.005501
      769.250000       0.005468
