14, channel 14 SRF extracted from AHI-9_SpectralResponsivity_Data.xlsx (release Oct 2013)
Number of data points:
1491
Wavenumber (cm-1)   Filter response
      821.000000       0.000372
      821.100000       0.000381
      821.200000       0.000390
      821.300000       0.000398
      821.400000       0.000406
      821.500000       0.000413
      821.600000       0.000420
      821.700000       0.000426
      821.800000       0.000432
      821.900000       0.000438
      822.000000       0.000444
      822.100000       0.000450
      822.200000       0.000456
      822.300000       0.000462
      822.400000       0.000469
      822.500000       0.000476
      822.600000       0.000484
      822.700000       0.000493
      822.800000       0.000503
      822.900000       0.000513
      823.000000       0.000524
      823.100000       0.000536
      823.200000       0.000548
      823.300000       0.000561
      823.400000       0.000573
      823.500000       0.000585
      823.600000       0.000597
      823.700000       0.000608
      823.800000       0.000618
      823.900000       0.000627
      824.000000       0.000635
      824.100000       0.000641
      824.200000       0.000646
      824.300000       0.000648
      824.400000       0.000649
      824.500000       0.000649
      824.600000       0.000646
      824.700000       0.000642
      824.800000       0.000637
      824.900000       0.000630
      825.000000       0.000622
      825.100000       0.000614
      825.200000       0.000605
      825.300000       0.000596
      825.400000       0.000586
      825.500000       0.000577
      825.600000       0.000569
      825.700000       0.000560
      825.800000       0.000553
      825.900000       0.000547
      826.000000       0.000541
      826.100000       0.000537
      826.200000       0.000533
      826.300000       0.000531
      826.400000       0.000530
      826.500000       0.000531
      826.600000       0.000532
      826.700000       0.000535
      826.800000       0.000539
      826.900000       0.000544
      827.000000       0.000551
      827.100000       0.000559
      827.200000       0.000568
      827.300000       0.000579
      827.400000       0.000591
      827.500000       0.000605
      827.600000       0.000620
      827.700000       0.000636
      827.800000       0.000653
      827.900000       0.000672
      828.000000       0.000692
      828.100000       0.000713
      828.200000       0.000735
      828.300000       0.000757
      828.400000       0.000779
      828.500000       0.000802
      828.600000       0.000822
      828.700000       0.000961
      828.800000       0.001031
      828.900000       0.001051
      829.000000       0.001070
      829.100000       0.001088
      829.200000       0.001104
      829.300000       0.001118
      829.400000       0.001131
      829.500000       0.001141
      829.600000       0.001151
      829.700000       0.001158
      829.800000       0.001164
      829.900000       0.001168
      830.000000       0.001172
      830.100000       0.001175
      830.200000       0.001177
      830.300000       0.001179
      830.400000       0.001181
      830.500000       0.001184
      830.600000       0.001187
      830.700000       0.001191
      830.800000       0.001195
      830.900000       0.001201
      831.000000       0.001208
      831.100000       0.001216
      831.200000       0.001225
      831.300000       0.001235
      831.400000       0.001246
      831.500000       0.001259
      831.600000       0.001271
      831.700000       0.001284
      831.800000       0.001298
      831.900000       0.001311
      832.000000       0.001325
      832.100000       0.001340
      832.200000       0.001354
      832.300000       0.001368
      832.400000       0.001383
      832.500000       0.001397
      832.600000       0.001412
      832.700000       0.001428
      832.800000       0.001445
      832.900000       0.001462
      833.000000       0.001480
      833.100000       0.001499
      833.200000       0.001519
      833.300000       0.001541
      833.400000       0.001564
      833.500000       0.001588
      833.600000       0.001614
      833.700000       0.001640
      833.800000       0.001668
      833.900000       0.001696
      834.000000       0.001725
      834.100000       0.001754
      834.200000       0.001783
      834.300000       0.001813
      834.400000       0.001842
      834.500000       0.001871
      834.600000       0.001900
      834.700000       0.001928
      834.800000       0.001955
      834.900000       0.001983
      835.000000       0.002009
      835.100000       0.002036
      835.200000       0.002062
      835.300000       0.002089
      835.400000       0.002116
      835.500000       0.002144
      835.600000       0.002172
      835.700000       0.002202
      835.800000       0.002233
      835.900000       0.002266
      836.000000       0.002300
      836.100000       0.002336
      836.200000       0.002373
      836.300000       0.002412
      836.400000       0.002453
      836.500000       0.002496
      836.600000       0.002539
      836.700000       0.002584
      836.800000       0.002630
      836.900000       0.002677
      837.000000       0.002725
      837.100000       0.002772
      837.200000       0.002820
      837.300000       0.002868
      837.400000       0.002916
      837.500000       0.002963
      837.600000       0.003010
      837.700000       0.003057
      837.800000       0.003103
      837.900000       0.003148
      838.000000       0.003193
      838.100000       0.003237
      838.200000       0.003280
      838.300000       0.003324
      838.400000       0.003366
      838.500000       0.003409
      838.600000       0.003451
      838.700000       0.003493
      838.800000       0.003535
      838.900000       0.003577
      839.000000       0.003620
      839.100000       0.003663
      839.200000       0.003706
      839.300000       0.003750
      839.400000       0.003795
      839.500000       0.003841
      839.600000       0.003889
      839.700000       0.003938
      839.800000       0.003988
      839.900000       0.004041
      840.000000       0.004096
      840.100000       0.004153
      840.200000       0.004213
      840.300000       0.004274
      840.400000       0.004338
      840.500000       0.004404
      840.600000       0.004473
      840.700000       0.004544
      840.800000       0.004617
      840.900000       0.004692
      841.000000       0.004769
      841.100000       0.004847
      841.200000       0.004927
      841.300000       0.005009
      841.400000       0.005091
      841.500000       0.005174
      841.600000       0.005258
      841.700000       0.005343
      841.800000       0.005428
      841.900000       0.005513
      842.000000       0.005600
      842.100000       0.005686
      842.200000       0.005774
      842.300000       0.005862
      842.400000       0.005951
      842.500000       0.006041
      842.600000       0.006132
      842.700000       0.006225
      842.800000       0.006319
      842.900000       0.006414
      843.000000       0.006511
      843.100000       0.006611
      843.200000       0.006712
      843.300000       0.006814
      843.400000       0.006919
      843.500000       0.007026
      843.600000       0.007136
      843.700000       0.007249
      843.800000       0.007364
      843.900000       0.007483
      844.000000       0.007605
      844.100000       0.007729
      844.200000       0.007858
      844.300000       0.007990
      844.400000       0.008125
      844.500000       0.008264
      844.600000       0.008408
      844.700000       0.008555
      844.800000       0.008706
      844.900000       0.008862
      845.000000       0.009022
      845.100000       0.009187
      845.200000       0.009354
      845.300000       0.009525
      845.400000       0.009701
      845.500000       0.009880
      845.600000       0.010062
      845.700000       0.010247
      845.800000       0.010435
      845.900000       0.010625
      846.000000       0.010819
      846.100000       0.011014
      846.200000       0.011212
      846.300000       0.011413
      846.400000       0.011616
      846.500000       0.011822
      846.600000       0.012030
      846.700000       0.012239
      846.800000       0.012452
      846.900000       0.012668
      847.000000       0.012886
      847.100000       0.013107
      847.200000       0.013331
      847.300000       0.013558
      847.400000       0.013788
      847.500000       0.014022
      847.600000       0.014260
      847.700000       0.014503
      847.800000       0.014749
      847.900000       0.015000
      848.000000       0.015256
      848.100000       0.015517
      848.200000       0.015784
      848.300000       0.016055
      848.400000       0.016334
      848.500000       0.016618
      848.600000       0.016908
      848.700000       0.017206
      848.800000       0.017510
      848.900000       0.017821
      849.000000       0.018140
      849.100000       0.018467
      849.200000       0.018809
      849.300000       0.019164
      849.400000       0.019527
      849.500000       0.019900
      849.600000       0.020281
      849.700000       0.020673
      849.800000       0.021074
      849.900000       0.021483
      850.000000       0.021901
      850.100000       0.022327
      850.200000       0.022762
      850.300000       0.023206
      850.400000       0.023659
      850.500000       0.024119
      850.600000       0.024587
      850.700000       0.025063
      850.800000       0.025547
      850.900000       0.026040
      851.000000       0.026542
      851.100000       0.027053
      851.200000       0.027574
      851.300000       0.028099
      851.400000       0.028631
      851.500000       0.029176
      851.600000       0.029732
      851.700000       0.030299
      851.800000       0.030880
      851.900000       0.031475
      852.000000       0.032087
      852.100000       0.032712
      852.200000       0.033352
      852.300000       0.034008
      852.400000       0.034680
      852.500000       0.035365
      852.600000       0.036067
      852.700000       0.036784
      852.800000       0.037530
      852.900000       0.038319
      853.000000       0.039124
      853.100000       0.039947
      853.200000       0.040787
      853.300000       0.041642
      853.400000       0.042514
      853.500000       0.043403
      853.600000       0.044309
      853.700000       0.045232
      853.800000       0.046172
      853.900000       0.047105
      854.000000       0.048034
      854.100000       0.048977
      854.200000       0.049934
      854.300000       0.050909
      854.400000       0.051900
      854.500000       0.052908
      854.600000       0.053933
      854.700000       0.054979
      854.800000       0.056054
      854.900000       0.057226
      855.000000       0.058441
      855.100000       0.059683
      855.200000       0.060954
      855.300000       0.062254
      855.400000       0.063585
      855.500000       0.064948
      855.600000       0.066329
      855.700000       0.067736
      855.800000       0.069176
      855.900000       0.070649
      856.000000       0.072153
      856.100000       0.073690
      856.200000       0.075243
      856.300000       0.076792
      856.400000       0.078367
      856.500000       0.079972
      856.600000       0.081607
      856.700000       0.083281
      856.800000       0.085009
      856.900000       0.086785
      857.000000       0.088599
      857.100000       0.090446
      857.200000       0.092331
      857.300000       0.094281
      857.400000       0.096318
      857.500000       0.098401
      857.600000       0.100527
      857.700000       0.102701
      857.800000       0.104937
      857.900000       0.107229
      858.000000       0.109569
      858.100000       0.111955
      858.200000       0.114368
      858.300000       0.116825
      858.400000       0.119326
      858.500000       0.121869
      858.600000       0.124434
      858.700000       0.127033
      858.800000       0.129678
      858.900000       0.132361
      859.000000       0.135081
      859.100000       0.137841
      859.200000       0.140642
      859.300000       0.143508
      859.400000       0.146428
      859.500000       0.149396
      859.600000       0.152438
      859.700000       0.155551
      859.800000       0.158715
      859.900000       0.161954
      860.000000       0.165273
      860.100000       0.168646
      860.200000       0.172095
      860.300000       0.175614
      860.400000       0.179186
      860.500000       0.182830
      860.600000       0.186530
      860.700000       0.190288
      860.800000       0.194109
      860.900000       0.197981
      861.000000       0.201910
      861.100000       0.205893
      861.200000       0.209933
      861.300000       0.214021
      861.400000       0.218159
      861.500000       0.222343
      861.600000       0.226568
      861.700000       0.230841
      861.800000       0.235159
      861.900000       0.239530
      862.000000       0.243952
      862.100000       0.248419
      862.200000       0.252945
      862.300000       0.257512
      862.400000       0.262155
      862.500000       0.266840
      862.600000       0.271593
      862.700000       0.276410
      862.800000       0.281275
      862.900000       0.286220
      863.000000       0.291211
      863.100000       0.296280
      863.200000       0.301404
      863.300000       0.306609
      863.400000       0.311885
      863.500000       0.317239
      863.600000       0.322651
      863.700000       0.328114
      863.800000       0.333660
      863.900000       0.339262
      864.000000       0.344924
      864.100000       0.350625
      864.200000       0.356361
      864.300000       0.362127
      864.400000       0.367896
      864.500000       0.373677
      864.600000       0.379434
      864.700000       0.385211
      864.800000       0.390964
      864.900000       0.396728
      865.000000       0.402464
      865.100000       0.408216
      865.200000       0.413951
      865.300000       0.419691
      865.400000       0.425466
      865.500000       0.431268
      865.600000       0.437130
      865.700000       0.443041
      865.800000       0.449029
      865.900000       0.455077
      866.000000       0.461205
      866.100000       0.467430
      866.200000       0.473752
      866.300000       0.480197
      866.400000       0.486711
      866.500000       0.493336
      866.600000       0.500021
      866.700000       0.506775
      866.800000       0.513506
      866.900000       0.520269
      867.000000       0.526974
      867.100000       0.533641
      867.200000       0.540211
      867.300000       0.546689
      867.400000       0.553087
      867.500000       0.559419
      867.600000       0.565646
      867.700000       0.571799
      867.800000       0.577842
      867.900000       0.583833
      868.000000       0.589782
      868.100000       0.595665
      868.200000       0.601536
      868.300000       0.607362
      868.400000       0.613210
      868.500000       0.619073
      868.600000       0.625022
      868.700000       0.631029
      868.800000       0.637121
      868.900000       0.643289
      869.000000       0.649507
      869.100000       0.655825
      869.200000       0.662189
      869.300000       0.668596
      869.400000       0.674984
      869.500000       0.681352
      869.600000       0.687675
      869.700000       0.693917
      869.800000       0.700026
      869.900000       0.706053
      870.000000       0.711963
      870.100000       0.717780
      870.200000       0.723446
      870.300000       0.728979
      870.400000       0.734355
      870.500000       0.739606
      870.600000       0.744744
      870.700000       0.749766
      870.800000       0.754716
      870.900000       0.759599
      871.000000       0.764429
      871.100000       0.769223
      871.200000       0.774004
      871.300000       0.778785
      871.400000       0.783572
      871.500000       0.788372
      871.600000       0.793167
      871.700000       0.798043
      871.800000       0.802924
      871.900000       0.807878
      872.000000       0.812817
      872.100000       0.817753
      872.200000       0.822633
      872.300000       0.827300
      872.400000       0.831762
      872.500000       0.835929
      872.600000       0.839750
      872.700000       0.843452
      872.800000       0.846803
      872.900000       0.850002
      873.000000       0.853129
      873.100000       0.856001
      873.200000       0.858783
      873.300000       0.861513
      873.400000       0.864210
      873.500000       0.866899
      873.600000       0.869529
      873.700000       0.872157
      873.800000       0.875168
      873.900000       0.878323
      874.000000       0.881474
      874.100000       0.885264
      874.200000       0.889422
      874.300000       0.892964
      874.400000       0.895393
      874.500000       0.897595
      874.600000       0.899841
      874.700000       0.902003
      874.800000       0.904102
      874.900000       0.906049
      875.000000       0.907893
      875.100000       0.909599
      875.200000       0.911177
      875.300000       0.912653
      875.400000       0.913994
      875.500000       0.915258
      875.600000       0.916431
      875.700000       0.917572
      875.800000       0.918689
      875.900000       0.919811
      876.000000       0.920959
      876.100000       0.922173
      876.200000       0.923458
      876.300000       0.924835
      876.400000       0.926332
      876.500000       0.927923
      876.600000       0.929620
      876.700000       0.931347
      876.800000       0.933084
      876.900000       0.934805
      877.000000       0.936498
      877.100000       0.938154
      877.200000       0.939784
      877.300000       0.941341
      877.400000       0.942820
      877.500000       0.944175
      877.600000       0.945382
      877.700000       0.946448
      877.800000       0.947332
      877.900000       0.948093
      878.000000       0.948598
      878.100000       0.948948
      878.200000       0.949219
      878.300000       0.949431
      878.400000       0.949627
      878.500000       0.949849
      878.600000       0.950117
      878.700000       0.950460
      878.800000       0.950895
      878.900000       0.951364
      879.000000       0.951958
      879.100000       0.952631
      879.200000       0.953412
      879.300000       0.954264
      879.400000       0.955175
      879.500000       0.956139
      879.600000       0.957137
      879.700000       0.958117
      879.800000       0.959061
      879.900000       0.959949
      880.000000       0.960754
      880.100000       0.961473
      880.200000       0.962075
      880.300000       0.962588
      880.400000       0.962997
      880.500000       0.963324
      880.600000       0.963598
      880.700000       0.963827
      880.800000       0.964049
      880.900000       0.964295
      881.000000       0.964578
      881.100000       0.964921
      881.200000       0.965387
      881.300000       0.965950
      881.400000       0.966626
      881.500000       0.967429
      881.600000       0.968328
      881.700000       0.969297
      881.800000       0.970343
      881.900000       0.971419
      882.000000       0.972495
      882.100000       0.973529
      882.200000       0.974497
      882.300000       0.975406
      882.400000       0.976190
      882.500000       0.976882
      882.600000       0.977421
      882.700000       0.977841
      882.800000       0.978179
      882.900000       0.978430
      883.000000       0.978622
      883.100000       0.978764
      883.200000       0.978887
      883.300000       0.979011
      883.400000       0.979156
      883.500000       0.979316
      883.600000       0.979550
      883.700000       0.979865
      883.800000       0.980269
      883.900000       0.980788
      884.000000       0.981398
      884.100000       0.982104
      884.200000       0.982852
      884.300000       0.983645
      884.400000       0.984449
      884.500000       0.985229
      884.600000       0.985957
      884.700000       0.986630
      884.800000       0.987191
      884.900000       0.987619
      885.000000       0.987849
      885.100000       0.987850
      885.200000       0.987735
      885.300000       0.987472
      885.400000       0.987103
      885.500000       0.986645
      885.600000       0.986108
      885.700000       0.985546
      885.800000       0.984970
      885.900000       0.984428
      886.000000       0.983950
      886.100000       0.983549
      886.200000       0.983198
      886.300000       0.983025
      886.400000       0.982965
      886.500000       0.983020
      886.600000       0.983210
      886.700000       0.983495
      886.800000       0.983891
      886.900000       0.984332
      887.000000       0.984788
      887.100000       0.985214
      887.200000       0.985583
      887.300000       0.985839
      887.400000       0.986000
      887.500000       0.986058
      887.600000       0.986015
      887.700000       0.985854
      887.800000       0.985560
      887.900000       0.985159
      888.000000       0.984645
      888.100000       0.984047
      888.200000       0.983397
      888.300000       0.982772
      888.400000       0.982178
      888.500000       0.981668
      888.600000       0.981243
      888.700000       0.980929
      888.800000       0.980752
      888.900000       0.980679
      889.000000       0.980718
      889.100000       0.980844
      889.200000       0.981042
      889.300000       0.981263
      889.400000       0.981494
      889.500000       0.981695
      889.600000       0.981842
      889.700000       0.981902
      889.800000       0.981855
      889.900000       0.981668
      890.000000       0.981328
      890.100000       0.980876
      890.200000       0.980304
      890.300000       0.979653
      890.400000       0.978960
      890.500000       0.978260
      890.600000       0.977594
      890.700000       0.976997
      890.800000       0.976515
      890.900000       0.976161
      891.000000       0.976006
      891.100000       0.976006
      891.200000       0.976201
      891.300000       0.976579
      891.400000       0.977091
      891.500000       0.977744
      891.600000       0.978477
      891.700000       0.979278
      891.800000       0.980074
      891.900000       0.980818
      892.000000       0.981480
      892.100000       0.982025
      892.200000       0.982392
      892.300000       0.982596
      892.400000       0.982649
      892.500000       0.982476
      892.600000       0.982172
      892.700000       0.981705
      892.800000       0.981140
      892.900000       0.980508
      893.000000       0.979852
      893.100000       0.979222
      893.200000       0.978667
      893.300000       0.978215
      893.400000       0.977888
      893.500000       0.977721
      893.600000       0.977682
      893.700000       0.977805
      893.800000       0.978087
      893.900000       0.978512
      894.000000       0.979056
      894.100000       0.979669
      894.200000       0.980322
      894.300000       0.980972
      894.400000       0.981592
      894.500000       0.982126
      894.600000       0.982601
      894.700000       0.982944
      894.800000       0.983168
      894.900000       0.983231
      895.000000       0.983149
      895.100000       0.982969
      895.200000       0.982661
      895.300000       0.982253
      895.400000       0.981784
      895.500000       0.981290
      895.600000       0.980793
      895.700000       0.980326
      895.800000       0.979923
      895.900000       0.979576
      896.000000       0.979337
      896.100000       0.979175
      896.200000       0.979125
      896.300000       0.979147
      896.400000       0.979243
      896.500000       0.979432
      896.600000       0.979644
      896.700000       0.979878
      896.800000       0.980133
      896.900000       0.980364
      897.000000       0.980526
      897.100000       0.980639
      897.200000       0.980666
      897.300000       0.980586
      897.400000       0.980420
      897.500000       0.980148
      897.600000       0.979796
      897.700000       0.979362
      897.800000       0.978879
      897.900000       0.978364
      898.000000       0.977844
      898.100000       0.977346
      898.200000       0.976912
      898.300000       0.976561
      898.400000       0.976285
      898.500000       0.976162
      898.600000       0.976131
      898.700000       0.976182
      898.800000       0.976336
      898.900000       0.976587
      899.000000       0.976959
      899.100000       0.977380
      899.200000       0.977855
      899.300000       0.978337
      899.400000       0.978793
      899.500000       0.979187
      899.600000       0.979514
      899.700000       0.979753
      899.800000       0.979848
      899.900000       0.979853
      900.000000       0.979712
      900.100000       0.979481
      900.200000       0.979186
      900.300000       0.978820
      900.400000       0.978433
      900.500000       0.978060
      900.600000       0.977720
      900.700000       0.977431
      900.800000       0.977255
      900.900000       0.977180
      901.000000       0.977239
      901.100000       0.977440
      901.200000       0.977757
      901.300000       0.978207
      901.400000       0.978731
      901.500000       0.979338
      901.600000       0.979987
      901.700000       0.980635
      901.800000       0.981259
      901.900000       0.981828
      902.000000       0.982315
      902.100000       0.982689
      902.200000       0.982982
      902.300000       0.983144
      902.400000       0.983217
      902.500000       0.983203
      902.600000       0.983122
      902.700000       0.982997
      902.800000       0.982840
      902.900000       0.982704
      903.000000       0.982611
      903.100000       0.982597
      903.200000       0.982659
      903.300000       0.982845
      903.400000       0.983146
      903.500000       0.983553
      903.600000       0.984100
      903.700000       0.984728
      903.800000       0.985449
      903.900000       0.986231
      904.000000       0.987046
      904.100000       0.987849
      904.200000       0.988635
      904.300000       0.989368
      904.400000       0.990023
      904.500000       0.990603
      904.600000       0.991063
      904.700000       0.991438
      904.800000       0.991701
      904.900000       0.991865
      905.000000       0.991965
      905.100000       0.992013
      905.200000       0.992039
      905.300000       0.992072
      905.400000       0.992136
      905.500000       0.992238
      905.600000       0.992411
      905.700000       0.992668
      905.800000       0.992994
      905.900000       0.993435
      906.000000       0.993945
      906.100000       0.994540
      906.200000       0.995194
      906.300000       0.995879
      906.400000       0.996580
      906.500000       0.997271
      906.600000       0.997929
      906.700000       0.998528
      906.800000       0.999060
      906.900000       0.999471
      907.000000       0.999783
      907.100000       0.999961
      907.200000       1.000000
      907.300000       0.999945
      907.400000       0.999757
      907.500000       0.999469
      907.600000       0.999100
      907.700000       0.998649
      907.800000       0.998156
      907.900000       0.997626
      908.000000       0.997082
      908.100000       0.996542
      908.200000       0.996013
      908.300000       0.995490
      908.400000       0.994989
      908.500000       0.994525
      908.600000       0.994095
      908.700000       0.993686
      908.800000       0.993288
      908.900000       0.992877
      909.000000       0.992419
      909.100000       0.991902
      909.200000       0.991298
      909.300000       0.990592
      909.400000       0.989775
      909.500000       0.988780
      909.600000       0.987646
      909.700000       0.986330
      909.800000       0.984822
      909.900000       0.983163
      910.000000       0.981295
      910.100000       0.979303
      910.200000       0.977169
      910.300000       0.974897
      910.400000       0.972544
      910.500000       0.970109
      910.600000       0.967629
      910.700000       0.965110
      910.800000       0.962581
      910.900000       0.959984
      911.000000       0.957244
      911.100000       0.954353
      911.200000       0.951448
      911.300000       0.948508
      911.400000       0.945434
      911.500000       0.942298
      911.600000       0.939091
      911.700000       0.935802
      911.800000       0.932418
      911.900000       0.928922
      912.000000       0.925358
      912.100000       0.921631
      912.200000       0.917731
      912.300000       0.913749
      912.400000       0.909499
      912.500000       0.905131
      912.600000       0.900569
      912.700000       0.895788
      912.800000       0.890860
      912.900000       0.885719
      913.000000       0.880421
      913.100000       0.874922
      913.200000       0.869281
      913.300000       0.863561
      913.400000       0.857734
      913.500000       0.851841
      913.600000       0.845873
      913.700000       0.839838
      913.800000       0.833811
      913.900000       0.827706
      914.000000       0.821595
      914.100000       0.815542
      914.200000       0.809370
      914.300000       0.803250
      914.400000       0.797148
      914.500000       0.790960
      914.600000       0.784800
      914.700000       0.778594
      914.800000       0.772345
      914.900000       0.766094
      915.000000       0.759785
      915.100000       0.753379
      915.200000       0.746967
      915.300000       0.740521
      915.400000       0.733956
      915.500000       0.727330
      915.600000       0.720645
      915.700000       0.713834
      915.800000       0.706971
      915.900000       0.700041
      916.000000       0.693036
      916.100000       0.686015
      916.200000       0.678951
      916.300000       0.671832
      916.400000       0.664718
      916.500000       0.657587
      916.600000       0.650425
      916.700000       0.643288
      916.800000       0.636194
      916.900000       0.629108
      917.000000       0.622080
      917.100000       0.615098
      917.200000       0.608131
      917.300000       0.601185
      917.400000       0.594297
      917.500000       0.587446
      917.600000       0.580628
      917.700000       0.573872
      917.800000       0.567127
      917.900000       0.560399
      918.000000       0.553711
      918.100000       0.547056
      918.200000       0.540392
      918.300000       0.533758
      918.400000       0.527152
      918.500000       0.520572
      918.600000       0.514019
      918.700000       0.507498
      918.800000       0.501012
      918.900000       0.494568
      919.000000       0.488186
      919.100000       0.481828
      919.200000       0.475521
      919.300000       0.469295
      919.400000       0.463119
      919.500000       0.457004
      919.600000       0.450965
      919.700000       0.445002
      919.800000       0.439129
      919.900000       0.433324
      920.000000       0.427602
      920.100000       0.421957
      920.200000       0.416384
      920.300000       0.410888
      920.400000       0.405450
      920.500000       0.400060
      920.600000       0.394725
      920.700000       0.389427
      920.800000       0.384181
      920.900000       0.378979
      921.000000       0.373812
      921.100000       0.368682
      921.200000       0.363586
      921.300000       0.358532
      921.400000       0.353523
      921.500000       0.348554
      921.600000       0.343630
      921.700000       0.338749
      921.800000       0.333944
      921.900000       0.329201
      922.000000       0.324529
      922.100000       0.319937
      922.200000       0.315410
      922.300000       0.310989
      922.400000       0.306634
      922.500000       0.302366
      922.600000       0.298196
      922.700000       0.294092
      922.800000       0.290065
      922.900000       0.286090
      923.000000       0.282179
      923.100000       0.278329
      923.200000       0.274519
      923.300000       0.270744
      923.400000       0.267011
      923.500000       0.263312
      923.600000       0.259619
      923.700000       0.255969
      923.800000       0.252336
      923.900000       0.248718
      924.000000       0.245130
      924.100000       0.241576
      924.200000       0.238053
      924.300000       0.234574
      924.400000       0.231151
      924.500000       0.227795
      924.600000       0.224492
      924.700000       0.221252
      924.800000       0.218098
      924.900000       0.214992
      925.000000       0.211929
      925.100000       0.208957
      925.200000       0.206043
      925.300000       0.203167
      925.400000       0.200340
      925.500000       0.197556
      925.600000       0.194802
      925.700000       0.192077
      925.800000       0.189355
      925.900000       0.186628
      926.000000       0.183923
      926.100000       0.181231
      926.200000       0.178532
      926.300000       0.175791
      926.400000       0.173086
      926.500000       0.170397
      926.600000       0.167701
      926.700000       0.164993
      926.800000       0.162327
      926.900000       0.159698
      927.000000       0.157102
      927.100000       0.154537
      927.200000       0.152007
      927.300000       0.149518
      927.400000       0.147096
      927.500000       0.144739
      927.600000       0.142428
      927.700000       0.140157
      927.800000       0.137925
      927.900000       0.135722
      928.000000       0.133552
      928.100000       0.131425
      928.200000       0.129345
      928.300000       0.127295
      928.400000       0.125220
      928.500000       0.123129
      928.600000       0.121086
      928.700000       0.119093
      928.800000       0.117141
      928.900000       0.115162
      929.000000       0.113141
      929.100000       0.111161
      929.200000       0.109228
      929.300000       0.107343
      929.400000       0.105483
      929.500000       0.103601
      929.600000       0.101758
      929.700000       0.099960
      929.800000       0.098205
      929.900000       0.096489
      930.000000       0.094784
      930.100000       0.093056
      930.200000       0.091361
      930.300000       0.089706
      930.400000       0.088080
      930.500000       0.086496
      930.600000       0.084933
      930.700000       0.083293
      930.800000       0.081642
      930.900000       0.080046
      931.000000       0.078494
      931.100000       0.076994
      931.200000       0.075536
      931.300000       0.074087
      931.400000       0.072532
      931.500000       0.070993
      931.600000       0.069521
      931.700000       0.068105
      931.800000       0.066740
      931.900000       0.065432
      932.000000       0.064167
      932.100000       0.062892
      932.200000       0.061602
      932.300000       0.060358
      932.400000       0.059165
      932.500000       0.058018
      932.600000       0.056913
      932.700000       0.055846
      932.800000       0.054816
      932.900000       0.053819
      933.000000       0.052821
      933.100000       0.051753
      933.200000       0.050713
      933.300000       0.049716
      933.400000       0.048754
      933.500000       0.047828
      933.600000       0.046934
      933.700000       0.046071
      933.800000       0.045236
      933.900000       0.044427
      934.000000       0.043639
      934.100000       0.042876
      934.200000       0.042113
      934.300000       0.041346
      934.400000       0.040595
      934.500000       0.039865
      934.600000       0.039152
      934.700000       0.038455
      934.800000       0.037774
      934.900000       0.037109
      935.000000       0.036458
      935.100000       0.035823
      935.200000       0.035201
      935.300000       0.034591
      935.400000       0.033997
      935.500000       0.033416
      935.600000       0.032849
      935.700000       0.032296
      935.800000       0.031751
      935.900000       0.031193
      936.000000       0.030646
      936.100000       0.030113
      936.200000       0.029595
      936.300000       0.029089
      936.400000       0.028597
      936.500000       0.028116
      936.600000       0.027648
      936.700000       0.027192
      936.800000       0.026747
      936.900000       0.026312
      937.000000       0.025888
      937.100000       0.025473
      937.200000       0.025068
      937.300000       0.024671
      937.400000       0.024282
      937.500000       0.023901
      937.600000       0.023528
      937.700000       0.023160
      937.800000       0.022800
      937.900000       0.022446
      938.000000       0.022099
      938.100000       0.021757
      938.200000       0.021421
      938.300000       0.021094
      938.400000       0.020775
      938.500000       0.020462
      938.600000       0.020153
      938.700000       0.019850
      938.800000       0.019552
      938.900000       0.019258
      939.000000       0.018968
      939.100000       0.018682
      939.200000       0.018400
      939.300000       0.018122
      939.400000       0.017849
      939.500000       0.017579
      939.600000       0.017312
      939.700000       0.017049
      939.800000       0.016790
      939.900000       0.016534
      940.000000       0.016280
      940.100000       0.016030
      940.200000       0.015782
      940.300000       0.015537
      940.400000       0.015294
      940.500000       0.015054
      940.600000       0.014816
      940.700000       0.014580
      940.800000       0.014346
      940.900000       0.014115
      941.000000       0.013886
      941.100000       0.013658
      941.200000       0.013433
      941.300000       0.013210
      941.400000       0.012989
      941.500000       0.012771
      941.600000       0.012555
      941.700000       0.012342
      941.800000       0.012133
      941.900000       0.011927
      942.000000       0.011725
      942.100000       0.011526
      942.200000       0.011332
      942.300000       0.011143
      942.400000       0.010958
      942.500000       0.010778
      942.600000       0.010604
      942.700000       0.010443
      942.800000       0.010296
      942.900000       0.010150
      943.000000       0.010008
      943.100000       0.009868
      943.200000       0.009731
      943.300000       0.009596
      943.400000       0.009463
      943.500000       0.009332
      943.600000       0.009202
      943.700000       0.009073
      943.800000       0.008946
      943.900000       0.008820
      944.000000       0.008694
      944.100000       0.008569
      944.200000       0.008446
      944.300000       0.008322
      944.400000       0.008200
      944.500000       0.008078
      944.600000       0.007958
      944.700000       0.007838
      944.800000       0.007719
      944.900000       0.007601
      945.000000       0.007484
      945.100000       0.007369
      945.200000       0.007255
      945.300000       0.007142
      945.400000       0.007031
      945.500000       0.006923
      945.600000       0.006815
      945.700000       0.006710
      945.800000       0.006607
      945.900000       0.006506
      946.000000       0.006406
      946.100000       0.006309
      946.200000       0.006214
      946.300000       0.006120
      946.400000       0.006029
      946.500000       0.005940
      946.600000       0.005853
      946.700000       0.005767
      946.800000       0.005684
      946.900000       0.005603
      947.000000       0.005523
      947.100000       0.005445
      947.200000       0.005370
      947.300000       0.005296
      947.400000       0.005223
      947.500000       0.005152
      947.600000       0.005081
      947.700000       0.005012
      947.800000       0.004943
      947.900000       0.004875
      948.000000       0.004807
      948.100000       0.004739
      948.200000       0.004671
      948.300000       0.004603
      948.400000       0.004535
      948.500000       0.004466
      948.600000       0.004397
      948.700000       0.004329
      948.800000       0.004260
      948.900000       0.004191
      949.000000       0.004123
      949.100000       0.004056
      949.200000       0.003989
      949.300000       0.003924
      949.400000       0.003860
      949.500000       0.003798
      949.600000       0.003738
      949.700000       0.003680
      949.800000       0.003624
      949.900000       0.003570
      950.000000       0.003518
      950.100000       0.003469
      950.200000       0.003421
      950.300000       0.003374
      950.400000       0.003329
      950.500000       0.003285
      950.600000       0.003242
      950.700000       0.003199
      950.800000       0.003156
      950.900000       0.003113
      951.000000       0.003070
      951.100000       0.003027
      951.200000       0.002983
      951.300000       0.002938
      951.400000       0.002894
      951.500000       0.002849
      951.600000       0.002804
      951.700000       0.002759
      951.800000       0.002715
      951.900000       0.002672
      952.000000       0.002630
      952.100000       0.002589
      952.200000       0.002549
      952.300000       0.002512
      952.400000       0.002476
      952.500000       0.002442
      952.600000       0.002410
      952.700000       0.002380
      952.800000       0.002352
      952.900000       0.002325
      953.000000       0.002299
      953.100000       0.002275
      953.200000       0.002251
      953.300000       0.002227
      953.400000       0.002204
      953.500000       0.002181
      953.600000       0.002158
      953.700000       0.002135
      953.800000       0.002111
      953.900000       0.002088
      954.000000       0.002063
      954.100000       0.002039
      954.200000       0.002015
      954.300000       0.001991
      954.400000       0.001967
      954.500000       0.001944
      954.600000       0.001921
      954.700000       0.001899
      954.800000       0.001878
      954.900000       0.001858
      955.000000       0.001839
      955.100000       0.001821
      955.200000       0.001803
      955.300000       0.001786
      955.400000       0.001769
      955.500000       0.001752
      955.600000       0.001735
      955.700000       0.001718
      955.800000       0.001700
      955.900000       0.001682
      956.000000       0.001663
      956.100000       0.001644
      956.200000       0.001623
      956.300000       0.001602
      956.400000       0.001581
      956.500000       0.001559
      956.600000       0.001537
      956.700000       0.001515
      956.800000       0.001494
      956.900000       0.001474
      957.000000       0.001455
      957.100000       0.001437
      957.200000       0.001420
      957.300000       0.001406
      957.400000       0.001393
      957.500000       0.001381
      957.600000       0.001372
      957.700000       0.001364
      957.800000       0.001357
      957.900000       0.001351
      958.000000       0.001346
      958.100000       0.001341
      958.200000       0.001337
      958.300000       0.001332
      958.400000       0.001327
      958.500000       0.001322
      958.600000       0.001315
      958.700000       0.001307
      958.800000       0.001299
      958.900000       0.001289
      959.000000       0.001279
      959.100000       0.001268
      959.200000       0.001256
      959.300000       0.001244
      959.400000       0.001233
      959.500000       0.001169
      959.600000       0.001008
      959.700000       0.000998
      959.800000       0.000987
      959.900000       0.000977
      960.000000       0.000968
      960.100000       0.000959
      960.200000       0.000951
      960.300000       0.000944
      960.400000       0.000937
      960.500000       0.000930
      960.600000       0.000923
      960.700000       0.000917
      960.800000       0.000909
      960.900000       0.000902
      961.000000       0.000894
      961.100000       0.000885
      961.200000       0.000876
      961.300000       0.000866
      961.400000       0.000855
      961.500000       0.000845
      961.600000       0.000834
      961.700000       0.000823
      961.800000       0.000813
      961.900000       0.000803
      962.000000       0.000795
      962.100000       0.000787
      962.200000       0.000781
      962.300000       0.000776
      962.400000       0.000772
      962.500000       0.000769
      962.600000       0.000768
      962.700000       0.000767
      962.800000       0.000767
      962.900000       0.000767
      963.000000       0.000768
      963.100000       0.000768
      963.200000       0.000767
      963.300000       0.000766
      963.400000       0.000763
      963.500000       0.000758
      963.600000       0.000752
      963.700000       0.000744
      963.800000       0.000734
      963.900000       0.000723
      964.000000       0.000709
      964.100000       0.000695
      964.200000       0.000680
      964.300000       0.000664
      964.400000       0.000648
      964.500000       0.000632
      964.600000       0.000616
      964.700000       0.000602
      964.800000       0.000588
      964.900000       0.000577
      965.000000       0.000567
      965.100000       0.000559
      965.200000       0.000552
      965.300000       0.000548
      965.400000       0.000546
      965.500000       0.000545
      965.600000       0.000545
      965.700000       0.000547
      965.800000       0.000549
      965.900000       0.000552
      966.000000       0.000556
      966.100000       0.000559
      966.200000       0.000562
      966.300000       0.000564
      966.400000       0.000566
      966.500000       0.000567
      966.600000       0.000567
      966.700000       0.000567
      966.800000       0.000565
      966.900000       0.000562
      967.000000       0.000559
      967.100000       0.000555
      967.200000       0.000551
      967.300000       0.000545
      967.400000       0.000540
      967.500000       0.000534
      967.600000       0.000528
      967.700000       0.000522
      967.800000       0.000515
      967.900000       0.000508
      968.000000       0.000501
      968.100000       0.000493
      968.200000       0.000486
      968.300000       0.000477
      968.400000       0.000469
      968.500000       0.000460
      968.600000       0.000450
      968.700000       0.000440
      968.800000       0.000430
      968.900000       0.000419
      969.000000       0.000408
      969.100000       0.000398
      969.200000       0.000388
      969.300000       0.000378
      969.400000       0.000369
      969.500000       0.000360
      969.600000       0.000353
      969.700000       0.000347
      969.800000       0.000342
      969.900000       0.000338
      970.000000       0.000336
