46,   46, MVIRI VIS channel from srf_MET2_1987303_1987304_1801-Release_S10EL_10.dat
Number of data points:
730
Wavenumber (cm-1)   Filter response
     8916.629500       0.000000
     8924.587200       0.000000
     8932.559200       0.000002
     8940.545400       0.000011
     8948.545900       0.000032
     8956.560700       0.000069
     8964.589900       0.000127
     8972.633500       0.000209
     8980.691500       0.000319
     8988.764000       0.000463
     8996.851100       0.000642
     9004.952700       0.000861
     9013.068900       0.001123
     9021.199800       0.001432
     9029.345400       0.001789
     9037.505600       0.002199
     9045.680700       0.002664
     9053.870500       0.003186
     9062.075200       0.003769
     9070.294800       0.004414
     9078.529300       0.005124
     9086.778700       0.005901
     9095.043200       0.006746
     9103.322700       0.007662
     9111.617300       0.008650
     9119.927000       0.009713
     9128.251900       0.010851
     9136.592100       0.012066
     9144.947400       0.013359
     9153.318100       0.014732
     9161.704100       0.016186
     9170.105500       0.017721
     9178.522300       0.019338
     9186.954500       0.021039
     9195.402300       0.022824
     9203.865600       0.024694
     9212.344500       0.026648
     9220.839100       0.028689
     9229.349300       0.030816
     9237.875300       0.033029
     9246.417000       0.035328
     9254.974500       0.037715
     9263.547900       0.040189
     9272.137200       0.042749
     9280.742500       0.045396
     9289.363700       0.048130
     9298.000900       0.050951
     9306.654300       0.053858
     9315.323700       0.056850
     9324.009300       0.059929
     9332.711200       0.063093
     9341.429200       0.066342
     9350.163600       0.069675
     9358.914400       0.073092
     9367.681500       0.076592
     9376.465100       0.080175
     9385.265100       0.083839
     9394.081700       0.087584
     9402.914900       0.091409
     9411.764700       0.095314
     9420.631200       0.099298
     9429.514400       0.103358
     9438.414300       0.107496
     9447.331100       0.111709
     9456.264800       0.115998
     9465.215300       0.120360
     9474.182900       0.124794
     9483.167400       0.129300
     9492.169000       0.133875
     9501.187600       0.138521
     9510.223500       0.143235
     9519.276500       0.148015
     9528.346800       0.152861
     9537.434400       0.157771
     9546.539400       0.162744
     9555.661700       0.167780
     9564.801500       0.172875
     9573.958800       0.178031
     9583.133700       0.183244
     9592.326100       0.188513
     9601.536200       0.193838
     9610.764100       0.199217
     9620.009600       0.204648
     9629.273000       0.210131
     9638.554200       0.215663
     9647.853400       0.221243
     9657.170400       0.226870
     9666.505600       0.232543
     9675.858700       0.238261
     9685.230000       0.244020
     9694.619500       0.249821
     9704.027200       0.255661
     9713.453100       0.261540
     9722.897400       0.267456
     9732.360100       0.273407
     9741.841200       0.279393
     9751.340800       0.285411
     9760.859000       0.291460
     9770.395700       0.297540
     9779.951100       0.303646
     9789.525200       0.309781
     9799.118100       0.315941
     9808.729800       0.322124
     9818.360300       0.328331
     9828.009800       0.334558
     9837.678300       0.340806
     9847.365800       0.347072
     9857.072400       0.353354
     9866.798200       0.359653
     9876.543200       0.365966
     9886.307500       0.372292
     9896.091000       0.378629
     9905.894000       0.384977
     9915.716400       0.391333
     9925.558300       0.397697
     9935.419800       0.404068
     9945.300800       0.410443
     9955.201600       0.416822
     9965.122100       0.423203
     9975.062300       0.429585
     9985.022500       0.435968
     9995.002500       0.442349
    10005.002500       0.448727
    10015.022500       0.455101
    10025.062700       0.461471
    10035.122900       0.467834
    10045.203400       0.474189
    10055.304200       0.480537
    10065.425300       0.486874
    10075.566800       0.493200
    10085.728700       0.499515
    10095.911200       0.505816
    10106.114200       0.512104
    10116.337900       0.518375
    10126.582300       0.524631
    10136.847400       0.530869
    10147.133400       0.537089
    10157.440300       0.543290
    10167.768200       0.549470
    10178.117000       0.555628
    10188.487000       0.561765
    10198.878100       0.567878
    10209.290500       0.573967
    10219.724100       0.580030
    10230.179000       0.586068
    10240.655400       0.592079
    10251.153300       0.598062
    10261.672700       0.604016
    10272.213700       0.609941
    10282.776300       0.615835
    10293.360800       0.621699
    10303.967000       0.627531
    10314.595200       0.633330
    10325.245200       0.639095
    10335.917300       0.644827
    10346.611500       0.650524
    10357.327800       0.656185
    10368.066400       0.661810
    10378.827200       0.667398
    10389.610400       0.672949
    10400.416000       0.678461
    10411.244100       0.683935
    10422.094800       0.689369
    10432.968200       0.694763
    10443.864200       0.700117
    10454.783100       0.705430
    10465.724800       0.710701
    10476.689400       0.715930
    10487.677000       0.721117
    10498.687700       0.726260
    10509.721500       0.731360
    10520.778500       0.736416
    10531.858900       0.741427
    10542.962600       0.746394
    10554.089700       0.751315
    10565.240400       0.756190
    10576.414600       0.761019
    10587.612500       0.765802
    10598.834100       0.770538
    10610.079600       0.775227
    10621.348900       0.779869
    10632.642200       0.784463
    10643.959600       0.789009
    10655.301000       0.793506
    10666.666700       0.797955
    10678.056600       0.802355
    10689.470900       0.806706
    10700.909600       0.811008
    10712.372800       0.815260
    10723.860600       0.819463
    10735.373100       0.823616
    10746.910300       0.827719
    10758.472300       0.831772
    10770.059200       0.835774
    10781.671200       0.839726
    10793.308100       0.843627
    10804.970300       0.847478
    10816.657700       0.851278
    10828.370300       0.855027
    10840.108400       0.858725
    10851.871900       0.862372
    10863.661100       0.865969
    10875.475800       0.869514
    10887.316300       0.873008
    10899.182600       0.876452
    10911.074700       0.879844
    10922.992900       0.883185
    10934.937100       0.886475
    10946.907500       0.889714
    10958.904100       0.892902
    10970.927000       0.896039
    10982.976400       0.899125
    10995.052200       0.902161
    11007.154700       0.905146
    11019.283700       0.908080
    11031.439600       0.910963
    11043.622300       0.913797
    11055.832000       0.916579
    11068.068600       0.919312
    11080.332400       0.921995
    11092.623400       0.924628
    11104.941700       0.927210
    11117.287400       0.929744
    11129.660500       0.932228
    11142.061300       0.934662
    11154.489700       0.937048
    11166.945800       0.939384
    11179.429800       0.941672
    11191.941800       0.943911
    11204.481800       0.946102
    11217.049900       0.948245
    11229.646300       0.950340
    11242.270900       0.952387
    11254.924000       0.954386
    11267.605600       0.956339
    11280.315800       0.958244
    11293.054800       0.960102
    11305.822500       0.961914
    11318.619100       0.963680
    11331.444800       0.965400
    11344.299500       0.967074
    11357.183400       0.968703
    11370.096600       0.970286
    11383.039300       0.971824
    11396.011400       0.973318
    11409.013100       0.974767
    11422.044500       0.976172
    11435.105800       0.977534
    11448.196900       0.978852
    11461.318100       0.980126
    11474.469300       0.981358
    11487.650800       0.982547
    11500.862600       0.983694
    11514.104800       0.984799
    11527.377500       0.985862
    11540.680900       0.986884
    11554.015000       0.987864
    11567.380000       0.988804
    11580.775900       0.989703
    11594.202900       0.990563
    11607.661100       0.991382
    11621.150500       0.992162
    11634.671300       0.992903
    11648.223600       0.993605
    11661.807600       0.994268
    11675.423200       0.994894
    11689.070700       0.995481
    11702.750100       0.996031
    11716.461600       0.996544
    11730.205300       0.997019
    11743.981200       0.997459
    11757.789500       0.997862
    11771.630400       0.998229
    11785.503800       0.998561
    11799.410000       0.998857
    11813.349100       0.999119
    11827.321100       0.999346
    11841.326200       0.999538
    11855.364600       0.999697
    11869.436200       0.999822
    11883.541300       0.999914
    11897.680000       0.999974
    11911.852300       1.000000
    11926.058400       0.999994
    11940.298500       0.999956
    11954.572600       0.999887
    11968.880900       0.999786
    11983.223500       0.999655
    11997.600500       0.999493
    12012.012000       0.999300
    12026.458200       0.999077
    12040.939200       0.998825
    12055.455100       0.998543
    12070.006000       0.998232
    12084.592100       0.997892
    12099.213600       0.997524
    12113.870400       0.997128
    12128.562800       0.996704
    12143.290800       0.996252
    12158.054700       0.995773
    12172.854500       0.995267
    12187.690400       0.994734
    12202.562500       0.994175
    12217.471000       0.993590
    12232.415900       0.992979
    12247.397400       0.992343
    12262.415700       0.991681
    12277.470800       0.990994
    12292.563000       0.990283
    12307.692300       0.989547
    12322.858900       0.988787
    12338.062900       0.988004
    12353.304500       0.987196
    12368.583800       0.986366
    12383.900900       0.985512
    12399.256000       0.984635
    12414.649300       0.983736
    12430.080800       0.982815
    12445.550700       0.981871
    12461.059200       0.980906
    12476.606400       0.979919
    12492.192400       0.978911
    12507.817400       0.977882
    12523.481500       0.976832
    12539.185000       0.975761
    12554.927800       0.974670
    12570.710200       0.973559
    12586.532400       0.972428
    12602.394500       0.971277
    12618.296500       0.970107
    12634.238800       0.968917
    12650.221400       0.967709
    12666.244500       0.966481
    12682.308200       0.965235
    12698.412700       0.963971
    12714.558200       0.962688
    12730.744700       0.961387
    12746.972600       0.960069
    12763.241900       0.958732
    12779.552700       0.957378
    12795.905300       0.956007
    12812.299800       0.954619
    12828.736400       0.953214
    12845.215200       0.951792
    12861.736300       0.950354
    12878.300100       0.948899
    12894.906500       0.947428
    12911.555800       0.945941
    12928.248200       0.944438
    12944.983800       0.942919
    12961.762800       0.941385
    12978.585300       0.939835
    12995.451600       0.938270
    13012.361700       0.936690
    13029.316000       0.935095
    13046.314400       0.933485
    13063.357300       0.931860
    13080.444700       0.930221
    13097.576900       0.928567
    13114.754100       0.926899
    13131.976400       0.925217
    13149.243900       0.923521
    13166.556900       0.921811
    13183.915600       0.920087
    13201.320100       0.918350
    13218.770700       0.916599
    13236.267400       0.914834
    13253.810500       0.913056
    13271.400100       0.911265
    13289.036500       0.909461
    13306.719900       0.907644
    13324.450400       0.905815
    13342.228200       0.903972
    13360.053400       0.902116
    13377.926400       0.900249
    13395.847300       0.898368
    13413.816200       0.896475
    13431.833400       0.894570
    13449.899100       0.892653
    13468.013500       0.890724
    13486.176700       0.888783
    13504.388900       0.886829
    13522.650400       0.884864
    13540.961400       0.882888
    13559.322000       0.880899
    13577.732500       0.878899
    13596.193100       0.876888
    13614.703900       0.874865
    13633.265200       0.872830
    13651.877100       0.870785
    13670.540000       0.868728
    13689.253900       0.866660
    13708.019200       0.864582
    13726.836000       0.862492
    13745.704500       0.860391
    13764.624900       0.858280
    13783.597500       0.856157
    13802.622500       0.854025
    13821.700100       0.851881
    13840.830400       0.849727
    13860.013900       0.847562
    13879.250500       0.845387
    13898.540700       0.843202
    13917.884500       0.841007
    13937.282200       0.838801
    13956.734100       0.836585
    13976.240400       0.834359
    13995.801300       0.832123
    14015.417000       0.829877
    14035.087700       0.827621
    14054.813800       0.825355
    14074.595400       0.823080
    14094.432700       0.820795
    14114.326000       0.818500
    14134.275600       0.816196
    14154.281700       0.813882
    14174.344400       0.811558
    14194.464200       0.809226
    14214.641100       0.806884
    14234.875400       0.804532
    14255.167500       0.802172
    14275.517500       0.799802
    14295.925700       0.797423
    14316.392300       0.795036
    14336.917600       0.792639
    14357.501800       0.790233
    14378.145200       0.787819
    14398.848100       0.785396
    14419.610700       0.782964
    14440.433200       0.780524
    14461.316000       0.778075
    14482.259200       0.775617
    14503.263200       0.773151
    14524.328200       0.770677
    14545.454500       0.768195
    14566.642400       0.765704
    14587.892000       0.763206
    14609.203800       0.760699
    14630.577900       0.758184
    14652.014700       0.755661
    14673.514300       0.753131
    14695.077100       0.750593
    14716.703500       0.748047
    14738.393500       0.745493
    14760.147600       0.742933
    14781.966000       0.740364
    14803.849000       0.737788
    14825.796900       0.735205
    14847.809900       0.732615
    14869.888500       0.730018
    14892.032800       0.727414
    14914.243100       0.724803
    14936.519800       0.722185
    14958.863100       0.719560
    14981.273400       0.716929
    15003.750900       0.714291
    15026.296000       0.711646
    15048.909000       0.708996
    15071.590100       0.706339
    15094.339600       0.703676
    15117.158000       0.701006
    15140.045400       0.698331
    15163.002300       0.695650
    15186.028900       0.692963
    15209.125500       0.690271
    15232.292500       0.687573
    15255.530100       0.684869
    15278.838800       0.682161
    15302.218800       0.679447
    15325.670500       0.676728
    15349.194200       0.674003
    15372.790200       0.671275
    15396.458800       0.668541
    15420.200500       0.665802
    15444.015400       0.663059
    15467.904100       0.660312
    15491.866800       0.657560
    15515.903800       0.654805
    15540.015500       0.652045
    15564.202300       0.649281
    15588.464500       0.646513
    15612.802500       0.643742
    15637.216600       0.640967
    15661.707100       0.638189
    15686.274500       0.635407
    15710.919100       0.632623
    15735.641200       0.629835
    15760.441300       0.627044
    15785.319700       0.624251
    15810.276700       0.621455
    15835.312700       0.618656
    15860.428200       0.615855
    15885.623500       0.613052
    15910.899000       0.610247
    15936.255000       0.607440
    15961.691900       0.604631
    15987.210200       0.601821
    16012.810200       0.599008
    16038.492400       0.596195
    16064.257000       0.593380
    16090.104600       0.590565
    16116.035500       0.587748
    16142.050000       0.584930
    16168.148700       0.582112
    16194.332000       0.579294
    16220.600200       0.576475
    16246.953700       0.573656
    16273.393000       0.570836
    16299.918500       0.568017
    16326.530600       0.565198
    16353.229800       0.562380
    16380.016400       0.559562
    16406.890900       0.556745
    16433.853700       0.553928
    16460.905300       0.551113
    16488.046200       0.548299
    16515.276600       0.545485
    16542.597200       0.542674
    16570.008300       0.539864
    16597.510400       0.537056
    16625.103900       0.534249
    16652.789300       0.531445
    16680.567100       0.528643
    16708.437800       0.525843
    16736.401700       0.523046
    16764.459300       0.520251
    16792.611300       0.517459
    16820.857900       0.514670
    16849.199700       0.511884
    16877.637100       0.509101
    16906.170800       0.506322
    16934.801000       0.503546
    16963.528400       0.500773
    16992.353400       0.498005
    17021.276600       0.495240
    17050.298400       0.492479
    17079.419300       0.489723
    17108.639900       0.486971
    17137.960600       0.484223
    17167.382000       0.481480
    17196.904600       0.478742
    17226.528900       0.476008
    17256.255400       0.473280
    17286.084700       0.470556
    17316.017300       0.467838
    17346.053800       0.465125
    17376.194600       0.462418
    17406.440400       0.459716
    17436.791600       0.457020
    17467.248900       0.454330
    17497.812800       0.451646
    17528.483800       0.448967
    17559.262500       0.446295
    17590.149500       0.443629
    17621.145400       0.440970
    17652.250700       0.438317
    17683.466000       0.435670
    17714.791900       0.433030
    17746.228900       0.430397
    17777.777800       0.427771
    17809.439000       0.425152
    17841.213200       0.422540
    17873.101000       0.419935
    17905.103000       0.417337
    17937.219700       0.414746
    17969.451900       0.412163
    18001.800200       0.409587
    18034.265100       0.407018
    18066.847300       0.404457
    18099.547500       0.401904
    18132.366300       0.399359
    18165.304300       0.396821
    18198.362100       0.394291
    18231.540600       0.391768
    18264.840200       0.389254
    18298.261700       0.386747
    18331.805700       0.384249
    18365.472900       0.381758
    18399.264000       0.379275
    18433.179700       0.376801
    18467.220700       0.374334
    18501.387600       0.371876
    18535.681200       0.369426
    18570.102100       0.366983
    18604.651200       0.364549
    18639.329000       0.362123
    18674.136300       0.359705
    18709.073900       0.357295
    18744.142500       0.354894
    18779.342700       0.352500
    18814.675400       0.350114
    18850.141400       0.347737
    18885.741300       0.345367
    18921.475900       0.343006
    18957.346000       0.340652
    18993.352300       0.338306
    19029.495700       0.335969
    19065.776900       0.333639
    19102.196800       0.331317
    19138.756000       0.329002
    19175.455400       0.326695
    19212.295900       0.324396
    19249.278200       0.322104
    19286.403100       0.319820
    19323.671500       0.317543
    19361.084200       0.315274
    19398.642100       0.313011
    19436.346000       0.310756
    19474.196700       0.308508
    19512.195100       0.306267
    19550.342100       0.304032
    19588.638600       0.301804
    19627.085400       0.299583
    19665.683400       0.297369
    19704.433500       0.295160
    19743.336600       0.292959
    19782.393700       0.290763
    19821.605600       0.288573
    19860.973200       0.286389
    19900.497500       0.284210
    19940.179500       0.282038
    19980.020000       0.279870
    20020.020000       0.277708
    20060.180500       0.275551
    20100.502500       0.273400
    20140.986900       0.271252
    20181.634700       0.269110
    20222.446900       0.266972
    20263.424500       0.264838
    20304.568500       0.262709
    20345.880000       0.260583
    20387.359800       0.258461
    20429.009200       0.256343
    20470.829100       0.254228
    20512.820500       0.252116
    20554.984600       0.250007
    20597.322300       0.247901
    20639.834900       0.245798
    20682.523300       0.243697
    20725.388600       0.241598
    20768.432000       0.239502
    20811.654500       0.237407
    20855.057400       0.235313
    20898.641600       0.233221
    20942.408400       0.231131
    20986.358900       0.229041
    21030.494200       0.226952
    21074.815600       0.224863
    21119.324200       0.222775
    21164.021200       0.220686
    21208.907700       0.218598
    21253.985100       0.216509
    21299.254500       0.214420
    21344.717200       0.212330
    21390.374300       0.210238
    21436.227200       0.208146
    21482.277100       0.206052
    21528.525300       0.203956
    21574.973000       0.201859
    21621.621600       0.199759
    21668.472400       0.197657
    21715.526600       0.195553
    21762.785600       0.193445
    21810.250800       0.191335
    21857.923500       0.189222
    21905.805000       0.187105
    21953.896800       0.184984
    22002.200200       0.182860
    22050.716600       0.180732
    22099.447500       0.178599
    22148.394200       0.176462
    22197.558300       0.174321
    22246.941000       0.172175
    22296.544000       0.170023
    22346.368700       0.167867
    22396.416600       0.165706
    22446.689100       0.163539
    22497.187900       0.161366
    22547.914300       0.159188
    22598.870100       0.157003
    22650.056600       0.154813
    22701.475600       0.152617
    22753.128600       0.150414
    22805.017100       0.148205
    22857.142900       0.145989
    22909.507400       0.143767
    22962.112500       0.141538
    23014.959700       0.139302
    23068.050700       0.137059
    23121.387300       0.134809
    23174.971000       0.132553
    23228.803700       0.130289
    23282.887100       0.128018
    23337.222900       0.125740
    23391.812900       0.123455
    23446.658900       0.121163
    23501.762600       0.118864
    23557.126000       0.116558
    23612.750900       0.114245
    23668.639100       0.111924
    23724.792400       0.109597
    23781.212800       0.107263
    23837.902300       0.104922
    23894.862600       0.102575
    23952.095800       0.100221
    24009.603800       0.097861
    24067.388700       0.095495
    24125.452400       0.093123
    24183.796900       0.090745
    24242.424200       0.088361
    24301.336600       0.085972
    24360.535900       0.083577
    24420.024400       0.081178
    24479.804200       0.078775
    24539.877300       0.076367
    24600.246000       0.073955
    24660.912500       0.071540
    24721.878900       0.069122
    24783.147500       0.066700
    24844.720500       0.064277
    24906.600200       0.061852
    24968.789000       0.059425
    25031.289100       0.056997
    25094.102900       0.054569
    25157.232700       0.052141
    25220.681000       0.049713
    25284.450100       0.047287
    25348.542500       0.044863
    25412.960600       0.042442
    25477.707000       0.040024
