14,   channel 14 SRF from file SRF_SSH-1_Delivery_220520/SRF_DMSP-F2_SSH_Chan14.asc received June 2022 from SPASCIA
Number of data points:
275
Wavenumber (cm-1)   Filter response
      732.400000       0.000930
      732.500000       0.001030
      732.600000       0.001140
      732.700000       0.001260
      732.800000       0.001390
      732.900000       0.001540
      733.000000       0.001690
      733.100000       0.001870
      733.200000       0.002050
      733.300000       0.002260
      733.400000       0.002480
      733.500000       0.002730
      733.600000       0.003000
      733.700000       0.003290
      733.800000       0.003600
      733.900000       0.003940
      734.000000       0.004320
      734.100000       0.004720
      734.200000       0.005160
      734.300000       0.005640
      734.400000       0.006150
      734.500000       0.006710
      734.600000       0.007310
      734.700000       0.007960
      734.800000       0.008660
      734.900000       0.009410
      735.000000       0.010220
      735.100000       0.011100
      735.200000       0.012040
      735.300000       0.013050
      735.400000       0.014140
      735.500000       0.015300
      735.600000       0.016550
      735.700000       0.017890
      735.800000       0.019320
      735.900000       0.020850
      736.000000       0.022480
      736.100000       0.024230
      736.200000       0.026090
      736.300000       0.028070
      736.400000       0.030180
      736.500000       0.032420
      736.600000       0.034810
      736.700000       0.037340
      736.800000       0.040030
      736.900000       0.042880
      737.000000       0.045890
      737.100000       0.049090
      737.200000       0.052460
      737.300000       0.056030
      737.400000       0.059800
      737.500000       0.063770
      737.600000       0.067960
      737.700000       0.072360
      737.800000       0.077000
      737.900000       0.081870
      738.000000       0.086980
      738.100000       0.092350
      738.200000       0.097970
      738.300000       0.105200
      738.400000       0.113520
      738.500000       0.122220
      738.600000       0.131310
      738.700000       0.140790
      738.800000       0.150660
      738.900000       0.160920
      739.000000       0.171570
      739.100000       0.182620
      739.200000       0.194050
      739.300000       0.205870
      739.400000       0.218070
      739.500000       0.230650
      739.600000       0.243590
      739.700000       0.256900
      739.800000       0.270550
      739.900000       0.284550
      740.000000       0.298880
      740.100000       0.313520
      740.200000       0.328470
      740.300000       0.343700
      740.400000       0.359200
      740.500000       0.374960
      740.600000       0.390950
      740.700000       0.407150
      740.800000       0.423550
      740.900000       0.440120
      741.000000       0.456840
      741.100000       0.473690
      741.200000       0.490640
      741.300000       0.506440
      741.400000       0.520810
      741.500000       0.535290
      741.600000       0.549840
      741.700000       0.564450
      741.800000       0.579110
      741.900000       0.593800
      742.000000       0.608510
      742.100000       0.623220
      742.200000       0.637900
      742.300000       0.652550
      742.400000       0.667140
      742.500000       0.681650
      742.600000       0.696080
      742.700000       0.710390
      742.800000       0.724570
      742.900000       0.738590
      743.000000       0.752450
      743.100000       0.766110
      743.200000       0.779560
      743.300000       0.792790
      743.400000       0.805760
      743.500000       0.818470
      743.600000       0.830880
      743.700000       0.842990
      743.800000       0.854770
      743.900000       0.866210
      744.000000       0.877290
      744.100000       0.887980
      744.200000       0.898280
      744.300000       0.908160
      744.400000       0.917600
      744.500000       0.926610
      744.600000       0.935150
      744.700000       0.943210
      744.800000       0.950790
      744.900000       0.957860
      745.000000       0.964420
      745.100000       0.970450
      745.200000       0.975940
      745.300000       0.980890
      745.400000       0.985290
      745.500000       0.989120
      745.600000       0.992380
      745.700000       0.995070
      745.800000       0.997180
      745.900000       0.998700
      746.000000       0.999640
      746.100000       1.000000
      746.200000       0.999760
      746.300000       0.998940
      746.400000       0.997530
      746.500000       0.995540
      746.600000       0.992960
      746.700000       0.989820
      746.800000       0.986100
      746.900000       0.981810
      747.000000       0.976980
      747.100000       0.971590
      747.200000       0.965670
      747.300000       0.959210
      747.400000       0.952240
      747.500000       0.944770
      747.600000       0.936800
      747.700000       0.928350
      747.800000       0.919440
      747.900000       0.910080
      748.000000       0.900290
      748.100000       0.890070
      748.200000       0.879460
      748.300000       0.868460
      748.400000       0.857090
      748.500000       0.845380
      748.600000       0.833330
      748.700000       0.820970
      748.800000       0.808330
      748.900000       0.795400
      749.000000       0.782230
      749.100000       0.768820
      749.200000       0.755200
      749.300000       0.741380
      749.400000       0.727380
      749.500000       0.713230
      749.600000       0.698950
      749.700000       0.684550
      749.800000       0.670050
      749.900000       0.655470
      750.000000       0.640830
      750.100000       0.626150
      750.200000       0.611450
      750.300000       0.596740
      750.400000       0.582050
      750.500000       0.567380
      750.600000       0.552750
      750.700000       0.538190
      750.800000       0.523700
      750.900000       0.509300
      751.000000       0.494040
      751.100000       0.477080
      751.200000       0.460200
      751.300000       0.443460
      751.400000       0.426850
      751.500000       0.410420
      751.600000       0.394170
      751.700000       0.378140
      751.800000       0.362330
      751.900000       0.346780
      752.000000       0.331490
      752.100000       0.316490
      752.200000       0.301780
      752.300000       0.287390
      752.400000       0.273330
      752.500000       0.259600
      752.600000       0.246220
      752.700000       0.233210
      752.800000       0.220550
      752.900000       0.208280
      753.000000       0.196380
      753.100000       0.184870
      753.200000       0.173750
      753.300000       0.163020
      753.400000       0.152680
      753.500000       0.142730
      753.600000       0.133170
      753.700000       0.124010
      753.800000       0.115230
      753.900000       0.106840
      754.000000       0.099130
      754.100000       0.093450
      754.200000       0.088030
      754.300000       0.082870
      754.400000       0.077950
      754.500000       0.073270
      754.600000       0.068820
      754.700000       0.064590
      754.800000       0.060580
      754.900000       0.056770
      755.000000       0.053160
      755.100000       0.049750
      755.200000       0.046520
      755.300000       0.043470
      755.400000       0.040580
      755.500000       0.037860
      755.600000       0.035300
      755.700000       0.032890
      755.800000       0.030610
      755.900000       0.028480
      756.000000       0.026470
      756.100000       0.024590
      756.200000       0.022820
      756.300000       0.021170
      756.400000       0.019620
      756.500000       0.018170
      756.600000       0.016810
      756.700000       0.015550
      756.800000       0.014360
      756.900000       0.013260
      757.000000       0.012240
      757.100000       0.011280
      757.200000       0.010390
      757.300000       0.009570
      757.400000       0.008800
      757.500000       0.008090
      757.600000       0.007430
      757.700000       0.006820
      757.800000       0.006260
      757.900000       0.005740
      758.000000       0.005250
      758.100000       0.004810
      758.200000       0.004400
      758.300000       0.004020
      758.400000       0.003670
      758.500000       0.003350
      758.600000       0.003050
      758.700000       0.002780
      758.800000       0.002530
      758.900000       0.002300
      759.000000       0.002090
      759.100000       0.001900
      759.200000       0.001730
      759.300000       0.001570
      759.400000       0.001420
      759.500000       0.001290
      759.600000       0.001160
      759.700000       0.001050
      759.800000       0.000950
