  19  ,noaa_16_hirs_19.flt
Number of data points:
112
Wavenumber (cm-1)   Filter response
     2555.000000       0.000000
     2580.100000       0.020726
     2582.700000       0.025549
     2585.300000       0.031981
     2587.400000       0.036792
     2589.000000       0.041597
     2590.900000       0.049604
     2592.700000       0.057616
     2594.300000       0.067200
     2596.400000       0.081586
     2597.900000       0.092673
     2599.200000       0.107110
     2600.600000       0.119950
     2601.600000       0.134270
     2602.900000       0.150060
     2604.500000       0.170480
     2605.300000       0.187860
     2606.100000       0.210030
     2607.400000       0.232060
     2608.100000       0.257360
     2609.500000       0.290380
     2610.500000       0.317020
     2611.500000       0.361060
     2612.900000       0.408040
     2614.100000       0.458090
     2615.500000       0.504830
     2616.500000       0.551600
     2617.300000       0.606350
     2618.600000       0.665400
     2619.900000       0.715210
     2620.900000       0.780800
     2622.500000       0.839740
     2623.000000       0.873980
     2624.100000       0.891870
     2624.600000       0.914920
     2625.400000       0.944020
     2626.400000       0.964960
     2627.200000       0.981180
     2628.200000       0.993900
     2629.600000       1.000000
     2630.300000       0.998940
     2631.600000       0.993760
     2633.000000       0.979210
     2634.000000       0.964940
     2635.900000       0.942630
     2638.000000       0.915050
     2640.100000       0.884420
     2642.700000       0.853040
     2644.300000       0.836440
     2645.600000       0.821610
     2647.200000       0.812690
     2648.200000       0.805440
     2650.300000       0.798630
     2651.600000       0.798760
     2654.000000       0.797010
     2655.300000       0.802530
     2657.100000       0.810530
     2659.200000       0.817300
     2661.100000       0.829060
     2662.700000       0.841350
     2664.800000       0.855200
     2666.900000       0.869050
     2669.200000       0.880980
     2670.800000       0.893380
     2672.600000       0.898070
     2674.200000       0.902970
     2676.000000       0.909530
     2681.000000       0.907830
     2683.400000       0.901930
     2685.200000       0.895530
     2687.100000       0.891530
     2688.900000       0.886070
     2691.300000       0.879700
     2693.600000       0.873660
     2696.000000       0.873800
     2697.800000       0.876760
     2699.700000       0.881040
     2701.200000       0.886180
     2702.300000       0.891720
     2704.100000       0.891340
     2706.200000       0.893910
     2707.300000       0.884920
     2708.600000       0.871130
     2709.400000       0.854690
     2711.000000       0.830710
     2711.800000       0.801200
     2712.800000       0.761400
     2714.400000       0.721720
     2714.900000       0.685110
     2716.500000       0.616230
     2717.900000       0.562050
     2718.900000       0.509400
     2720.000000       0.462600
     2720.800000       0.427430
     2721.800000       0.390700
     2723.100000       0.336330
     2725.000000       0.270330
     2726.300000       0.230800
     2728.200000       0.189850
     2729.200000       0.159250
     2730.500000       0.135900
     2731.900000       0.114100
     2733.400000       0.096644
     2734.500000       0.082188
     2736.100000       0.069151
     2737.900000       0.054670
     2739.700000       0.043102
     2742.100000       0.034423
     2744.200000       0.025775
     2746.300000       0.021440
     2748.200000       0.015684
     2774.000000       0.000000
