116,   116, MVIRI VIS channel from srf_MET7_2012033_2012034_1801-Release_S10EE_10.dat
Number of data points:
793
Wavenumber (cm-1)   Filter response
     8442.380800       0.000000
     8449.514200       0.000000
     8456.659600       0.000004
     8463.817200       0.000057
     8470.986900       0.000167
     8478.168700       0.000334
     8485.362700       0.000556
     8492.569000       0.000832
     8499.787500       0.001159
     8507.018300       0.001536
     8514.261400       0.001962
     8521.516800       0.002436
     8528.784600       0.002956
     8536.064900       0.003520
     8543.357500       0.004128
     8550.662700       0.004778
     8557.980300       0.005469
     8565.310500       0.006201
     8572.653200       0.006971
     8580.008600       0.007779
     8587.376600       0.008624
     8594.757200       0.009505
     8602.150500       0.010421
     8609.556600       0.011372
     8616.975400       0.012355
     8624.407100       0.013371
     8631.851500       0.014419
     8639.308900       0.015498
     8646.779100       0.016608
     8654.262200       0.017747
     8661.758300       0.018915
     8669.267400       0.020111
     8676.789600       0.021336
     8684.324800       0.022587
     8691.873100       0.023866
     8699.434500       0.025171
     8707.009100       0.026502
     8714.596900       0.027857
     8722.198000       0.029239
     8729.812300       0.030644
     8737.439900       0.032074
     8745.080900       0.033528
     8752.735200       0.035006
     8760.403000       0.036506
     8768.084200       0.038030
     8775.778900       0.039576
     8783.487000       0.041145
     8791.208800       0.042737
     8798.944100       0.044350
     8806.693100       0.045985
     8814.455700       0.047642
     8822.232000       0.049321
     8830.022100       0.051021
     8837.825900       0.052742
     8845.643500       0.054484
     8853.475000       0.056248
     8861.320300       0.058032
     8869.179600       0.059838
     8877.052800       0.061664
     8884.940000       0.063511
     8892.841300       0.065379
     8900.756600       0.067268
     8908.686000       0.069177
     8916.629500       0.071107
     8924.587200       0.073058
     8932.559200       0.075030
     8940.545400       0.077022
     8948.545900       0.079036
     8956.560700       0.081070
     8964.589900       0.083124
     8972.633500       0.085200
     8980.691500       0.087297
     8988.764000       0.089415
     8996.851100       0.091553
     9004.952700       0.093713
     9013.068900       0.095894
     9021.199800       0.098096
     9029.345400       0.100320
     9037.505600       0.102565
     9045.680700       0.104832
     9053.870500       0.107120
     9062.075200       0.109429
     9070.294800       0.111761
     9078.529300       0.114114
     9086.778700       0.116489
     9095.043200       0.118887
     9103.322700       0.121306
     9111.617300       0.123747
     9119.927000       0.126211
     9128.251900       0.128697
     9136.592100       0.131206
     9144.947400       0.133737
     9153.318100       0.136291
     9161.704100       0.138867
     9170.105500       0.141466
     9178.522300       0.144088
     9186.954500       0.146733
     9195.402300       0.149401
     9203.865600       0.152092
     9212.344500       0.154806
     9220.839100       0.157544
     9229.349300       0.160304
     9237.875300       0.163088
     9246.417000       0.165896
     9254.974500       0.168727
     9263.547900       0.171581
     9272.137200       0.174459
     9280.742500       0.177361
     9289.363700       0.180286
     9298.000900       0.183235
     9306.654300       0.186207
     9315.323700       0.189203
     9324.009300       0.192224
     9332.711200       0.195267
     9341.429200       0.198335
     9350.163600       0.201426
     9358.914400       0.204541
     9367.681500       0.207680
     9376.465100       0.210842
     9385.265100       0.214028
     9394.081700       0.217238
     9402.914900       0.220471
     9411.764700       0.223729
     9420.631200       0.227010
     9429.514400       0.230314
     9438.414300       0.233641
     9447.331100       0.236992
     9456.264800       0.240367
     9465.215300       0.243765
     9474.182900       0.247185
     9483.167400       0.250629
     9492.169000       0.254096
     9501.187600       0.257586
     9510.223500       0.261099
     9519.276500       0.264634
     9528.346800       0.268192
     9537.434400       0.271773
     9546.539400       0.275376
     9555.661700       0.279001
     9564.801500       0.282647
     9573.958800       0.286316
     9583.133700       0.290007
     9592.326100       0.293719
     9601.536200       0.297453
     9610.764100       0.301207
     9620.009600       0.304983
     9629.273000       0.308780
     9638.554200       0.312597
     9647.853400       0.316435
     9657.170400       0.320293
     9666.505600       0.324171
     9675.858700       0.328069
     9685.230000       0.331986
     9694.619500       0.335923
     9704.027200       0.339879
     9713.453100       0.343854
     9722.897400       0.347847
     9732.360100       0.351859
     9741.841200       0.355889
     9751.340800       0.359936
     9760.859000       0.364001
     9770.395700       0.368084
     9779.951100       0.372183
     9789.525200       0.376299
     9799.118100       0.380431
     9808.729800       0.384580
     9818.360300       0.388744
     9828.009800       0.392923
     9837.678300       0.397118
     9847.365800       0.401328
     9857.072400       0.405551
     9866.798200       0.409790
     9876.543200       0.414041
     9886.307500       0.418307
     9896.091000       0.422585
     9905.894000       0.426876
     9915.716400       0.431179
     9925.558300       0.435495
     9935.419800       0.439822
     9945.300800       0.444160
     9955.201600       0.448509
     9965.122100       0.452869
     9975.062300       0.457238
     9985.022500       0.461617
     9995.002500       0.466006
    10005.002500       0.470404
    10015.022500       0.474809
    10025.062700       0.479223
    10035.122900       0.483645
    10045.203400       0.488074
    10055.304200       0.492510
    10065.425300       0.496952
    10075.566800       0.501400
    10085.728700       0.505853
    10095.911200       0.510312
    10106.114200       0.514776
    10116.337900       0.519243
    10126.582300       0.523714
    10136.847400       0.528189
    10147.133400       0.532667
    10157.440300       0.537147
    10167.768200       0.541629
    10178.117000       0.546112
    10188.487000       0.550597
    10198.878100       0.555083
    10209.290500       0.559568
    10219.724100       0.564053
    10230.179000       0.568537
    10240.655400       0.573021
    10251.153300       0.577502
    10261.672700       0.581981
    10272.213700       0.586458
    10282.776300       0.590931
    10293.360800       0.595402
    10303.967000       0.599868
    10314.595200       0.604329
    10325.245200       0.608785
    10335.917300       0.613236
    10346.611500       0.617681
    10357.327800       0.622120
    10368.066400       0.626551
    10378.827200       0.630976
    10389.610400       0.635392
    10400.416000       0.639800
    10411.244100       0.644200
    10422.094800       0.648590
    10432.968200       0.652970
    10443.864200       0.657340
    10454.783100       0.661700
    10465.724800       0.666048
    10476.689400       0.670384
    10487.677000       0.674709
    10498.687700       0.679021
    10509.721500       0.683320
    10520.778500       0.687605
    10531.858900       0.691876
    10542.962600       0.696133
    10554.089700       0.700375
    10565.240400       0.704602
    10576.414600       0.708813
    10587.612500       0.713007
    10598.834100       0.717185
    10610.079600       0.721345
    10621.348900       0.725488
    10632.642200       0.729613
    10643.959600       0.733720
    10655.301000       0.737807
    10666.666700       0.741875
    10678.056600       0.745923
    10689.470900       0.749950
    10700.909600       0.753957
    10712.372800       0.757943
    10723.860600       0.761907
    10735.373100       0.765850
    10746.910300       0.769770
    10758.472300       0.773666
    10770.059200       0.777540
    10781.671200       0.781390
    10793.308100       0.785216
    10804.970300       0.789018
    10816.657700       0.792794
    10828.370300       0.796545
    10840.108400       0.800271
    10851.871900       0.803971
    10863.661100       0.807644
    10875.475800       0.811290
    10887.316300       0.814909
    10899.182600       0.818501
    10911.074700       0.822065
    10922.992900       0.825600
    10934.937100       0.829107
    10946.907500       0.832585
    10958.904100       0.836034
    10970.927000       0.839453
    10982.976400       0.842841
    10995.052200       0.846200
    11007.154700       0.849528
    11019.283700       0.852825
    11031.439600       0.856090
    11043.622300       0.859324
    11055.832000       0.862526
    11068.068600       0.865696
    11080.332400       0.868834
    11092.623400       0.871938
    11104.941700       0.875010
    11117.287400       0.878048
    11129.660500       0.881052
    11142.061300       0.884023
    11154.489700       0.886959
    11166.945800       0.889861
    11179.429800       0.892729
    11191.941800       0.895561
    11204.481800       0.898359
    11217.049900       0.901121
    11229.646300       0.903847
    11242.270900       0.906538
    11254.924000       0.909192
    11267.605600       0.911811
    11280.315800       0.914393
    11293.054800       0.916938
    11305.822500       0.919447
    11318.619100       0.921918
    11331.444800       0.924353
    11344.299500       0.926750
    11357.183400       0.929109
    11370.096600       0.931431
    11383.039300       0.933715
    11396.011400       0.935961
    11409.013100       0.938169
    11422.044500       0.940339
    11435.105800       0.942471
    11448.196900       0.944564
    11461.318100       0.946619
    11474.469300       0.948635
    11487.650800       0.950612
    11500.862600       0.952551
    11514.104800       0.954450
    11527.377500       0.956311
    11540.680900       0.958132
    11554.015000       0.959915
    11567.380000       0.961658
    11580.775900       0.963362
    11594.202900       0.965026
    11607.661100       0.966652
    11621.150500       0.968238
    11634.671300       0.969785
    11648.223600       0.971292
    11661.807600       0.972760
    11675.423200       0.974189
    11689.070700       0.975579
    11702.750100       0.976929
    11716.461600       0.978239
    11730.205300       0.979511
    11743.981200       0.980743
    11757.789500       0.981936
    11771.630400       0.983090
    11785.503800       0.984204
    11799.410000       0.985280
    11813.349100       0.986317
    11827.321100       0.987315
    11841.326200       0.988274
    11855.364600       0.989194
    11869.436200       0.990075
    11883.541300       0.990918
    11897.680000       0.991723
    11911.852300       0.992489
    11926.058400       0.993217
    11940.298500       0.993907
    11954.572600       0.994559
    11968.880900       0.995174
    11983.223500       0.995750
    11997.600500       0.996289
    12012.012000       0.996791
    12026.458200       0.997256
    12040.939200       0.997683
    12055.455100       0.998074
    12070.006000       0.998428
    12084.592100       0.998746
    12099.213600       0.999027
    12113.870400       0.999273
    12128.562800       0.999482
    12143.290800       0.999656
    12158.054700       0.999795
    12172.854500       0.999898
    12187.690400       0.999966
    12202.562500       1.000000
    12217.471000       0.999999
    12232.415900       0.999964
    12247.397400       0.999895
    12262.415700       0.999793
    12277.470800       0.999656
    12292.563000       0.999487
    12307.692300       0.999285
    12322.858900       0.999050
    12338.062900       0.998783
    12353.304500       0.998484
    12368.583800       0.998153
    12383.900900       0.997791
    12399.256000       0.997398
    12414.649300       0.996973
    12430.080800       0.996519
    12445.550700       0.996034
    12461.059200       0.995519
    12476.606400       0.994975
    12492.192400       0.994402
    12507.817400       0.993799
    12523.481500       0.993169
    12539.185000       0.992510
    12554.927800       0.991823
    12570.710200       0.991109
    12586.532400       0.990368
    12602.394500       0.989600
    12618.296500       0.988806
    12634.238800       0.987986
    12650.221400       0.987141
    12666.244500       0.986270
    12682.308200       0.985374
    12698.412700       0.984454
    12714.558200       0.983510
    12730.744700       0.982542
    12746.972600       0.981551
    12763.241900       0.980538
    12779.552700       0.979501
    12795.905300       0.978443
    12812.299800       0.977363
    12828.736400       0.976262
    12845.215200       0.975140
    12861.736300       0.973998
    12878.300100       0.972836
    12894.906500       0.971654
    12911.555800       0.970454
    12928.248200       0.969234
    12944.983800       0.967997
    12961.762800       0.966741
    12978.585300       0.965468
    12995.451600       0.964179
    13012.361700       0.962872
    13029.316000       0.961550
    13046.314400       0.960212
    13063.357300       0.958859
    13080.444700       0.957491
    13097.576900       0.956109
    13114.754100       0.954713
    13131.976400       0.953304
    13149.243900       0.951882
    13166.556900       0.950447
    13183.915600       0.949000
    13201.320100       0.947542
    13218.770700       0.946072
    13236.267400       0.944592
    13253.810500       0.943102
    13271.400100       0.941602
    13289.036500       0.940092
    13306.719900       0.938574
    13324.450400       0.937047
    13342.228200       0.935512
    13360.053400       0.933970
    13377.926400       0.932421
    13395.847300       0.930865
    13413.816200       0.929303
    13431.833400       0.927735
    13449.899100       0.926162
    13468.013500       0.924584
    13486.176700       0.923002
    13504.388900       0.921415
    13522.650400       0.919826
    13540.961400       0.918233
    13559.322000       0.916638
    13577.732500       0.915040
    13596.193100       0.913441
    13614.703900       0.911840
    13633.265200       0.910239
    13651.877100       0.908637
    13670.540000       0.907036
    13689.253900       0.905434
    13708.019200       0.903834
    13726.836000       0.902235
    13745.704500       0.900637
    13764.624900       0.899042
    13783.597500       0.897449
    13802.622500       0.895860
    13821.700100       0.894273
    13840.830400       0.892691
    13860.013900       0.891112
    13879.250500       0.889538
    13898.540700       0.887969
    13917.884500       0.886406
    13937.282200       0.884848
    13956.734100       0.883296
    13976.240400       0.881751
    13995.801300       0.880213
    14015.417000       0.878682
    14035.087700       0.877159
    14054.813800       0.875643
    14074.595400       0.874137
    14094.432700       0.872638
    14114.326000       0.871149
    14134.275600       0.869669
    14154.281700       0.868200
    14174.344400       0.866740
    14194.464200       0.865290
    14214.641100       0.863852
    14234.875400       0.862424
    14255.167500       0.861008
    14275.517500       0.859604
    14295.925700       0.858211
    14316.392300       0.856831
    14336.917600       0.855464
    14357.501800       0.854109
    14378.145200       0.852768
    14398.848100       0.851440
    14419.610700       0.850126
    14440.433200       0.848826
    14461.316000       0.847540
    14482.259200       0.846269
    14503.263200       0.845013
    14524.328200       0.843771
    14545.454500       0.842545
    14566.642400       0.841334
    14587.892000       0.840139
    14609.203800       0.838960
    14630.577900       0.837797
    14652.014700       0.836650
    14673.514300       0.835520
    14695.077100       0.834406
    14716.703500       0.833310
    14738.393500       0.832230
    14760.147600       0.831168
    14781.966000       0.830123
    14803.849000       0.829095
    14825.796900       0.828085
    14847.809900       0.827093
    14869.888500       0.826119
    14892.032800       0.825163
    14914.243100       0.824225
    14936.519800       0.823306
    14958.863100       0.822405
    14981.273400       0.821522
    15003.750900       0.820658
    15026.296000       0.819812
    15048.909000       0.818985
    15071.590100       0.818177
    15094.339600       0.817387
    15117.158000       0.816616
    15140.045400       0.815864
    15163.002300       0.815131
    15186.028900       0.814417
    15209.125500       0.813722
    15232.292500       0.813045
    15255.530100       0.812388
    15278.838800       0.811749
    15302.218800       0.811129
    15325.670500       0.810528
    15349.194200       0.809946
    15372.790200       0.809382
    15396.458800       0.808837
    15420.200500       0.808310
    15444.015400       0.807802
    15467.904100       0.807312
    15491.866800       0.806841
    15515.903800       0.806387
    15540.015500       0.805952
    15564.202300       0.805534
    15588.464500       0.805135
    15612.802500       0.804753
    15637.216600       0.804388
    15661.707100       0.804041
    15686.274500       0.803710
    15710.919100       0.803397
    15735.641200       0.803101
    15760.441300       0.802821
    15785.319700       0.802557
    15810.276700       0.802310
    15835.312700       0.802078
    15860.428200       0.801862
    15885.623500       0.801662
    15910.899000       0.801477
    15936.255000       0.801306
    15961.691900       0.801150
    15987.210200       0.801009
    16012.810200       0.800882
    16038.492400       0.800768
    16064.257000       0.800668
    16090.104600       0.800581
    16116.035500       0.800506
    16142.050000       0.800445
    16168.148700       0.800395
    16194.332000       0.800357
    16220.600200       0.800331
    16246.953700       0.800315
    16273.393000       0.800310
    16299.918500       0.800316
    16326.530600       0.800331
    16353.229800       0.800356
    16380.016400       0.800390
    16406.890900       0.800432
    16433.853700       0.800483
    16460.905300       0.800541
    16488.046200       0.800607
    16515.276600       0.800679
    16542.597200       0.800758
    16570.008300       0.800842
    16597.510400       0.800933
    16625.103900       0.801028
    16652.789300       0.801127
    16680.567100       0.801230
    16708.437800       0.801337
    16736.401700       0.801447
    16764.459300       0.801559
    16792.611300       0.801672
    16820.857900       0.801787
    16849.199700       0.801903
    16877.637100       0.802019
    16906.170800       0.802134
    16934.801000       0.802249
    16963.528400       0.802362
    16992.353400       0.802472
    17021.276600       0.802580
    17050.298400       0.802685
    17079.419300       0.802786
    17108.639900       0.802882
    17137.960600       0.802972
    17167.382000       0.803057
    17196.904600       0.803136
    17226.528900       0.803207
    17256.255400       0.803271
    17286.084700       0.803326
    17316.017300       0.803372
    17346.053800       0.803409
    17376.194600       0.803435
    17406.440400       0.803449
    17436.791600       0.803453
    17467.248900       0.803443
    17497.812800       0.803421
    17528.483800       0.803385
    17559.262500       0.803334
    17590.149500       0.803268
    17621.145400       0.803186
    17652.250700       0.803087
    17683.466000       0.802972
    17714.791900       0.802838
    17746.228900       0.802685
    17777.777800       0.802513
    17809.439000       0.802320
    17841.213200       0.802107
    17873.101000       0.801871
    17905.103000       0.801614
    17937.219700       0.801333
    17969.451900       0.801028
    18001.800200       0.800699
    18034.265100       0.800344
    18066.847300       0.799963
    18099.547500       0.799555
    18132.366300       0.799119
    18165.304300       0.798655
    18198.362100       0.798162
    18231.540600       0.797639
    18264.840200       0.797086
    18298.261700       0.796501
    18331.805700       0.795884
    18365.472900       0.795233
    18399.264000       0.794550
    18433.179700       0.793832
    18467.220700       0.793078
    18501.387600       0.792289
    18535.681200       0.791464
    18570.102100       0.790600
    18604.651200       0.789699
    18639.329000       0.788759
    18674.136300       0.787780
    18709.073900       0.786760
    18744.142500       0.785699
    18779.342700       0.784596
    18814.675400       0.783451
    18850.141400       0.782262
    18885.741300       0.781030
    18921.475900       0.779753
    18957.346000       0.778431
    18993.352300       0.777062
    19029.495700       0.775647
    19065.776900       0.774185
    19102.196800       0.772675
    19138.756000       0.771115
    19175.455400       0.769507
    19212.295900       0.767848
    19249.278200       0.766139
    19286.403100       0.764378
    19323.671500       0.762565
    19361.084200       0.760700
    19398.642100       0.758781
    19436.346000       0.756808
    19474.196700       0.754781
    19512.195100       0.752699
    19550.342100       0.750562
    19588.638600       0.748368
    19627.085400       0.746117
    19665.683400       0.743809
    19704.433500       0.741443
    19743.336600       0.739019
    19782.393700       0.736536
    19821.605600       0.733993
    19860.973200       0.731391
    19900.497500       0.728728
    19940.179500       0.726005
    19980.020000       0.723220
    20020.020000       0.720373
    20060.180500       0.717464
    20100.502500       0.714493
    20140.986900       0.711459
    20181.634700       0.708362
    20222.446900       0.705201
    20263.424500       0.701976
    20304.568500       0.698686
    20345.880000       0.695332
    20387.359800       0.691913
    20429.009200       0.688429
    20470.829100       0.684880
    20512.820500       0.681265
    20554.984600       0.677584
    20597.322300       0.673837
    20639.834900       0.670024
    20682.523300       0.666144
    20725.388600       0.662198
    20768.432000       0.658185
    20811.654500       0.654106
    20855.057400       0.649960
    20898.641600       0.645747
    20942.408400       0.641467
    20986.358900       0.637121
    21030.494200       0.632707
    21074.815600       0.628227
    21119.324200       0.623680
    21164.021200       0.619067
    21208.907700       0.614388
    21253.985100       0.609642
    21299.254500       0.604830
    21344.717200       0.599952
    21390.374300       0.595009
    21436.227200       0.590000
    21482.277100       0.584926
    21528.525300       0.579788
    21574.973000       0.574585
    21621.621600       0.569319
    21668.472400       0.563988
    21715.526600       0.558595
    21762.785600       0.553140
    21810.250800       0.547622
    21857.923500       0.542042
    21905.805000       0.536402
    21953.896800       0.530701
    22002.200200       0.524941
    22050.716600       0.519122
    22099.447500       0.513244
    22148.394200       0.507309
    22197.558300       0.501317
    22246.941000       0.495270
    22296.544000       0.489167
    22346.368700       0.483010
    22396.416600       0.476801
    22446.689100       0.470538
    22497.187900       0.464225
    22547.914300       0.457862
    22598.870100       0.451450
    22650.056600       0.444990
    22701.475600       0.438483
    22753.128600       0.431931
    22805.017100       0.425334
    22857.142900       0.418695
    22909.507400       0.412015
    22962.112500       0.405294
    23014.959700       0.398535
    23068.050700       0.391739
    23121.387300       0.384907
    23174.971000       0.378041
    23228.803700       0.371143
    23282.887100       0.364214
    23337.222900       0.357256
    23391.812900       0.350271
    23446.658900       0.343260
    23501.762600       0.336226
    23557.126000       0.329171
    23612.750900       0.322096
    23668.639100       0.315004
    23724.792400       0.307896
    23781.212800       0.300775
    23837.902300       0.293643
    23894.862600       0.286502
    23952.095800       0.279354
    24009.603800       0.272202
    24067.388700       0.265049
    24125.452400       0.257896
    24183.796900       0.250746
    24242.424200       0.243602
    24301.336600       0.236467
    24360.535900       0.229343
    24420.024400       0.222233
    24479.804200       0.215139
    24539.877300       0.208065
    24600.246000       0.201014
    24660.912500       0.193988
    24721.878900       0.186990
    24783.147500       0.180025
    24844.720500       0.173094
    24906.600200       0.166201
    24968.789000       0.159351
    25031.289100       0.152545
    25094.102900       0.145787
    25157.232700       0.139081
    25220.681000       0.132430
    25284.450100       0.125839
    25348.542500       0.119310
    25412.960600       0.112849
    25477.707000       0.106457
