135,   135, MVIRI VIS channel from srf_MET7_2014168_2014169_1801-Release_S10EE_10.dat
Number of data points:
793
Wavenumber (cm-1)   Filter response
     8442.380800       0.000000
     8449.514200       0.000000
     8456.659600       0.000004
     8463.817200       0.000057
     8470.986900       0.000168
     8478.168700       0.000337
     8485.362700       0.000560
     8492.569000       0.000837
     8499.787500       0.001167
     8507.018300       0.001546
     8514.261400       0.001975
     8521.516800       0.002452
     8528.784600       0.002975
     8536.064900       0.003543
     8543.357500       0.004155
     8550.662700       0.004810
     8557.980300       0.005505
     8565.310500       0.006241
     8572.653200       0.007017
     8580.008600       0.007830
     8587.376600       0.008681
     8594.757200       0.009567
     8602.150500       0.010489
     8609.556600       0.011446
     8616.975400       0.012435
     8624.407100       0.013458
     8631.851500       0.014513
     8639.308900       0.015598
     8646.779100       0.016715
     8654.262200       0.017861
     8661.758300       0.019036
     8669.267400       0.020240
     8676.789600       0.021472
     8684.324800       0.022732
     8691.873100       0.024018
     8699.434500       0.025331
     8707.009100       0.026670
     8714.596900       0.028034
     8722.198000       0.029423
     8729.812300       0.030838
     8737.439900       0.032276
     8745.080900       0.033739
     8752.735200       0.035225
     8760.403000       0.036735
     8768.084200       0.038267
     8775.778900       0.039823
     8783.487000       0.041401
     8791.208800       0.043002
     8798.944100       0.044624
     8806.693100       0.046269
     8814.455700       0.047936
     8822.232000       0.049624
     8830.022100       0.051333
     8837.825900       0.053065
     8845.643500       0.054817
     8853.475000       0.056590
     8861.320300       0.058385
     8869.179600       0.060201
     8877.052800       0.062037
     8884.940000       0.063895
     8892.841300       0.065773
     8900.756600       0.067672
     8908.686000       0.069592
     8916.629500       0.071533
     8924.587200       0.073495
     8932.559200       0.075477
     8940.545400       0.077480
     8948.545900       0.079504
     8956.560700       0.081549
     8964.589900       0.083615
     8972.633500       0.085702
     8980.691500       0.087810
     8988.764000       0.089939
     8996.851100       0.092089
     9004.952700       0.094260
     9013.068900       0.096452
     9021.199800       0.098666
     9029.345400       0.100901
     9037.505600       0.103158
     9045.680700       0.105436
     9053.870500       0.107735
     9062.075200       0.110057
     9070.294800       0.112400
     9078.529300       0.114765
     9086.778700       0.117152
     9095.043200       0.119562
     9103.322700       0.121993
     9111.617300       0.124446
     9119.927000       0.126922
     9128.251900       0.129420
     9136.592100       0.131941
     9144.947400       0.134484
     9153.318100       0.137051
     9161.704100       0.139639
     9170.105500       0.142251
     9178.522300       0.144885
     9186.954500       0.147543
     9195.402300       0.150223
     9203.865600       0.152927
     9212.344500       0.155653
     9220.839100       0.158404
     9229.349300       0.161177
     9237.875300       0.163974
     9246.417000       0.166794
     9254.974500       0.169638
     9263.547900       0.172505
     9272.137200       0.175396
     9280.742500       0.178310
     9289.363700       0.181248
     9298.000900       0.184210
     9306.654300       0.187196
     9315.323700       0.190205
     9324.009300       0.193238
     9332.711200       0.196295
     9341.429200       0.199375
     9350.163600       0.202480
     9358.914400       0.205608
     9367.681500       0.208760
     9376.465100       0.211935
     9385.265100       0.215135
     9394.081700       0.218358
     9402.914900       0.221604
     9411.764700       0.224875
     9420.631200       0.228169
     9429.514400       0.231486
     9438.414300       0.234827
     9447.331100       0.238191
     9456.264800       0.241579
     9465.215300       0.244990
     9474.182900       0.248424
     9483.167400       0.251882
     9492.169000       0.255362
     9501.187600       0.258865
     9510.223500       0.262391
     9519.276500       0.265939
     9528.346800       0.269511
     9537.434400       0.273105
     9546.539400       0.276720
     9555.661700       0.280358
     9564.801500       0.284018
     9573.958800       0.287700
     9583.133700       0.291404
     9592.326100       0.295129
     9601.536200       0.298876
     9610.764100       0.302644
     9620.009600       0.306433
     9629.273000       0.310242
     9638.554200       0.314072
     9647.853400       0.317923
     9657.170400       0.321794
     9666.505600       0.325685
     9675.858700       0.329595
     9685.230000       0.333525
     9694.619500       0.337475
     9704.027200       0.341443
     9713.453100       0.345430
     9722.897400       0.349436
     9732.360100       0.353460
     9741.841200       0.357502
     9751.340800       0.361562
     9760.859000       0.365639
     9770.395700       0.369734
     9779.951100       0.373845
     9789.525200       0.377973
     9799.118100       0.382117
     9808.729800       0.386277
     9818.360300       0.390453
     9828.009800       0.394644
     9837.678300       0.398850
     9847.365800       0.403071
     9857.072400       0.407306
     9866.798200       0.411555
     9876.543200       0.415818
     9886.307500       0.420094
     9896.091000       0.424384
     9905.894000       0.428685
     9915.716400       0.432999
     9925.558300       0.437325
     9935.419800       0.441662
     9945.300800       0.446011
     9955.201600       0.450370
     9965.122100       0.454739
     9975.062300       0.459119
     9985.022500       0.463508
     9995.002500       0.467906
    10005.002500       0.472313
    10015.022500       0.476728
    10025.062700       0.481151
    10035.122900       0.485582
    10045.203400       0.490019
    10055.304200       0.494464
    10065.425300       0.498914
    10075.566800       0.503371
    10085.728700       0.507832
    10095.911200       0.512299
    10106.114200       0.516770
    10116.337900       0.521246
    10126.582300       0.525724
    10136.847400       0.530206
    10147.133400       0.534691
    10157.440300       0.539178
    10167.768200       0.543667
    10178.117000       0.548157
    10188.487000       0.552648
    10198.878100       0.557140
    10209.290500       0.561631
    10219.724100       0.566122
    10230.179000       0.570612
    10240.655400       0.575101
    10251.153300       0.579587
    10261.672700       0.584072
    10272.213700       0.588553
    10282.776300       0.593031
    10293.360800       0.597506
    10303.967000       0.601976
    10314.595200       0.606441
    10325.245200       0.610901
    10335.917300       0.615355
    10346.611500       0.619804
    10357.327800       0.624245
    10368.066400       0.628680
    10378.827200       0.633107
    10389.610400       0.637526
    10400.416000       0.641936
    10411.244100       0.646337
    10422.094800       0.650729
    10432.968200       0.655110
    10443.864200       0.659482
    10454.783100       0.663842
    10465.724800       0.668191
    10476.689400       0.672528
    10487.677000       0.676853
    10498.687700       0.681165
    10509.721500       0.685463
    10520.778500       0.689748
    10531.858900       0.694018
    10542.962600       0.698274
    10554.089700       0.702515
    10565.240400       0.706740
    10576.414600       0.710949
    10587.612500       0.715141
    10598.834100       0.719317
    10610.079600       0.723475
    10621.348900       0.727615
    10632.642200       0.731737
    10643.959600       0.735840
    10655.301000       0.739923
    10666.666700       0.743987
    10678.056600       0.748031
    10689.470900       0.752055
    10700.909600       0.756057
    10712.372800       0.760038
    10723.860600       0.763997
    10735.373100       0.767934
    10746.910300       0.771848
    10758.472300       0.775739
    10770.059200       0.779606
    10781.671200       0.783450
    10793.308100       0.787269
    10804.970300       0.791063
    10816.657700       0.794832
    10828.370300       0.798576
    10840.108400       0.802294
    10851.871900       0.805985
    10863.661100       0.809650
    10875.475800       0.813288
    10887.316300       0.816898
    10899.182600       0.820481
    10911.074700       0.824035
    10922.992900       0.827561
    10934.937100       0.831058
    10946.907500       0.834525
    10958.904100       0.837963
    10970.927000       0.841371
    10982.976400       0.844749
    10995.052200       0.848096
    11007.154700       0.851412
    11019.283700       0.854697
    11031.439600       0.857951
    11043.622300       0.861173
    11055.832000       0.864362
    11068.068600       0.867519
    11080.332400       0.870643
    11092.623400       0.873735
    11104.941700       0.876792
    11117.287400       0.879817
    11129.660500       0.882807
    11142.061300       0.885763
    11154.489700       0.888685
    11166.945800       0.891572
    11179.429800       0.894424
    11191.941800       0.897242
    11204.481800       0.900023
    11217.049900       0.902769
    11229.646300       0.905480
    11242.270900       0.908154
    11254.924000       0.910792
    11267.605600       0.913393
    11280.315800       0.915958
    11293.054800       0.918486
    11305.822500       0.920977
    11318.619100       0.923431
    11331.444800       0.925847
    11344.299500       0.928226
    11357.183400       0.930567
    11370.096600       0.932871
    11383.039300       0.935136
    11396.011400       0.937363
    11409.013100       0.939552
    11422.044500       0.941702
    11435.105800       0.943814
    11448.196900       0.945887
    11461.318100       0.947921
    11474.469300       0.949917
    11487.650800       0.951874
    11500.862600       0.953791
    11514.104800       0.955670
    11527.377500       0.957509
    11540.680900       0.959309
    11554.015000       0.961070
    11567.380000       0.962792
    11580.775900       0.964474
    11594.202900       0.966116
    11607.661100       0.967719
    11621.150500       0.969283
    11634.671300       0.970807
    11648.223600       0.972292
    11661.807600       0.973737
    11675.423200       0.975142
    11689.070700       0.976508
    11702.750100       0.977835
    11716.461600       0.979122
    11730.205300       0.980369
    11743.981200       0.981578
    11757.789500       0.982746
    11771.630400       0.983876
    11785.503800       0.984966
    11799.410000       0.986017
    11813.349100       0.987029
    11827.321100       0.988002
    11841.326200       0.988936
    11855.364600       0.989831
    11869.436200       0.990687
    11883.541300       0.991505
    11897.680000       0.992284
    11911.852300       0.993024
    11926.058400       0.993727
    11940.298500       0.994391
    11954.572600       0.995017
    11968.880900       0.995605
    11983.223500       0.996155
    11997.600500       0.996668
    12012.012000       0.997143
    12026.458200       0.997581
    12040.939200       0.997982
    12055.455100       0.998346
    12070.006000       0.998674
    12084.592100       0.998964
    12099.213600       0.999219
    12113.870400       0.999437
    12128.562800       0.999619
    12143.290800       0.999766
    12158.054700       0.999877
    12172.854500       0.999953
    12187.690400       0.999994
    12202.562500       1.000000
    12217.471000       0.999972
    12232.415900       0.999909
    12247.397400       0.999812
    12262.415700       0.999682
    12277.470800       0.999518
    12292.563000       0.999320
    12307.692300       0.999090
    12322.858900       0.998828
    12338.062900       0.998532
    12353.304500       0.998205
    12368.583800       0.997846
    12383.900900       0.997456
    12399.256000       0.997034
    12414.649300       0.996582
    12430.080800       0.996099
    12445.550700       0.995586
    12461.059200       0.995043
    12476.606400       0.994470
    12492.192400       0.993869
    12507.817400       0.993238
    12523.481500       0.992579
    12539.185000       0.991892
    12554.927800       0.991177
    12570.710200       0.990434
    12586.532400       0.989665
    12602.394500       0.988869
    12618.296500       0.988046
    12634.238800       0.987198
    12650.221400       0.986324
    12666.244500       0.985424
    12682.308200       0.984500
    12698.412700       0.983552
    12714.558200       0.982579
    12730.744700       0.981583
    12746.972600       0.980564
    12763.241900       0.979522
    12779.552700       0.978457
    12795.905300       0.977371
    12812.299800       0.976262
    12828.736400       0.975133
    12845.215200       0.973983
    12861.736300       0.972813
    12878.300100       0.971622
    12894.906500       0.970412
    12911.555800       0.969184
    12928.248200       0.967936
    12944.983800       0.966670
    12961.762800       0.965387
    12978.585300       0.964086
    12995.451600       0.962768
    13012.361700       0.961434
    13029.316000       0.960084
    13046.314400       0.958718
    13063.357300       0.957337
    13080.444700       0.955941
    13097.576900       0.954532
    13114.754100       0.953108
    13131.976400       0.951671
    13149.243900       0.950221
    13166.556900       0.948759
    13183.915600       0.947284
    13201.320100       0.945799
    13218.770700       0.944302
    13236.267400       0.942794
    13253.810500       0.941276
    13271.400100       0.939749
    13289.036500       0.938212
    13306.719900       0.936666
    13324.450400       0.935112
    13342.228200       0.933550
    13360.053400       0.931981
    13377.926400       0.930405
    13395.847300       0.928822
    13413.816200       0.927233
    13431.833400       0.925638
    13449.899100       0.924038
    13468.013500       0.922433
    13486.176700       0.920824
    13504.388900       0.919211
    13522.650400       0.917595
    13540.961400       0.915975
    13559.322000       0.914353
    13577.732500       0.912729
    13596.193100       0.911103
    13614.703900       0.909476
    13633.265200       0.907849
    13651.877100       0.906220
    13670.540000       0.904592
    13689.253900       0.902965
    13708.019200       0.901338
    13726.836000       0.899712
    13745.704500       0.898089
    13764.624900       0.896467
    13783.597500       0.894848
    13802.622500       0.893232
    13821.700100       0.891620
    13840.830400       0.890011
    13860.013900       0.888407
    13879.250500       0.886807
    13898.540700       0.885212
    13917.884500       0.883622
    13937.282200       0.882038
    13956.734100       0.880461
    13976.240400       0.878890
    13995.801300       0.877325
    14015.417000       0.875769
    14035.087700       0.874219
    14054.813800       0.872678
    14074.595400       0.871145
    14094.432700       0.869621
    14114.326000       0.868106
    14134.275600       0.866601
    14154.281700       0.865105
    14174.344400       0.863619
    14194.464200       0.862144
    14214.641100       0.860679
    14234.875400       0.859226
    14255.167500       0.857784
    14275.517500       0.856353
    14295.925700       0.854935
    14316.392300       0.853529
    14336.917600       0.852136
    14357.501800       0.850755
    14378.145200       0.849388
    14398.848100       0.848034
    14419.610700       0.846694
    14440.433200       0.845367
    14461.316000       0.844055
    14482.259200       0.842758
    14503.263200       0.841475
    14524.328200       0.840207
    14545.454500       0.838955
    14566.642400       0.837718
    14587.892000       0.836496
    14609.203800       0.835290
    14630.577900       0.834101
    14652.014700       0.832927
    14673.514300       0.831771
    14695.077100       0.830630
    14716.703500       0.829507
    14738.393500       0.828400
    14760.147600       0.827311
    14781.966000       0.826239
    14803.849000       0.825185
    14825.796900       0.824148
    14847.809900       0.823128
    14869.888500       0.822127
    14892.032800       0.821144
    14914.243100       0.820178
    14936.519800       0.819231
    14958.863100       0.818302
    14981.273400       0.817391
    15003.750900       0.816499
    15026.296000       0.815626
    15048.909000       0.814770
    15071.590100       0.813934
    15094.339600       0.813116
    15117.158000       0.812317
    15140.045400       0.811536
    15163.002300       0.810775
    15186.028900       0.810032
    15209.125500       0.809308
    15232.292500       0.808602
    15255.530100       0.807916
    15278.838800       0.807248
    15302.218800       0.806598
    15325.670500       0.805968
    15349.194200       0.805355
    15372.790200       0.804762
    15396.458800       0.804187
    15420.200500       0.803630
    15444.015400       0.803092
    15467.904100       0.802572
    15491.866800       0.802070
    15515.903800       0.801586
    15540.015500       0.801119
    15564.202300       0.800671
    15588.464500       0.800240
    15612.802500       0.799827
    15637.216600       0.799431
    15661.707100       0.799052
    15686.274500       0.798690
    15710.919100       0.798345
    15735.641200       0.798016
    15760.441300       0.797704
    15785.319700       0.797408
    15810.276700       0.797128
    15835.312700       0.796864
    15860.428200       0.796616
    15885.623500       0.796382
    15910.899000       0.796164
    15936.255000       0.795960
    15961.691900       0.795771
    15987.210200       0.795596
    16012.810200       0.795434
    16038.492400       0.795287
    16064.257000       0.795153
    16090.104600       0.795031
    16116.035500       0.794923
    16142.050000       0.794826
    16168.148700       0.794742
    16194.332000       0.794669
    16220.600200       0.794607
    16246.953700       0.794557
    16273.393000       0.794516
    16299.918500       0.794486
    16326.530600       0.794466
    16353.229800       0.794455
    16380.016400       0.794452
    16406.890900       0.794459
    16433.853700       0.794473
    16460.905300       0.794495
    16488.046200       0.794524
    16515.276600       0.794559
    16542.597200       0.794601
    16570.008300       0.794649
    16597.510400       0.794702
    16625.103900       0.794760
    16652.789300       0.794822
    16680.567100       0.794888
    16708.437800       0.794957
    16736.401700       0.795028
    16764.459300       0.795102
    16792.611300       0.795178
    16820.857900       0.795255
    16849.199700       0.795333
    16877.637100       0.795410
    16906.170800       0.795487
    16934.801000       0.795563
    16963.528400       0.795638
    16992.353400       0.795710
    17021.276600       0.795779
    17050.298400       0.795845
    17079.419300       0.795906
    17108.639900       0.795963
    17137.960600       0.796015
    17167.382000       0.796061
    17196.904600       0.796101
    17226.528900       0.796133
    17256.255400       0.796157
    17286.084700       0.796173
    17316.017300       0.796180
    17346.053800       0.796178
    17376.194600       0.796164
    17406.440400       0.796140
    17436.791600       0.796104
    17467.248900       0.796056
    17497.812800       0.795994
    17528.483800       0.795919
    17559.262500       0.795829
    17590.149500       0.795724
    17621.145400       0.795604
    17652.250700       0.795466
    17683.466000       0.795312
    17714.791900       0.795139
    17746.228900       0.794948
    17777.777800       0.794737
    17809.439000       0.794506
    17841.213200       0.794255
    17873.101000       0.793982
    17905.103000       0.793686
    17937.219700       0.793368
    17969.451900       0.793025
    18001.800200       0.792658
    18034.265100       0.792267
    18066.847300       0.791849
    18099.547500       0.791404
    18132.366300       0.790932
    18165.304300       0.790432
    18198.362100       0.789903
    18231.540600       0.789344
    18264.840200       0.788755
    18298.261700       0.788135
    18331.805700       0.787483
    18365.472900       0.786798
    18399.264000       0.786081
    18433.179700       0.785329
    18467.220700       0.784542
    18501.387600       0.783720
    18535.681200       0.782861
    18570.102100       0.781966
    18604.651200       0.781033
    18639.329000       0.780061
    18674.136300       0.779050
    18709.073900       0.778000
    18744.142500       0.776909
    18779.342700       0.775776
    18814.675400       0.774602
    18850.141400       0.773385
    18885.741300       0.772125
    18921.475900       0.770820
    18957.346000       0.769471
    18993.352300       0.768076
    19029.495700       0.766636
    19065.776900       0.765148
    19102.196800       0.763613
    19138.756000       0.762030
    19175.455400       0.760398
    19212.295900       0.758717
    19249.278200       0.756985
    19286.403100       0.755203
    19323.671500       0.753370
    19361.084200       0.751485
    19398.642100       0.749547
    19436.346000       0.747557
    19474.196700       0.745512
    19512.195100       0.743414
    19550.342100       0.741260
    19588.638600       0.739052
    19627.085400       0.736787
    19665.683400       0.734466
    19704.433500       0.732088
    19743.336600       0.729652
    19782.393700       0.727158
    19821.605600       0.724606
    19860.973200       0.721995
    19900.497500       0.719325
    19940.179500       0.716595
    19980.020000       0.713805
    20020.020000       0.710954
    20060.180500       0.708041
    20100.502500       0.705068
    20140.986900       0.702032
    20181.634700       0.698935
    20222.446900       0.695775
    20263.424500       0.692552
    20304.568500       0.689266
    20345.880000       0.685916
    20387.359800       0.682503
    20429.009200       0.679025
    20470.829100       0.675484
    20512.820500       0.671878
    20554.984600       0.668208
    20597.322300       0.664472
    20639.834900       0.660672
    20682.523300       0.656807
    20725.388600       0.652876
    20768.432000       0.648881
    20811.654500       0.644820
    20855.057400       0.640693
    20898.641600       0.636501
    20942.408400       0.632244
    20986.358900       0.627921
    21030.494200       0.623533
    21074.815600       0.619079
    21119.324200       0.614561
    21164.021200       0.609977
    21208.907700       0.605328
    21253.985100       0.600615
    21299.254500       0.595837
    21344.717200       0.590994
    21390.374300       0.586088
    21436.227200       0.581118
    21482.277100       0.576084
    21528.525300       0.570987
    21574.973000       0.565827
    21621.621600       0.560605
    21668.472400       0.555321
    21715.526600       0.549975
    21762.785600       0.544569
    21810.250800       0.539102
    21857.923500       0.533575
    21905.805000       0.527988
    21953.896800       0.522343
    22002.200200       0.516640
    22050.716600       0.510880
    22099.447500       0.505062
    22148.394200       0.499189
    22197.558300       0.493261
    22246.941000       0.487279
    22296.544000       0.481243
    22346.368700       0.475155
    22396.416600       0.469015
    22446.689100       0.462824
    22497.187900       0.456584
    22547.914300       0.450296
    22598.870100       0.443960
    22650.056600       0.437577
    22701.475600       0.431150
    22753.128600       0.424679
    22805.017100       0.418165
    22857.142900       0.411610
    22909.507400       0.405015
    22962.112500       0.398382
    23014.959700       0.391711
    23068.050700       0.385005
    23121.387300       0.378265
    23174.971000       0.371492
    23228.803700       0.364688
    23282.887100       0.357855
    23337.222900       0.350994
    23391.812900       0.344108
    23446.658900       0.337197
    23501.762600       0.330265
    23557.126000       0.323312
    23612.750900       0.316341
    23668.639100       0.309354
    23724.792400       0.302352
    23781.212800       0.295338
    23837.902300       0.288315
    23894.862600       0.281283
    23952.095800       0.274246
    24009.603800       0.267207
    24067.388700       0.260166
    24125.452400       0.253127
    24183.796900       0.246092
    24242.424200       0.239063
    24301.336600       0.232044
    24360.535900       0.225037
    24420.024400       0.218044
    24479.804200       0.211069
    24539.877300       0.204114
    24600.246000       0.197182
    24660.912500       0.190276
    24721.878900       0.183400
    24783.147500       0.176555
    24844.720500       0.169745
    24906.600200       0.162974
    24968.789000       0.156245
    25031.289100       0.149560
    25094.102900       0.142924
    25157.232700       0.136340
    25220.681000       0.129811
    25284.450100       0.123341
    25348.542500       0.116933
    25412.960600       0.110591
    25477.707000       0.104320
