66,   66, MVIRI VIS channel from srf_MET2_1990123_1990124_1801-Release_S10EL_10.dat
Number of data points:
730
Wavenumber (cm-1)   Filter response
     8916.629500       0.000000
     8924.587200       0.000000
     8932.559200       0.000002
     8940.545400       0.000012
     8948.545900       0.000033
     8956.560700       0.000070
     8964.589900       0.000128
     8972.633500       0.000211
     8980.691500       0.000322
     8988.764000       0.000467
     8996.851100       0.000648
     9004.952700       0.000869
     9013.068900       0.001133
     9021.199800       0.001444
     9029.345400       0.001805
     9037.505600       0.002218
     9045.680700       0.002687
     9053.870500       0.003214
     9062.075200       0.003802
     9070.294800       0.004453
     9078.529300       0.005168
     9086.778700       0.005952
     9095.043200       0.006804
     9103.322700       0.007728
     9111.617300       0.008725
     9119.927000       0.009796
     9128.251900       0.010944
     9136.592100       0.012169
     9144.947400       0.013474
     9153.318100       0.014858
     9161.704100       0.016323
     9170.105500       0.017871
     9178.522300       0.019502
     9186.954500       0.021217
     9195.402300       0.023017
     9203.865600       0.024902
     9212.344500       0.026873
     9220.839100       0.028930
     9229.349300       0.031074
     9237.875300       0.033305
     9246.417000       0.035623
     9254.974500       0.038029
     9263.547900       0.040522
     9272.137200       0.043103
     9280.742500       0.045771
     9289.363700       0.048527
     9298.000900       0.051370
     9306.654300       0.054300
     9315.323700       0.057316
     9324.009300       0.060419
     9332.711200       0.063607
     9341.429200       0.066881
     9350.163600       0.070240
     9358.914400       0.073683
     9367.681500       0.077210
     9376.465100       0.080820
     9385.265100       0.084512
     9394.081700       0.088286
     9402.914900       0.092139
     9411.764700       0.096074
     9420.631200       0.100087
     9429.514400       0.104178
     9438.414300       0.108346
     9447.331100       0.112590
     9456.264800       0.116910
     9465.215300       0.121304
     9474.182900       0.125770
     9483.167400       0.130309
     9492.169000       0.134917
     9501.187600       0.139596
     9510.223500       0.144343
     9519.276500       0.149157
     9528.346800       0.154037
     9537.434400       0.158982
     9546.539400       0.163990
     9555.661700       0.169060
     9564.801500       0.174191
     9573.958800       0.179382
     9583.133700       0.184630
     9592.326100       0.189935
     9601.536200       0.195296
     9610.764100       0.200711
     9620.009600       0.206178
     9629.273000       0.211697
     9638.554200       0.217265
     9647.853400       0.222882
     9657.170400       0.228546
     9666.505600       0.234255
     9675.858700       0.240009
     9685.230000       0.245805
     9694.619500       0.251643
     9704.027200       0.257519
     9713.453100       0.263435
     9722.897400       0.269388
     9732.360100       0.275375
     9741.841200       0.281398
     9751.340800       0.287451
     9760.859000       0.293537
     9770.395700       0.299653
     9779.951100       0.305795
     9789.525200       0.311966
     9799.118100       0.318161
     9808.729800       0.324380
     9818.360300       0.330622
     9828.009800       0.336884
     9837.678300       0.343167
     9847.365800       0.349468
     9857.072400       0.355785
     9866.798200       0.362118
     9876.543200       0.368464
     9886.307500       0.374824
     9896.091000       0.381195
     9905.894000       0.387575
     9915.716400       0.393964
     9925.558300       0.400360
     9935.419800       0.406763
     9945.300800       0.413170
     9955.201600       0.419580
     9965.122100       0.425993
     9975.062300       0.432405
     9985.022500       0.438818
     9995.002500       0.445229
    10005.002500       0.451636
    10015.022500       0.458039
    10025.062700       0.464437
    10035.122900       0.470828
    10045.203400       0.477211
    10055.304200       0.483586
    10065.425300       0.489950
    10075.566800       0.496302
    10085.728700       0.502642
    10095.911200       0.508969
    10106.114200       0.515281
    10116.337900       0.521577
    10126.582300       0.527856
    10136.847400       0.534117
    10147.133400       0.540359
    10157.440300       0.546582
    10167.768200       0.552783
    10178.117000       0.558962
    10188.487000       0.565119
    10198.878100       0.571252
    10209.290500       0.577360
    10219.724100       0.583442
    10230.179000       0.589497
    10240.655400       0.595525
    10251.153300       0.601525
    10261.672700       0.607495
    10272.213700       0.613435
    10282.776300       0.619344
    10293.360800       0.625222
    10303.967000       0.631067
    10314.595200       0.636879
    10325.245200       0.642657
    10335.917300       0.648400
    10346.611500       0.654108
    10357.327800       0.659779
    10368.066400       0.665414
    10378.827200       0.671011
    10389.610400       0.676570
    10400.416000       0.682090
    10411.244100       0.687570
    10422.094800       0.693011
    10432.968200       0.698411
    10443.864200       0.703770
    10454.783100       0.709087
    10465.724800       0.714361
    10476.689400       0.719593
    10487.677000       0.724782
    10498.687700       0.729927
    10509.721500       0.735027
    10520.778500       0.740083
    10531.858900       0.745094
    10542.962600       0.750059
    10554.089700       0.754978
    10565.240400       0.759851
    10576.414600       0.764677
    10587.612500       0.769456
    10598.834100       0.774187
    10610.079600       0.778871
    10621.348900       0.783506
    10632.642200       0.788093
    10643.959600       0.792632
    10655.301000       0.797121
    10666.666700       0.801561
    10678.056600       0.805952
    10689.470900       0.810293
    10700.909600       0.814584
    10712.372800       0.818825
    10723.860600       0.823015
    10735.373100       0.827155
    10746.910300       0.831245
    10758.472300       0.835283
    10770.059200       0.839270
    10781.671200       0.843207
    10793.308100       0.847092
    10804.970300       0.850926
    10816.657700       0.854708
    10828.370300       0.858439
    10840.108400       0.862119
    10851.871900       0.865746
    10863.661100       0.869323
    10875.475800       0.872847
    10887.316300       0.876320
    10899.182600       0.879741
    10911.074700       0.883111
    10922.992900       0.886428
    10934.937100       0.889694
    10946.907500       0.892909
    10958.904100       0.896072
    10970.927000       0.899183
    10982.976400       0.902243
    10995.052200       0.905251
    11007.154700       0.908209
    11019.283700       0.911114
    11031.439600       0.913969
    11043.622300       0.916773
    11055.832000       0.919526
    11068.068600       0.922228
    11080.332400       0.924880
    11092.623400       0.927481
    11104.941700       0.930031
    11117.287400       0.932532
    11129.660500       0.934982
    11142.061300       0.937383
    11154.489700       0.939734
    11166.945800       0.942035
    11179.429800       0.944288
    11191.941800       0.946491
    11204.481800       0.948645
    11217.049900       0.950751
    11229.646300       0.952808
    11242.270900       0.954816
    11254.924000       0.956777
    11267.605600       0.958691
    11280.315800       0.960556
    11293.054800       0.962374
    11305.822500       0.964146
    11318.619100       0.965870
    11331.444800       0.967548
    11344.299500       0.969180
    11357.183400       0.970766
    11370.096600       0.972306
    11383.039300       0.973801
    11396.011400       0.975251
    11409.013100       0.976656
    11422.044500       0.978016
    11435.105800       0.979332
    11448.196900       0.980604
    11461.318100       0.981832
    11474.469300       0.983017
    11487.650800       0.984159
    11500.862600       0.985259
    11514.104800       0.986315
    11527.377500       0.987330
    11540.680900       0.988303
    11554.015000       0.989235
    11567.380000       0.990125
    11580.775900       0.990974
    11594.202900       0.991783
    11607.661100       0.992552
    11621.150500       0.993281
    11634.671300       0.993970
    11648.223600       0.994621
    11661.807600       0.995232
    11675.423200       0.995805
    11689.070700       0.996339
    11702.750100       0.996836
    11716.461600       0.997295
    11730.205300       0.997717
    11743.981200       0.998102
    11757.789500       0.998451
    11771.630400       0.998763
    11785.503800       0.999039
    11799.410000       0.999280
    11813.349100       0.999486
    11827.321100       0.999657
    11841.326200       0.999793
    11855.364600       0.999895
    11869.436200       0.999964
    11883.541300       0.999998
    11897.680000       1.000000
    11911.852300       0.999969
    11926.058400       0.999905
    11940.298500       0.999809
    11954.572600       0.999681
    11968.880900       0.999521
    11983.223500       0.999330
    11997.600500       0.999109
    12012.012000       0.998856
    12026.458200       0.998574
    12040.939200       0.998261
    12055.455100       0.997919
    12070.006000       0.997548
    12084.592100       0.997147
    12099.213600       0.996718
    12113.870400       0.996260
    12128.562800       0.995775
    12143.290800       0.995261
    12158.054700       0.994720
    12172.854500       0.994152
    12187.690400       0.993557
    12202.562500       0.992936
    12217.471000       0.992288
    12232.415900       0.991614
    12247.397400       0.990915
    12262.415700       0.990190
    12277.470800       0.989439
    12292.563000       0.988665
    12307.692300       0.987865
    12322.858900       0.987041
    12338.062900       0.986193
    12353.304500       0.985322
    12368.583800       0.984427
    12383.900900       0.983508
    12399.256000       0.982567
    12414.649300       0.981603
    12430.080800       0.980617
    12445.550700       0.979608
    12461.059200       0.978578
    12476.606400       0.977526
    12492.192400       0.976452
    12507.817400       0.975357
    12523.481500       0.974241
    12539.185000       0.973105
    12554.927800       0.971948
    12570.710200       0.970771
    12586.532400       0.969573
    12602.394500       0.968356
    12618.296500       0.967120
    12634.238800       0.965863
    12650.221400       0.964588
    12666.244500       0.963294
    12682.308200       0.961981
    12698.412700       0.960650
    12714.558200       0.959300
    12730.744700       0.957932
    12746.972600       0.956547
    12763.241900       0.955143
    12779.552700       0.953722
    12795.905300       0.952284
    12812.299800       0.950828
    12828.736400       0.949356
    12845.215200       0.947866
    12861.736300       0.946360
    12878.300100       0.944838
    12894.906500       0.943299
    12911.555800       0.941744
    12928.248200       0.940174
    12944.983800       0.938587
    12961.762800       0.936985
    12978.585300       0.935367
    12995.451600       0.933734
    13012.361700       0.932086
    13029.316000       0.930423
    13046.314400       0.928745
    13063.357300       0.927053
    13080.444700       0.925346
    13097.576900       0.923624
    13114.754100       0.921888
    13131.976400       0.920138
    13149.243900       0.918374
    13166.556900       0.916596
    13183.915600       0.914804
    13201.320100       0.912998
    13218.770700       0.911179
    13236.267400       0.909347
    13253.810500       0.907501
    13271.400100       0.905642
    13289.036500       0.903770
    13306.719900       0.901885
    13324.450400       0.899987
    13342.228200       0.898077
    13360.053400       0.896154
    13377.926400       0.894218
    13395.847300       0.892270
    13413.816200       0.890310
    13431.833400       0.888337
    13449.899100       0.886352
    13468.013500       0.884355
    13486.176700       0.882347
    13504.388900       0.880326
    13522.650400       0.878294
    13540.961400       0.876250
    13559.322000       0.874194
    13577.732500       0.872127
    13596.193100       0.870048
    13614.703900       0.867958
    13633.265200       0.865857
    13651.877100       0.863745
    13670.540000       0.861622
    13689.253900       0.859487
    13708.019200       0.857342
    13726.836000       0.855186
    13745.704500       0.853019
    13764.624900       0.850841
    13783.597500       0.848653
    13802.622500       0.846454
    13821.700100       0.844245
    13840.830400       0.842026
    13860.013900       0.839795
    13879.250500       0.837555
    13898.540700       0.835305
    13917.884500       0.833044
    13937.282200       0.830773
    13956.734100       0.828493
    13976.240400       0.826202
    13995.801300       0.823901
    14015.417000       0.821591
    14035.087700       0.819271
    14054.813800       0.816941
    14074.595400       0.814602
    14094.432700       0.812253
    14114.326000       0.809895
    14134.275600       0.807527
    14154.281700       0.805151
    14174.344400       0.802764
    14194.464200       0.800369
    14214.641100       0.797964
    14234.875400       0.795551
    14255.167500       0.793128
    14275.517500       0.790697
    14295.925700       0.788256
    14316.392300       0.785807
    14336.917600       0.783349
    14357.501800       0.780883
    14378.145200       0.778408
    14398.848100       0.775924
    14419.610700       0.773432
    14440.433200       0.770932
    14461.316000       0.768423
    14482.259200       0.765906
    14503.263200       0.763381
    14524.328200       0.760848
    14545.454500       0.758307
    14566.642400       0.755758
    14587.892000       0.753201
    14609.203800       0.750636
    14630.577900       0.748064
    14652.014700       0.745484
    14673.514300       0.742897
    14695.077100       0.740302
    14716.703500       0.737699
    14738.393500       0.735090
    14760.147600       0.732473
    14781.966000       0.729849
    14803.849000       0.727218
    14825.796900       0.724580
    14847.809900       0.721936
    14869.888500       0.719284
    14892.032800       0.716626
    14914.243100       0.713962
    14936.519800       0.711290
    14958.863100       0.708613
    14981.273400       0.705929
    15003.750900       0.703239
    15026.296000       0.700543
    15048.909000       0.697841
    15071.590100       0.695133
    15094.339600       0.692419
    15117.158000       0.689699
    15140.045400       0.686974
    15163.002300       0.684244
    15186.028900       0.681508
    15209.125500       0.678767
    15232.292500       0.676020
    15255.530100       0.673269
    15278.838800       0.670513
    15302.218800       0.667751
    15325.670500       0.664985
    15349.194200       0.662215
    15372.790200       0.659440
    15396.458800       0.656661
    15420.200500       0.653877
    15444.015400       0.651090
    15467.904100       0.648298
    15491.866800       0.645502
    15515.903800       0.642703
    15540.015500       0.639900
    15564.202300       0.637094
    15588.464500       0.634284
    15612.802500       0.631471
    15637.216600       0.628655
    15661.707100       0.625836
    15686.274500       0.623014
    15710.919100       0.620190
    15735.641200       0.617363
    15760.441300       0.614533
    15785.319700       0.611701
    15810.276700       0.608867
    15835.312700       0.606031
    15860.428200       0.603193
    15885.623500       0.600353
    15910.899000       0.597512
    15936.255000       0.594669
    15961.691900       0.591825
    15987.210200       0.588980
    16012.810200       0.586133
    16038.492400       0.583286
    16064.257000       0.580438
    16090.104600       0.577590
    16116.035500       0.574741
    16142.050000       0.571891
    16168.148700       0.569042
    16194.332000       0.566193
    16220.600200       0.563343
    16246.953700       0.560494
    16273.393000       0.557646
    16299.918500       0.554798
    16326.530600       0.551950
    16353.229800       0.549104
    16380.016400       0.546259
    16406.890900       0.543415
    16433.853700       0.540572
    16460.905300       0.537731
    16488.046200       0.534891
    16515.276600       0.532053
    16542.597200       0.529217
    16570.008300       0.526383
    16597.510400       0.523552
    16625.103900       0.520722
    16652.789300       0.517896
    16680.567100       0.515072
    16708.437800       0.512251
    16736.401700       0.509433
    16764.459300       0.506617
    16792.611300       0.503806
    16820.857900       0.500997
    16849.199700       0.498193
    16877.637100       0.495391
    16906.170800       0.492594
    16934.801000       0.489801
    16963.528400       0.487012
    16992.353400       0.484227
    17021.276600       0.481446
    17050.298400       0.478670
    17079.419300       0.475899
    17108.639900       0.473133
    17137.960600       0.470371
    17167.382000       0.467615
    17196.904600       0.464864
    17226.528900       0.462118
    17256.255400       0.459377
    17286.084700       0.456643
    17316.017300       0.453913
    17346.053800       0.451190
    17376.194600       0.448473
    17406.440400       0.445762
    17436.791600       0.443057
    17467.248900       0.440358
    17497.812800       0.437666
    17528.483800       0.434980
    17559.262500       0.432301
    17590.149500       0.429628
    17621.145400       0.426963
    17652.250700       0.424304
    17683.466000       0.421652
    17714.791900       0.419008
    17746.228900       0.416371
    17777.777800       0.413741
    17809.439000       0.411118
    17841.213200       0.408503
    17873.101000       0.405896
    17905.103000       0.403296
    17937.219700       0.400704
    17969.451900       0.398119
    18001.800200       0.395543
    18034.265100       0.392974
    18066.847300       0.390414
    18099.547500       0.387861
    18132.366300       0.385317
    18165.304300       0.382781
    18198.362100       0.380253
    18231.540600       0.377733
    18264.840200       0.375222
    18298.261700       0.372719
    18331.805700       0.370224
    18365.472900       0.367738
    18399.264000       0.365260
    18433.179700       0.362791
    18467.220700       0.360330
    18501.387600       0.357878
    18535.681200       0.355434
    18570.102100       0.352999
    18604.651200       0.350572
    18639.329000       0.348154
    18674.136300       0.345745
    18709.073900       0.343344
    18744.142500       0.340951
    18779.342700       0.338567
    18814.675400       0.336192
    18850.141400       0.333825
    18885.741300       0.331466
    18921.475900       0.329116
    18957.346000       0.326775
    18993.352300       0.324442
    19029.495700       0.322117
    19065.776900       0.319800
    19102.196800       0.317492
    19138.756000       0.315191
    19175.455400       0.312899
    19212.295900       0.310615
    19249.278200       0.308339
    19286.403100       0.306071
    19323.671500       0.303811
    19361.084200       0.301558
    19398.642100       0.299314
    19436.346000       0.297077
    19474.196700       0.294847
    19512.195100       0.292625
    19550.342100       0.290410
    19588.638600       0.288202
    19627.085400       0.286002
    19665.683400       0.283808
    19704.433500       0.281622
    19743.336600       0.279442
    19782.393700       0.277269
    19821.605600       0.275102
    19860.973200       0.272942
    19900.497500       0.270789
    19940.179500       0.268641
    19980.020000       0.266499
    20020.020000       0.264364
    20060.180500       0.262234
    20100.502500       0.260109
    20140.986900       0.257990
    20181.634700       0.255876
    20222.446900       0.253768
    20263.424500       0.251664
    20304.568500       0.249565
    20345.880000       0.247471
    20387.359800       0.245381
    20429.009200       0.243296
    20470.829100       0.241215
    20512.820500       0.239137
    20554.984600       0.237063
    20597.322300       0.234993
    20639.834900       0.232927
    20682.523300       0.230863
    20725.388600       0.228803
    20768.432000       0.226745
    20811.654500       0.224690
    20855.057400       0.222637
    20898.641600       0.220587
    20942.408400       0.218539
    20986.358900       0.216493
    21030.494200       0.214448
    21074.815600       0.212405
    21119.324200       0.210363
    21164.021200       0.208322
    21208.907700       0.206282
    21253.985100       0.204242
    21299.254500       0.202203
    21344.717200       0.200164
    21390.374300       0.198126
    21436.227200       0.196087
    21482.277100       0.194048
    21528.525300       0.192008
    21574.973000       0.189968
    21621.621600       0.187927
    21668.472400       0.185884
    21715.526600       0.183841
    21762.785600       0.181796
    21810.250800       0.179749
    21857.923500       0.177700
    21905.805000       0.175649
    21953.896800       0.173596
    22002.200200       0.171541
    22050.716600       0.169483
    22099.447500       0.167422
    22148.394200       0.165358
    22197.558300       0.163292
    22246.941000       0.161221
    22296.544000       0.159148
    22346.368700       0.157071
    22396.416600       0.154990
    22446.689100       0.152906
    22497.187900       0.150818
    22547.914300       0.148725
    22598.870100       0.146628
    22650.056600       0.144527
    22701.475600       0.142422
    22753.128600       0.140312
    22805.017100       0.138197
    22857.142900       0.136078
    22909.507400       0.133954
    22962.112500       0.131825
    23014.959700       0.129691
    23068.050700       0.127552
    23121.387300       0.125408
    23174.971000       0.123259
    23228.803700       0.121105
    23282.887100       0.118946
    23337.222900       0.116782
    23391.812900       0.114613
    23446.658900       0.112438
    23501.762600       0.110259
    23557.126000       0.108075
    23612.750900       0.105886
    23668.639100       0.103692
    23724.792400       0.101493
    23781.212800       0.099289
    23837.902300       0.097081
    23894.862600       0.094869
    23952.095800       0.092652
    24009.603800       0.090431
    24067.388700       0.088206
    24125.452400       0.085977
    24183.796900       0.083745
    24242.424200       0.081509
    24301.336600       0.079270
    24360.535900       0.077028
    24420.024400       0.074784
    24479.804200       0.072537
    24539.877300       0.070288
    24600.246000       0.068038
    24660.912500       0.065785
    24721.878900       0.063533
    24783.147500       0.061279
    24844.720500       0.059025
    24906.600200       0.056772
    24968.789000       0.054519
    25031.289100       0.052267
    25094.102900       0.050016
    25157.232700       0.047768
    25220.681000       0.045523
    25284.450100       0.043281
    25348.542500       0.041042
    25412.960600       0.038808
    25477.707000       0.036580
