   8  ,noaa_12_hirs_08.flt
Number of data points:
68
Wavenumber (cm-1)   Filter response
      858.760000       0.000000
      859.120000       0.001293
      859.890000       0.003141
      861.370000       0.004558
      871.310000       0.014718
      873.090000       0.030114
      874.290000       0.046812
      875.430000       0.072534
      876.710000       0.108440
      877.970000       0.156800
      879.200000       0.228540
      880.250000       0.320080
      881.350000       0.433480
      882.480000       0.544430
      883.480000       0.637880
      884.630000       0.709710
      885.790000       0.757760
      887.030000       0.787780
      888.420000       0.812510
      889.420000       0.830820
      890.210000       0.850610
      891.430000       0.887290
      892.780000       0.927760
      894.050000       0.956780
      895.020000       0.976840
      895.690000       0.986320
      896.030000       0.990480
      896.490000       0.994850
      896.880000       0.995560
      897.460000       0.995130
      898.010000       0.992160
      898.710000       0.979250
      899.980000       0.950890
      901.170000       0.918470
      902.340000       0.894590
      902.860000       0.873750
      903.910000       0.860540
      904.630000       0.857020
      905.140000       0.857360
      905.490000       0.858640
      905.880000       0.863850
      906.480000       0.875240
      907.810000       0.915480
      908.900000       0.957500
      909.970000       0.993340
      910.370000       0.998130
      910.630000       1.000000
      910.770000       0.999730
      910.880000       0.997700
      911.170000       0.991950
      911.610000       0.979520
      912.720000       0.875290
      913.780000       0.728660
      914.870000       0.536190
      916.040000       0.365090
      917.070000       0.243420
      918.120000       0.165170
      919.330000       0.100450
      920.530000       0.060193
      922.270000       0.034607
      923.780000       0.023400
      925.770000       0.013691
      930.280000       0.007320
      933.650000       0.003460
      934.840000       0.002356
      935.840000       0.001114
      936.860000       0.000009
      938.820000       0.000000
