59,   59, MVIRI VIS channel from srf_MET2_1989168_1989169_1801-Release_S10EL_10.dat
Number of data points:
730
Wavenumber (cm-1)   Filter response
     8916.629500       0.000000
     8924.587200       0.000000
     8932.559200       0.000002
     8940.545400       0.000012
     8948.545900       0.000032
     8956.560700       0.000070
     8964.589900       0.000127
     8972.633500       0.000210
     8980.691500       0.000321
     8988.764000       0.000465
     8996.851100       0.000646
     9004.952700       0.000866
     9013.068900       0.001130
     9021.199800       0.001440
     9029.345400       0.001800
     9037.505600       0.002212
     9045.680700       0.002679
     9053.870500       0.003205
     9062.075200       0.003790
     9070.294800       0.004439
     9078.529300       0.005153
     9086.778700       0.005934
     9095.043200       0.006784
     9103.322700       0.007705
     9111.617300       0.008699
     9119.927000       0.009767
     9128.251900       0.010912
     9136.592100       0.012133
     9144.947400       0.013434
     9153.318100       0.014814
     9161.704100       0.016275
     9170.105500       0.017819
     9178.522300       0.019445
     9186.954500       0.021155
     9195.402300       0.022950
     9203.865600       0.024829
     9212.344500       0.026794
     9220.839100       0.028846
     9229.349300       0.030984
     9237.875300       0.033208
     9246.417000       0.035520
     9254.974500       0.037919
     9263.547900       0.040406
     9272.137200       0.042979
     9280.742500       0.045640
     9289.363700       0.048388
     9298.000900       0.051223
     9306.654300       0.054145
     9315.323700       0.057153
     9324.009300       0.060248
     9332.711200       0.063428
     9341.429200       0.066693
     9350.163600       0.070043
     9358.914400       0.073477
     9367.681500       0.076994
     9376.465100       0.080595
     9385.265100       0.084277
     9394.081700       0.088041
     9402.914900       0.091884
     9411.764700       0.095809
     9420.631200       0.099811
     9429.514400       0.103892
     9438.414300       0.108050
     9447.331100       0.112283
     9456.264800       0.116592
     9465.215300       0.120974
     9474.182900       0.125429
     9483.167400       0.129956
     9492.169000       0.134554
     9501.187600       0.139221
     9510.223500       0.143956
     9519.276500       0.148758
     9528.346800       0.153627
     9537.434400       0.158560
     9546.539400       0.163555
     9555.661700       0.168613
     9564.801500       0.173732
     9573.958800       0.178910
     9583.133700       0.184147
     9592.326100       0.189439
     9601.536200       0.194788
     9610.764100       0.200189
     9620.009600       0.205644
     9629.273000       0.211151
     9638.554200       0.216706
     9647.853400       0.222311
     9657.170400       0.227961
     9666.505600       0.233658
     9675.858700       0.239399
     9685.230000       0.245182
     9694.619500       0.251007
     9704.027200       0.256871
     9713.453100       0.262774
     9722.897400       0.268714
     9732.360100       0.274689
     9741.841200       0.280698
     9751.340800       0.286740
     9760.859000       0.292813
     9770.395700       0.298915
     9779.951100       0.305046
     9789.525200       0.311204
     9799.118100       0.317387
     9808.729800       0.323593
     9818.360300       0.329823
     9828.009800       0.336073
     9837.678300       0.342343
     9847.365800       0.348632
     9857.072400       0.354937
     9866.798200       0.361258
     9876.543200       0.367593
     9886.307500       0.373941
     9896.091000       0.380300
     9905.894000       0.386669
     9915.716400       0.393047
     9925.558300       0.399432
     9935.419800       0.405823
     9945.300800       0.412219
     9955.201600       0.418618
     9965.122100       0.425020
     9975.062300       0.431422
     9985.022500       0.437824
     9995.002500       0.444225
    10005.002500       0.450622
    10015.022500       0.457015
    10025.062700       0.463403
    10035.122900       0.469784
    10045.203400       0.476158
    10055.304200       0.482523
    10065.425300       0.488877
    10075.566800       0.495221
    10085.728700       0.501552
    10095.911200       0.507870
    10106.114200       0.514173
    10116.337900       0.520461
    10126.582300       0.526732
    10136.847400       0.532985
    10147.133400       0.539220
    10157.440300       0.545434
    10167.768200       0.551628
    10178.117000       0.557801
    10188.487000       0.563950
    10198.878100       0.570076
    10209.290500       0.576177
    10219.724100       0.582253
    10230.179000       0.588302
    10240.655400       0.594324
    10251.153300       0.600318
    10261.672700       0.606283
    10272.213700       0.612218
    10282.776300       0.618122
    10293.360800       0.623995
    10303.967000       0.629835
    10314.595200       0.635643
    10325.245200       0.641416
    10335.917300       0.647156
    10346.611500       0.652859
    10357.327800       0.658527
    10368.066400       0.664159
    10378.827200       0.669752
    10389.610400       0.675309
    10400.416000       0.680826
    10411.244100       0.686304
    10422.094800       0.691743
    10432.968200       0.697141
    10443.864200       0.702498
    10454.783100       0.707814
    10465.724800       0.713087
    10476.689400       0.718318
    10487.677000       0.723506
    10498.687700       0.728651
    10509.721500       0.733751
    10520.778500       0.738807
    10531.858900       0.743818
    10542.962600       0.748784
    10554.089700       0.753703
    10565.240400       0.758577
    10576.414600       0.763404
    10587.612500       0.768185
    10598.834100       0.772918
    10610.079600       0.777603
    10621.348900       0.782241
    10632.642200       0.786830
    10643.959600       0.791372
    10655.301000       0.795864
    10666.666700       0.800307
    10678.056600       0.804701
    10689.470900       0.809046
    10700.909600       0.813341
    10712.372800       0.817585
    10723.860600       0.821780
    10735.373100       0.825925
    10746.910300       0.830019
    10758.472300       0.834062
    10770.059200       0.838055
    10781.671200       0.841997
    10793.308100       0.845888
    10804.970300       0.849728
    10816.657700       0.853516
    10828.370300       0.857254
    10840.108400       0.860940
    10851.871900       0.864574
    10863.661100       0.868158
    10875.475800       0.871689
    10887.316300       0.875170
    10899.182600       0.878599
    10911.074700       0.881976
    10922.992900       0.885302
    10934.937100       0.888577
    10946.907500       0.891800
    10958.904100       0.894971
    10970.927000       0.898092
    10982.976400       0.901161
    10995.052200       0.904179
    11007.154700       0.907146
    11019.283700       0.910062
    11031.439600       0.912927
    11043.622300       0.915741
    11055.832000       0.918504
    11068.068600       0.921217
    11080.332400       0.923879
    11092.623400       0.926492
    11104.941700       0.929054
    11117.287400       0.931566
    11129.660500       0.934028
    11142.061300       0.936440
    11154.489700       0.938803
    11166.945800       0.941117
    11179.429800       0.943382
    11191.941800       0.945598
    11204.481800       0.947765
    11217.049900       0.949883
    11229.646300       0.951953
    11242.270900       0.953976
    11254.924000       0.955950
    11267.605600       0.957877
    11280.315800       0.959757
    11293.054800       0.961589
    11305.822500       0.963375
    11318.619100       0.965114
    11331.444800       0.966806
    11344.299500       0.968453
    11357.183400       0.970054
    11370.096600       0.971609
    11383.039300       0.973119
    11396.011400       0.974584
    11409.013100       0.976004
    11422.044500       0.977380
    11435.105800       0.978712
    11448.196900       0.980000
    11461.318100       0.981245
    11474.469300       0.982446
    11487.650800       0.983605
    11500.862600       0.984721
    11514.104800       0.985794
    11527.377500       0.986826
    11540.680900       0.987816
    11554.015000       0.988765
    11567.380000       0.989672
    11580.775900       0.990539
    11594.202900       0.991366
    11607.661100       0.992152
    11621.150500       0.992899
    11634.671300       0.993607
    11648.223600       0.994275
    11661.807600       0.994904
    11675.423200       0.995496
    11689.070700       0.996049
    11702.750100       0.996564
    11716.461600       0.997042
    11730.205300       0.997483
    11743.981200       0.997887
    11757.789500       0.998254
    11771.630400       0.998586
    11785.503800       0.998881
    11799.410000       0.999142
    11813.349100       0.999367
    11827.321100       0.999557
    11841.326200       0.999713
    11855.364600       0.999835
    11869.436200       0.999924
    11883.541300       0.999978
    11897.680000       1.000000
    11911.852300       0.999989
    11926.058400       0.999945
    11940.298500       0.999870
    11954.572600       0.999762
    11968.880900       0.999623
    11983.223500       0.999453
    11997.600500       0.999252
    12012.012000       0.999021
    12026.458200       0.998759
    12040.939200       0.998467
    12055.455100       0.998146
    12070.006000       0.997796
    12084.592100       0.997417
    12099.213600       0.997009
    12113.870400       0.996573
    12128.562800       0.996108
    12143.290800       0.995616
    12158.054700       0.995097
    12172.854500       0.994551
    12187.690400       0.993977
    12202.562500       0.993378
    12217.471000       0.992752
    12232.415900       0.992100
    12247.397400       0.991422
    12262.415700       0.990719
    12277.470800       0.989992
    12292.563000       0.989239
    12307.692300       0.988462
    12322.858900       0.987660
    12338.062900       0.986835
    12353.304500       0.985985
    12368.583800       0.985113
    12383.900900       0.984217
    12399.256000       0.983298
    12414.649300       0.982357
    12430.080800       0.981393
    12445.550700       0.980407
    12461.059200       0.979400
    12476.606400       0.978370
    12492.192400       0.977319
    12507.817400       0.976247
    12523.481500       0.975155
    12539.185000       0.974041
    12554.927800       0.972907
    12570.710200       0.971753
    12586.532400       0.970579
    12602.394500       0.969385
    12618.296500       0.968171
    12634.238800       0.966938
    12650.221400       0.965686
    12666.244500       0.964415
    12682.308200       0.963126
    12698.412700       0.961818
    12714.558200       0.960491
    12730.744700       0.959147
    12746.972600       0.957784
    12763.241900       0.956404
    12779.552700       0.955007
    12795.905300       0.953592
    12812.299800       0.952160
    12828.736400       0.950711
    12845.215200       0.949245
    12861.736300       0.947762
    12878.300100       0.946263
    12894.906500       0.944748
    12911.555800       0.943217
    12928.248200       0.941670
    12944.983800       0.940107
    12961.762800       0.938528
    12978.585300       0.936934
    12995.451600       0.935325
    13012.361700       0.933701
    13029.316000       0.932061
    13046.314400       0.930407
    13063.357300       0.928738
    13080.444700       0.927054
    13097.576900       0.925356
    13114.754100       0.923644
    13131.976400       0.921918
    13149.243900       0.920177
    13166.556900       0.918423
    13183.915600       0.916654
    13201.320100       0.914873
    13218.770700       0.913077
    13236.267400       0.911268
    13253.810500       0.909446
    13271.400100       0.907611
    13289.036500       0.905763
    13306.719900       0.903901
    13324.450400       0.902027
    13342.228200       0.900140
    13360.053400       0.898241
    13377.926400       0.896328
    13395.847300       0.894404
    13413.816200       0.892467
    13431.833400       0.890518
    13449.899100       0.888556
    13468.013500       0.886583
    13486.176700       0.884598
    13504.388900       0.882601
    13522.650400       0.880592
    13540.961400       0.878571
    13559.322000       0.876539
    13577.732500       0.874495
    13596.193100       0.872440
    13614.703900       0.870373
    13633.265200       0.868295
    13651.877100       0.866206
    13670.540000       0.864106
    13689.253900       0.861994
    13708.019200       0.859872
    13726.836000       0.857739
    13745.704500       0.855595
    13764.624900       0.853441
    13783.597500       0.851275
    13802.622500       0.849099
    13821.700100       0.846913
    13840.830400       0.844716
    13860.013900       0.842508
    13879.250500       0.840291
    13898.540700       0.838063
    13917.884500       0.835825
    13937.282200       0.833577
    13956.734100       0.831318
    13976.240400       0.829050
    13995.801300       0.826772
    14015.417000       0.824484
    14035.087700       0.822186
    14054.813800       0.819879
    14074.595400       0.817561
    14094.432700       0.815235
    14114.326000       0.812898
    14134.275600       0.810553
    14154.281700       0.808198
    14174.344400       0.805833
    14194.464200       0.803459
    14214.641100       0.801076
    14234.875400       0.798684
    14255.167500       0.796283
    14275.517500       0.793873
    14295.925700       0.791454
    14316.392300       0.789026
    14336.917600       0.786589
    14357.501800       0.784144
    14378.145200       0.781690
    14398.848100       0.779227
    14419.610700       0.776756
    14440.433200       0.774276
    14461.316000       0.771788
    14482.259200       0.769292
    14503.263200       0.766787
    14524.328200       0.764275
    14545.454500       0.761754
    14566.642400       0.759225
    14587.892000       0.756688
    14609.203800       0.754143
    14630.577900       0.751591
    14652.014700       0.749031
    14673.514300       0.746463
    14695.077100       0.743887
    14716.703500       0.741305
    14738.393500       0.738715
    14760.147600       0.736117
    14781.966000       0.733512
    14803.849000       0.730900
    14825.796900       0.728281
    14847.809900       0.725656
    14869.888500       0.723023
    14892.032800       0.720383
    14914.243100       0.717737
    14936.519800       0.715084
    14958.863100       0.712425
    14981.273400       0.709759
    15003.750900       0.707087
    15026.296000       0.704409
    15048.909000       0.701724
    15071.590100       0.699034
    15094.339600       0.696337
    15117.158000       0.693635
    15140.045400       0.690927
    15163.002300       0.688214
    15186.028900       0.685495
    15209.125500       0.682770
    15232.292500       0.680040
    15255.530100       0.677305
    15278.838800       0.674565
    15302.218800       0.671820
    15325.670500       0.669070
    15349.194200       0.666316
    15372.790200       0.663557
    15396.458800       0.660793
    15420.200500       0.658025
    15444.015400       0.655252
    15467.904100       0.652476
    15491.866800       0.649696
    15515.903800       0.646911
    15540.015500       0.644123
    15564.202300       0.641331
    15588.464500       0.638536
    15612.802500       0.635737
    15637.216600       0.632935
    15661.707100       0.630130
    15686.274500       0.627322
    15710.919100       0.624511
    15735.641200       0.621697
    15760.441300       0.618881
    15785.319700       0.616062
    15810.276700       0.613241
    15835.312700       0.610418
    15860.428200       0.607592
    15885.623500       0.604765
    15910.899000       0.601936
    15936.255000       0.599105
    15961.691900       0.596273
    15987.210200       0.593440
    16012.810200       0.590605
    16038.492400       0.587769
    16064.257000       0.584933
    16090.104600       0.582095
    16116.035500       0.579257
    16142.050000       0.576418
    16168.148700       0.573580
    16194.332000       0.570741
    16220.600200       0.567902
    16246.953700       0.565063
    16273.393000       0.562224
    16299.918500       0.559386
    16326.530600       0.556548
    16353.229800       0.553711
    16380.016400       0.550875
    16406.890900       0.548040
    16433.853700       0.545206
    16460.905300       0.542373
    16488.046200       0.539542
    16515.276600       0.536713
    16542.597200       0.533885
    16570.008300       0.531059
    16597.510400       0.528235
    16625.103900       0.525413
    16652.789300       0.522594
    16680.567100       0.519778
    16708.437800       0.516964
    16736.401700       0.514152
    16764.459300       0.511344
    16792.611300       0.508539
    16820.857900       0.505737
    16849.199700       0.502938
    16877.637100       0.500143
    16906.170800       0.497352
    16934.801000       0.494564
    16963.528400       0.491780
    16992.353400       0.489001
    17021.276600       0.486225
    17050.298400       0.483454
    17079.419300       0.480688
    17108.639900       0.477926
    17137.960600       0.475169
    17167.382000       0.472417
    17196.904600       0.469670
    17226.528900       0.466928
    17256.255400       0.464191
    17286.084700       0.461460
    17316.017300       0.458735
    17346.053800       0.456015
    17376.194600       0.453300
    17406.440400       0.450592
    17436.791600       0.447890
    17467.248900       0.445194
    17497.812800       0.442504
    17528.483800       0.439820
    17559.262500       0.437143
    17590.149500       0.434472
    17621.145400       0.431809
    17652.250700       0.429152
    17683.466000       0.426501
    17714.791900       0.423858
    17746.228900       0.421222
    17777.777800       0.418593
    17809.439000       0.415971
    17841.213200       0.413357
    17873.101000       0.410750
    17905.103000       0.408150
    17937.219700       0.405558
    17969.451900       0.402974
    18001.800200       0.400397
    18034.265100       0.397828
    18066.847300       0.395267
    18099.547500       0.392714
    18132.366300       0.390169
    18165.304300       0.387632
    18198.362100       0.385103
    18231.540600       0.382582
    18264.840200       0.380069
    18298.261700       0.377564
    18331.805700       0.375068
    18365.472900       0.372580
    18399.264000       0.370100
    18433.179700       0.367629
    18467.220700       0.365165
    18501.387600       0.362710
    18535.681200       0.360264
    18570.102100       0.357826
    18604.651200       0.355396
    18639.329000       0.352975
    18674.136300       0.350562
    18709.073900       0.348158
    18744.142500       0.345762
    18779.342700       0.343374
    18814.675400       0.340995
    18850.141400       0.338624
    18885.741300       0.336261
    18921.475900       0.333907
    18957.346000       0.331560
    18993.352300       0.329222
    19029.495700       0.326893
    19065.776900       0.324571
    19102.196800       0.322257
    19138.756000       0.319952
    19175.455400       0.317654
    19212.295900       0.315365
    19249.278200       0.313083
    19286.403100       0.310809
    19323.671500       0.308542
    19361.084200       0.306283
    19398.642100       0.304032
    19436.346000       0.301788
    19474.196700       0.299552
    19512.195100       0.297323
    19550.342100       0.295101
    19588.638600       0.292886
    19627.085400       0.290678
    19665.683400       0.288476
    19704.433500       0.286282
    19743.336600       0.284094
    19782.393700       0.281913
    19821.605600       0.279738
    19860.973200       0.277569
    19900.497500       0.275406
    19940.179500       0.273250
    19980.020000       0.271099
    20020.020000       0.268954
    20060.180500       0.266814
    20100.502500       0.264679
    20140.986900       0.262550
    20181.634700       0.260426
    20222.446900       0.258307
    20263.424500       0.256193
    20304.568500       0.254083
    20345.880000       0.251977
    20387.359800       0.249876
    20429.009200       0.247779
    20470.829100       0.245685
    20512.820500       0.243596
    20554.984600       0.241510
    20597.322300       0.239427
    20639.834900       0.237347
    20682.523300       0.235270
    20725.388600       0.233196
    20768.432000       0.231125
    20811.654500       0.229055
    20855.057400       0.226988
    20898.641600       0.224923
    20942.408400       0.222860
    20986.358900       0.220798
    21030.494200       0.218738
    21074.815600       0.216678
    21119.324200       0.214620
    21164.021200       0.212562
    21208.907700       0.210505
    21253.985100       0.208448
    21299.254500       0.206392
    21344.717200       0.204335
    21390.374300       0.202278
    21436.227200       0.200220
    21482.277100       0.198162
    21528.525300       0.196102
    21574.973000       0.194042
    21621.621600       0.191980
    21668.472400       0.189917
    21715.526600       0.187852
    21762.785600       0.185785
    21810.250800       0.183716
    21857.923500       0.181645
    21905.805000       0.179571
    21953.896800       0.177494
    22002.200200       0.175415
    22050.716600       0.173332
    22099.447500       0.171246
    22148.394200       0.169157
    22197.558300       0.167064
    22246.941000       0.164968
    22296.544000       0.162867
    22346.368700       0.160763
    22396.416600       0.158654
    22446.689100       0.156541
    22497.187900       0.154423
    22547.914300       0.152301
    22598.870100       0.150174
    22650.056600       0.148042
    22701.475600       0.145905
    22753.128600       0.143763
    22805.017100       0.141615
    22857.142900       0.139463
    22909.507400       0.137305
    22962.112500       0.135141
    23014.959700       0.132972
    23068.050700       0.130797
    23121.387300       0.128617
    23174.971000       0.126431
    23228.803700       0.124239
    23282.887100       0.122041
    23337.222900       0.119838
    23391.812900       0.117629
    23446.658900       0.115414
    23501.762600       0.113193
    23557.126000       0.110967
    23612.750900       0.108735
    23668.639100       0.106498
    23724.792400       0.104255
    23781.212800       0.102006
    23837.902300       0.099752
    23894.862600       0.097494
    23952.095800       0.095230
    24009.603800       0.092961
    24067.388700       0.090688
    24125.452400       0.088410
    24183.796900       0.086127
    24242.424200       0.083841
    24301.336600       0.081550
    24360.535900       0.079256
    24420.024400       0.076959
    24479.804200       0.074659
    24539.877300       0.072355
    24600.246000       0.070050
    24660.912500       0.067742
    24721.878900       0.065432
    24783.147500       0.063121
    24844.720500       0.060810
    24906.600200       0.058498
    24968.789000       0.056185
    25031.289100       0.053873
    25094.102900       0.051562
    25157.232700       0.049253
    25220.681000       0.046946
    25284.450100       0.044641
    25348.542500       0.042339
    25412.960600       0.040041
    25477.707000       0.037748
