 3    ,noaa_19_avhrr_03.flt
Number of data points:
98
Wavenumber (cm-1)   Filter response
     2447.381300       0.000936
     2451.581300       0.001225
     2455.795700       0.001566
     2460.024600       0.002239
     2464.268100       0.002780
     2468.526300       0.003759
     2472.799200       0.004748
     2477.086900       0.006187
     2481.389600       0.008233
     2485.707200       0.010763
     2490.039800       0.014608
     2494.387600       0.019912
     2498.750600       0.027385
     2503.128900       0.037780
     2507.522600       0.054095
     2511.931700       0.076794
     2516.356300       0.112890
     2520.796600       0.165340
     2525.252500       0.234670
     2529.724300       0.327470
     2534.211900       0.439920
     2538.715400       0.567670
     2543.235000       0.700420
     2547.770700       0.806160
     2552.322600       0.902880
     2556.890800       0.950190
     2561.475400       0.981830
     2566.076500       0.989140
     2570.694100       0.980240
     2575.328400       0.963600
     2579.979400       0.938790
     2584.647200       0.934020
     2589.332000       0.939190
     2594.033700       0.927450
     2598.752600       0.935210
     2603.488700       0.942780
     2608.242000       0.952870
     2613.012800       0.970780
     2617.801000       0.979370
     2622.606900       0.993540
     2627.430400       0.999880
     2632.271700       0.997320
     2637.130800       1.000000
     2642.007900       0.995070
     2646.903100       0.986620
     2651.816500       0.971980
     2656.748100       0.974720
     2661.698200       0.972760
     2666.666700       0.978690
     2671.653800       0.975560
     2676.659500       0.981230
     2681.684100       0.984180
     2686.727600       0.988000
     2691.790000       0.990190
     2696.871600       0.980140
     2701.972400       0.975890
     2707.092600       0.957590
     2712.232200       0.953720
     2717.391300       0.939340
     2722.570100       0.928030
     2727.768700       0.915310
     2732.987200       0.903660
     2738.225600       0.904220
     2743.484200       0.901300
     2748.763100       0.903820
     2754.062200       0.907960
     2759.381900       0.910960
     2764.722100       0.914530
     2770.083100       0.905580
     2775.464900       0.892140
     2780.867600       0.864920
     2786.291400       0.828720
     2791.736500       0.764360
     2797.202800       0.691900
     2802.690600       0.597130
     2808.199900       0.493800
     2813.731000       0.382440
     2819.283900       0.282640
     2824.858800       0.206000
     2830.455700       0.146990
     2836.074900       0.104150
     2841.716400       0.075815
     2847.380400       0.055757
     2853.067000       0.042994
     2858.776400       0.033221
     2864.508700       0.026709
     2870.264100       0.021854
     2876.042600       0.018290
     2881.844400       0.014971
     2887.669700       0.012122
     2893.518500       0.009784
     2899.391100       0.007532
     2905.287600       0.005581
     2911.208200       0.003948
     2917.152900       0.002851
     2923.121900       0.001794
     2929.115400       0.001241
     2935.133500       0.000809
