           5  , Jan 12th 2012 http://fy3.satellite.cma.gov.cn/ArssEn/Download/FY3A_calibration_info_params.rar
Number of data points:
680
Wavenumber (cm-1)   Filter response
      680.087000       0.000404
      680.179600       0.001290
      680.272100       0.002253
      680.364700       0.003134
      680.457300       0.003914
      680.549900       0.004579
      680.642500       0.005021
      680.735200       0.005196
      680.827900       0.005241
      680.920600       0.004978
      681.013400       0.004672
      681.106100       0.004120
      681.198900       0.003561
      681.291700       0.002992
      681.384600       0.002406
      681.477500       0.002030
      681.570300       0.001696
      681.663300       0.001641
      681.756200       0.001716
      681.849200       0.002025
      681.942200       0.002542
      682.035200       0.003098
      682.128200       0.003715
      682.221300       0.004291
      682.314400       0.004636
      682.407500       0.004944
      682.500700       0.004825
      682.593900       0.004705
      682.687100       0.004269
      682.780300       0.003809
      682.873500       0.003313
      682.966800       0.002807
      683.060100       0.002433
      683.153400       0.002143
      683.246800       0.002041
      683.340100       0.002139
      683.433600       0.002408
      683.527000       0.002982
      683.620400       0.003640
      683.713900       0.004597
      683.807400       0.005561
      683.901000       0.006618
      683.994500       0.007674
      684.088100       0.008504
      684.181700       0.009275
      684.275300       0.009627
      684.369000       0.009876
      684.462700       0.009772
      684.556400       0.009494
      684.650100       0.009018
      684.743900       0.008371
      684.837700       0.007669
      684.931500       0.006887
      685.025400       0.006162
      685.119200       0.005462
      685.213100       0.004783
      685.307000       0.004222
      685.400900       0.003665
      685.494900       0.003313
      685.588900       0.002963
      685.683000       0.002828
      685.777000       0.002723
      685.871000       0.002881
      685.965100       0.003141
      686.059300       0.003523
      686.153400       0.003986
      686.247600       0.004412
      686.341800       0.004803
      686.436000       0.005083
      686.530300       0.005184
      686.624600       0.005228
      686.718900       0.005109
      686.813200       0.005013
      686.907500       0.005087
      687.002000       0.005142
      687.096300       0.005636
      687.190700       0.006129
      687.285200       0.006833
      687.379700       0.007559
      687.474200       0.008030
      687.568800       0.008432
      687.663300       0.008416
      687.757900       0.008197
      687.852500       0.007836
      687.947100       0.007279
      688.041800       0.006823
      688.136500       0.006494
      688.231300       0.006349
      688.326000       0.006578
      688.420800       0.006900
      688.515600       0.007555
      688.610400       0.008211
      688.705200       0.008876
      688.800100       0.009594
      688.895000       0.009865
      688.989900       0.010136
      689.084900       0.009983
      689.179900       0.009781
      689.274800       0.009503
      689.369900       0.009205
      689.465000       0.009107
      689.560100       0.009103
      689.655200       0.009345
      689.750300       0.009822
      689.845500       0.010351
      689.940700       0.010996
      690.035900       0.011532
      690.131200       0.011891
      690.226400       0.012073
      690.321700       0.011796
      690.417000       0.011407
      690.512300       0.010503
      690.607700       0.009582
      690.703100       0.008477
      690.798600       0.007371
      690.894000       0.006585
      690.989500       0.005805
      691.085000       0.005660
      691.180500       0.005594
      691.276100       0.006079
      691.371700       0.006704
      691.467300       0.007567
      691.562900       0.008529
      691.658600       0.009379
      691.754300       0.010157
      691.850000       0.010670
      691.945700       0.010942
      692.041500       0.010987
      692.137300       0.010738
      692.233200       0.010421
      692.329000       0.009975
      692.424900       0.009578
      692.520800       0.009323
      692.616700       0.009130
      692.712600       0.009254
      692.808700       0.009410
      692.904700       0.009897
      693.000700       0.010385
      693.096700       0.011191
      693.192900       0.011997
      693.289000       0.012990
      693.385100       0.013997
      693.481300       0.015148
      693.577500       0.016310
      693.673700       0.017572
      693.770000       0.018858
      693.866200       0.020145
      693.962500       0.021430
      694.058800       0.022662
      694.155200       0.023859
      694.251600       0.024907
      694.348000       0.025825
      694.444500       0.026526
      694.540900       0.026926
      694.637400       0.027129
      694.733900       0.026962
      694.830400       0.026623
      694.927000       0.025914
      695.023700       0.025148
      695.120300       0.024209
      695.216900       0.023291
      695.313600       0.022467
      695.410300       0.021678
      695.507000       0.021151
      695.603800       0.020668
      695.700600       0.020441
      695.797400       0.020214
      695.894200       0.020211
      695.991100       0.020214
      696.088000       0.020368
      696.184900       0.020537
      696.281900       0.020926
      696.378800       0.021355
      696.475800       0.022005
      696.572900       0.022766
      696.669900       0.023711
      696.767000       0.024727
      696.864100       0.025660
      696.961200       0.026549
      697.058400       0.027167
      697.155600       0.027602
      697.252800       0.027784
      697.350000       0.027751
      697.447300       0.027629
      697.544600       0.027507
      697.642000       0.027535
      697.739300       0.027762
      697.836700       0.028201
      697.934100       0.028990
      698.031600       0.029895
      698.129000       0.031040
      698.226500       0.032172
      698.324000       0.033288
      698.421600       0.034287
      698.519200       0.035094
      698.616800       0.035836
      698.714400       0.036268
      698.812000       0.036663
      698.909700       0.036804
      699.007400       0.036933
      699.105200       0.036922
      699.202900       0.036908
      699.300700       0.036838
      699.398500       0.034047
      699.496400       0.034438
      699.594200       0.034831
      699.692100       0.035476
      699.790000       0.036141
      699.888000       0.037254
      699.986000       0.038431
      700.084000       0.040116
      700.182100       0.041908
      700.280200       0.044135
      700.378200       0.046480
      700.476300       0.048571
      700.574500       0.050714
      700.672600       0.052826
      700.770800       0.054924
      700.869100       0.056899
      700.967300       0.058818
      701.065600       0.060617
      701.163900       0.062353
      701.262300       0.064022
      701.360600       0.066332
      701.459000       0.068024
      701.557500       0.069747
      701.655900       0.071589
      701.754400       0.073523
      701.852900       0.075558
      701.951400       0.077682
      702.050000       0.079738
      702.148600       0.081782
      702.247200       0.083595
      702.345800       0.086026
      702.444500       0.087262
      702.543200       0.088124
      702.641900       0.088885
      702.740700       0.089507
      702.839500       0.090288
      702.938300       0.091308
      703.037100       0.092647
      703.136000       0.094519
      703.234900       0.096697
      703.333800       0.100510
      703.432800       0.103433
      703.531700       0.106664
      703.630700       0.109933
      703.729700       0.113287
      703.828800       0.116695
      703.927900       0.120236
      704.027000       0.123864
      704.126200       0.127730
      704.225300       0.131710
      704.324600       0.137511
      704.423800       0.141991
      704.523000       0.146834
      704.622300       0.151741
      704.721700       0.156873
      704.821000       0.162001
      704.920300       0.167109
      705.019700       0.172146
      705.119100       0.176906
      705.218600       0.181569
      705.318100       0.187859
      705.417600       0.192106
      705.517200       0.196086
      705.616700       0.200111
      705.716300       0.204368
      705.815900       0.208752
      705.915500       0.213814
      706.015300       0.219219
      706.115000       0.225623
      706.214700       0.232169
      706.314500       0.242137
      706.414200       0.249648
      706.514000       0.257634
      706.613900       0.265667
      706.713800       0.273935
      706.813700       0.282243
      706.913600       0.290764
      707.013500       0.299362
      707.113500       0.308378
      707.213600       0.317516
      707.313700       0.330958
      707.413700       0.341029
      707.513800       0.351768
      707.614000       0.362590
      707.714100       0.373839
      707.814300       0.385113
      707.914500       0.396468
      708.014800       0.407837
      708.115000       0.419224
      708.215300       0.430634
      708.315600       0.447038
      708.416000       0.458730
      708.516400       0.470700
      708.616800       0.482744
      708.717200       0.495106
      708.817700       0.507503
      708.918200       0.520038
      709.018700       0.532552
      709.119300       0.544930
      709.219800       0.557266
      709.320500       0.613289
      709.421100       0.621640
      709.521800       0.629833
      709.622500       0.637923
      709.723200       0.646149
      709.824000       0.654072
      709.924700       0.661306
      710.025600       0.668480
      710.126400       0.675939
      710.227300       0.683189
      710.328200       0.690754
      710.429100       0.705135
      710.530000       0.719317
      710.631000       0.733356
      710.732100       0.747051
      710.833100       0.760666
      710.934100       0.774104
      711.035300       0.787553
      711.136400       0.800995
      711.237500       0.814360
      711.338700       0.819124
      711.439900       0.831826
      711.541200       0.843894
      711.642500       0.855236
      711.743800       0.865562
      711.845100       0.875063
      711.946500       0.883529
      712.047900       0.891437
      712.149300       0.898713
      712.250700       0.905827
      712.352200       0.903260
      712.453700       0.910290
      712.555200       0.917425
      712.656800       0.924801
      712.758400       0.932372
      712.860000       0.940038
      712.961700       0.947775
      713.063300       0.955471
      713.165000       0.963149
      713.266700       0.970463
      713.368500       0.967176
      713.470300       0.973604
      713.572100       0.979739
      713.674000       0.984947
      713.775900       0.988712
      713.877700       0.991688
      713.979700       0.994410
      714.081700       0.996556
      714.183700       0.998549
      714.285700       1.000000
      714.387800       0.990395
      714.489900       0.991266
      714.591900       0.992060
      714.694200       0.992458
      714.796300       0.992813
      714.898500       0.992963
      715.000700       0.993097
      715.103000       0.993395
      715.205300       0.993694
      715.307600       0.994208
      715.410000       0.983779
      715.512300       0.984553
      715.614700       0.985313
      715.717200       0.986042
      715.819600       0.986669
      715.922100       0.986901
      716.024700       0.986921
      716.127200       0.986298
      716.229800       0.985328
      716.332400       0.983523
      716.435000       0.970479
      716.537700       0.967595
      716.640400       0.964309
      716.743200       0.960405
      716.845900       0.956205
      716.948700       0.951637
      717.051500       0.946960
      717.154300       0.942172
      717.257200       0.937387
      717.360100       0.932603
      717.463100       0.917780
      717.566000       0.913885
      717.669000       0.910787
      717.772000       0.907731
      717.875100       0.904642
      717.978100       0.901537
      718.081300       0.898176
      718.184400       0.894737
      718.287600       0.890647
      718.390800       0.886432
      718.494000       0.871616
      718.597300       0.866284
      718.700600       0.859406
      718.804000       0.852417
      718.907300       0.843969
      719.010600       0.835405
      719.114100       0.825897
      719.217500       0.816305
      719.320900       0.806355
      719.424500       0.796356
      719.528000       0.784980
      719.631500       0.773890
      719.735100       0.762582
      719.838700       0.751083
      719.942400       0.739260
      720.046100       0.727266
      720.149800       0.715050
      720.253500       0.702905
      720.357300       0.690818
      720.461100       0.678985
      720.564900       0.667303
      720.668800       0.655822
      720.772700       0.644445
      720.876600       0.632925
      720.980500       0.621355
      721.084500       0.609254
      721.188500       0.597040
      721.292500       0.584143
      721.396600       0.571209
      721.500700       0.557906
      721.604900       0.544616
      721.709000       0.531122
      721.813200       0.517663
      721.917400       0.504448
      722.021700       0.491342
      722.126000       0.478664
      722.230300       0.466144
      722.334600       0.454036
      722.439000       0.442111
      722.543300       0.430495
      722.647800       0.419064
      722.752200       0.407736
      722.856800       0.396539
      722.961200       0.385462
      723.065800       0.374548
      723.170300       0.363731
      723.275000       0.353121
      723.379600       0.342592
      723.484300       0.332434
      723.589000       0.322361
      723.693700       0.312951
      723.798500       0.303541
      723.903300       0.294879
      724.008100       0.286293
      724.112900       0.278479
      724.217900       0.270764
      724.322800       0.263543
      724.427700       0.256406
      724.532700       0.249506
      724.637700       0.242657
      724.742700       0.235973
      724.847800       0.229242
      724.952900       0.222543
      725.058000       0.215903
      725.163100       0.209310
      725.268400       0.202740
      725.373500       0.196138
      725.478800       0.189606
      725.584100       0.183098
      725.689400       0.176691
      725.794700       0.170381
      725.900100       0.164362
      726.005500       0.158402
      726.111000       0.153044
      726.216400       0.147821
      726.321900       0.143298
      726.427400       0.138973
      726.533000       0.135194
      726.638500       0.131593
      726.744200       0.128298
      726.849800       0.125226
      726.955500       0.122244
      727.061200       0.119319
      727.167000       0.116438
      727.272700       0.113501
      727.378500       0.110540
      727.484300       0.107414
      727.590200       0.104249
      727.696100       0.100867
      727.802100       0.097469
      727.908000       0.094095
      728.014000       0.090685
      728.120000       0.087475
      728.226000       0.084378
      728.332200       0.081621
      728.438200       0.079048
      728.544400       0.076803
      728.650500       0.074735
      728.756700       0.072860
      728.863000       0.071079
      728.969200       0.069420
      729.075600       0.067775
      729.181900       0.066184
      729.288200       0.064755
      729.394600       0.063358
      729.501000       0.062164
      729.607500       0.060987
      729.713900       0.059874
      729.820500       0.058719
      729.927000       0.057387
      730.033600       0.056339
      730.140200       0.054482
      730.246800       0.052465
      730.353500       0.050242
      730.460200       0.047972
      730.567000       0.045668
      730.673700       0.043513
      730.780500       0.041427
      730.887300       0.039638
      730.994100       0.037919
      731.101000       0.036646
      731.207900       0.035430
      731.314900       0.034561
      731.421900       0.033747
      731.528900       0.033147
      731.635900       0.032606
      731.743000       0.032182
      731.850200       0.031801
      731.957300       0.031468
      732.064500       0.031162
      732.171600       0.030867
      732.278900       0.030663
      732.386100       0.030490
      732.493400       0.030444
      732.600800       0.030419
      732.708100       0.030448
      732.815500       0.030458
      732.922900       0.030358
      733.030300       0.030181
      733.137800       0.029751
      733.245400       0.029087
      733.352900       0.028117
      733.460400       0.026881
      733.568100       0.025434
      733.675700       0.023849
      733.783400       0.022204
      733.891100       0.020614
      733.998800       0.019030
      734.106600       0.017754
      734.214400       0.016525
      734.322200       0.015592
      734.430100       0.014747
      734.538000       0.014115
      734.645900       0.013635
      734.753900       0.013361
      734.861900       0.013376
      734.969800       0.013607
      735.077900       0.014243
      735.186000       0.015036
      735.294100       0.016133
      735.402300       0.017261
      735.510400       0.018181
      735.618700       0.018994
      735.726900       0.019292
      735.835100       0.019373
      735.943500       0.018999
      736.051800       0.018511
      736.160200       0.017898
      736.268600       0.017440
      736.377000       0.017072
      736.485500       0.016957
      736.594000       0.016928
      736.702500       0.016845
      736.811100       0.016711
      736.919700       0.016147
      737.028300       0.015448
      737.137000       0.014366
      737.245700       0.013227
      737.354400       0.012011
      737.463100       0.011038
      737.572000       0.010229
      737.680700       0.009885
      737.789600       0.009698
      737.898400       0.009696
      738.007400       0.009693
      738.116300       0.009381
      738.225300       0.008941
      738.334400       0.008077
      738.443400       0.007139
      738.552400       0.006087
      738.661600       0.005238
      738.770700       0.004559
      738.879800       0.004323
      738.989100       0.004248
      739.098300       0.004599
      739.207600       0.005016
      739.316900       0.005660
      739.426200       0.006339
      739.535600       0.007130
      739.645000       0.007953
      739.754400       0.008809
      739.863900       0.009576
      739.973400       0.010271
      740.082900       0.010572
      740.192400       0.010747
      740.302000       0.010239
      740.411700       0.009623
      740.521400       0.008516
      740.631000       0.007421
      740.740700       0.006351
      740.850500       0.005407
      740.960300       0.005096
      741.070100       0.005391
      741.180000       0.006035
      741.289900       0.007185
      741.399800       0.008456
      741.509700       0.009597
      741.619700       0.010609
      741.729700       0.010999
      741.839800       0.011036
      741.949900       0.010433
      742.060000       0.009411
      742.170100       0.008078
      742.280300       0.006600
      742.390500       0.005069
      742.500700       0.003746
      742.611000       0.002501
      742.721400       0.001784
      742.831700       0.001256
      742.942100       0.001198
      743.052400       0.001406
      743.162900       0.001893
      743.273400       0.002505
      743.383900       0.003180
      743.494400       0.003787
      743.605000       0.004376
      743.715600       0.004861
      743.826200       0.005322
      743.936900       0.005708
      744.047700       0.006042
      744.158400       0.006341
      744.269200       0.006426
      744.379900       0.006403
      744.490800       0.006096
      744.601600       0.005725
      744.712500       0.005287
      744.823500       0.004888
      744.934400       0.004637
      745.045500       0.004481
      745.156500       0.004463
      745.267500       0.004477
      745.378700       0.004469
      745.489800       0.004290
      745.601000       0.004071
      745.712200       0.003799
      745.823400       0.003566
      745.934600       0.003483
      746.046000       0.003529
      746.157300       0.003755
      746.268700       0.004030
      746.380100       0.004363
      746.491500       0.004470
      746.603000       0.004521
      746.714400       0.004153
      746.826000       0.003721
      746.937600       0.003077
      747.049200       0.002476
      747.160800       0.001933
      747.272500       0.001633
      747.384200       0.001466
      747.495800       0.001641
      747.607600       0.001870
      747.719500       0.002234
      747.831300       0.002575
      747.943200       0.002859
      748.055100       0.003089
      748.167000       0.003261
      748.278900       0.003410
      748.390900       0.003549
      748.503000       0.003650
      748.615100       0.003746
      748.727200       0.003645
      748.839300       0.003413
      748.951500       0.002936
      749.063700       0.002283
      749.175900       0.001495
      749.288200       0.000645
