139,   139, MVIRI VIS channel from srf_MET7_2014348_2014349_1801-Release_S10EE_10.dat
Number of data points:
793
Wavenumber (cm-1)   Filter response
     8442.380800       0.000000
     8449.514200       0.000000
     8456.659600       0.000004
     8463.817200       0.000057
     8470.986900       0.000168
     8478.168700       0.000337
     8485.362700       0.000561
     8492.569000       0.000838
     8499.787500       0.001168
     8507.018300       0.001548
     8514.261400       0.001978
     8521.516800       0.002455
     8528.784600       0.002979
     8536.064900       0.003548
     8543.357500       0.004160
     8550.662700       0.004815
     8557.980300       0.005512
     8565.310500       0.006249
     8572.653200       0.007025
     8580.008600       0.007839
     8587.376600       0.008691
     8594.757200       0.009579
     8602.150500       0.010502
     8609.556600       0.011459
     8616.975400       0.012450
     8624.407100       0.013474
     8631.851500       0.014530
     8639.308900       0.015617
     8646.779100       0.016734
     8654.262200       0.017882
     8661.758300       0.019058
     8669.267400       0.020264
     8676.789600       0.021497
     8684.324800       0.022758
     8691.873100       0.024046
     8699.434500       0.025360
     8707.009100       0.026700
     8714.596900       0.028066
     8722.198000       0.029457
     8729.812300       0.030873
     8737.439900       0.032313
     8745.080900       0.033777
     8752.735200       0.035265
     8760.403000       0.036776
     8768.084200       0.038310
     8775.778900       0.039868
     8783.487000       0.041448
     8791.208800       0.043050
     8798.944100       0.044674
     8806.693100       0.046321
     8814.455700       0.047989
     8822.232000       0.049679
     8830.022100       0.051390
     8837.825900       0.053123
     8845.643500       0.054878
     8853.475000       0.056653
     8861.320300       0.058449
     8869.179600       0.060267
     8877.052800       0.062105
     8884.940000       0.063964
     8892.841300       0.065845
     8900.756600       0.067746
     8908.686000       0.069668
     8916.629500       0.071610
     8924.587200       0.073574
     8932.559200       0.075558
     8940.545400       0.077563
     8948.545900       0.079590
     8956.560700       0.081636
     8964.589900       0.083704
     8972.633500       0.085793
     8980.691500       0.087903
     8988.764000       0.090034
     8996.851100       0.092186
     9004.952700       0.094359
     9013.068900       0.096554
     9021.199800       0.098769
     9029.345400       0.101007
     9037.505600       0.103265
     9045.680700       0.105546
     9053.870500       0.107847
     9062.075200       0.110171
     9070.294800       0.112516
     9078.529300       0.114884
     9086.778700       0.117273
     9095.043200       0.119684
     9103.322700       0.122118
     9111.617300       0.124573
     9119.927000       0.127051
     9128.251900       0.129552
     9136.592100       0.132075
     9144.947400       0.134620
     9153.318100       0.137189
     9161.704100       0.139779
     9170.105500       0.142393
     9178.522300       0.145030
     9186.954500       0.147690
     9195.402300       0.150372
     9203.865600       0.153078
     9212.344500       0.155807
     9220.839100       0.158560
     9229.349300       0.161335
     9237.875300       0.164135
     9246.417000       0.166957
     9254.974500       0.169803
     9263.547900       0.172673
     9272.137200       0.175566
     9280.742500       0.178483
     9289.363700       0.181423
     9298.000900       0.184387
     9306.654300       0.187375
     9315.323700       0.190387
     9324.009300       0.193422
     9332.711200       0.196481
     9341.429200       0.199564
     9350.163600       0.202671
     9358.914400       0.205801
     9367.681500       0.208956
     9376.465100       0.212134
     9385.265100       0.215335
     9394.081700       0.218561
     9402.914900       0.221810
     9411.764700       0.225083
     9420.631200       0.228379
     9429.514400       0.231699
     9438.414300       0.235042
     9447.331100       0.238409
     9456.264800       0.241799
     9465.215300       0.245213
     9474.182900       0.248649
     9483.167400       0.252109
     9492.169000       0.255591
     9501.187600       0.259097
     9510.223500       0.262626
     9519.276500       0.266176
     9528.346800       0.269750
     9537.434400       0.273346
     9546.539400       0.276964
     9555.661700       0.280605
     9564.801500       0.284267
     9573.958800       0.287952
     9583.133700       0.291658
     9592.326100       0.295385
     9601.536200       0.299134
     9610.764100       0.302904
     9620.009600       0.306696
     9629.273000       0.310508
     9638.554200       0.314340
     9647.853400       0.318193
     9657.170400       0.322066
     9666.505600       0.325959
     9675.858700       0.329872
     9685.230000       0.333804
     9694.619500       0.337756
     9704.027200       0.341727
     9713.453100       0.345716
     9722.897400       0.349725
     9732.360100       0.353751
     9741.841200       0.357795
     9751.340800       0.361857
     9760.859000       0.365936
     9770.395700       0.370033
     9779.951100       0.374146
     9789.525200       0.378276
     9799.118100       0.382423
     9808.729800       0.386585
     9818.360300       0.390763
     9828.009800       0.394956
     9837.678300       0.399164
     9847.365800       0.403387
     9857.072400       0.407624
     9866.798200       0.411876
     9876.543200       0.416140
     9886.307500       0.420419
     9896.091000       0.424710
     9905.894000       0.429013
     9915.716400       0.433329
     9925.558300       0.437657
     9935.419800       0.441996
     9945.300800       0.446347
     9955.201600       0.450707
     9965.122100       0.455079
     9975.062300       0.459460
     9985.022500       0.463851
     9995.002500       0.468251
    10005.002500       0.472659
    10015.022500       0.477076
    10025.062700       0.481501
    10035.122900       0.485933
    10045.203400       0.490372
    10055.304200       0.494818
    10065.425300       0.499270
    10075.566800       0.503728
    10085.728700       0.508191
    10095.911200       0.512660
    10106.114200       0.517132
    10116.337900       0.521609
    10126.582300       0.526089
    10136.847400       0.530572
    10147.133400       0.535059
    10157.440300       0.539547
    10167.768200       0.544037
    10178.117000       0.548528
    10188.487000       0.553020
    10198.878100       0.557513
    10209.290500       0.562005
    10219.724100       0.566497
    10230.179000       0.570988
    10240.655400       0.575478
    10251.153300       0.579966
    10261.672700       0.584451
    10272.213700       0.588933
    10282.776300       0.593412
    10293.360800       0.597887
    10303.967000       0.602358
    10314.595200       0.606824
    10325.245200       0.611285
    10335.917300       0.615740
    10346.611500       0.620189
    10357.327800       0.624631
    10368.066400       0.629066
    10378.827200       0.633493
    10389.610400       0.637912
    10400.416000       0.642323
    10411.244100       0.646725
    10422.094800       0.651116
    10432.968200       0.655498
    10443.864200       0.659870
    10454.783100       0.664231
    10465.724800       0.668580
    10476.689400       0.672917
    10487.677000       0.677242
    10498.687700       0.681553
    10509.721500       0.685852
    10520.778500       0.690136
    10531.858900       0.694407
    10542.962600       0.698663
    10554.089700       0.702903
    10565.240400       0.707128
    10576.414600       0.711336
    10587.612500       0.715528
    10598.834100       0.719704
    10610.079600       0.723861
    10621.348900       0.728001
    10632.642200       0.732122
    10643.959600       0.736224
    10655.301000       0.740307
    10666.666700       0.744371
    10678.056600       0.748414
    10689.470900       0.752436
    10700.909600       0.756438
    10712.372800       0.760418
    10723.860600       0.764376
    10735.373100       0.768311
    10746.910300       0.772225
    10758.472300       0.776114
    10770.059200       0.779981
    10781.671200       0.783823
    10793.308100       0.787641
    10804.970300       0.791434
    10816.657700       0.795202
    10828.370300       0.798944
    10840.108400       0.802661
    10851.871900       0.806351
    10863.661100       0.810014
    10875.475800       0.813650
    10887.316300       0.817259
    10899.182600       0.820839
    10911.074700       0.824392
    10922.992900       0.827916
    10934.937100       0.831411
    10946.907500       0.834877
    10958.904100       0.838313
    10970.927000       0.841719
    10982.976400       0.845095
    10995.052200       0.848440
    11007.154700       0.851754
    11019.283700       0.855037
    11031.439600       0.858288
    11043.622300       0.861508
    11055.832000       0.864695
    11068.068600       0.867849
    11080.332400       0.870971
    11092.623400       0.874060
    11104.941700       0.877116
    11117.287400       0.880137
    11129.660500       0.883125
    11142.061300       0.886079
    11154.489700       0.888998
    11166.945800       0.891882
    11179.429800       0.894732
    11191.941800       0.897546
    11204.481800       0.900325
    11217.049900       0.903068
    11229.646300       0.905775
    11242.270900       0.908447
    11254.924000       0.911082
    11267.605600       0.913680
    11280.315800       0.916242
    11293.054800       0.918767
    11305.822500       0.921255
    11318.619100       0.923705
    11331.444800       0.926118
    11344.299500       0.928494
    11357.183400       0.930831
    11370.096600       0.933131
    11383.039300       0.935393
    11396.011400       0.937617
    11409.013100       0.939802
    11422.044500       0.941949
    11435.105800       0.944057
    11448.196900       0.946127
    11461.318100       0.948157
    11474.469300       0.950149
    11487.650800       0.952102
    11500.862600       0.954016
    11514.104800       0.955891
    11527.377500       0.957726
    11540.680900       0.959523
    11554.015000       0.961279
    11567.380000       0.962997
    11580.775900       0.964675
    11594.202900       0.966314
    11607.661100       0.967913
    11621.150500       0.969472
    11634.671300       0.970992
    11648.223600       0.972473
    11661.807600       0.973913
    11675.423200       0.975315
    11689.070700       0.976677
    11702.750100       0.977999
    11716.461600       0.979282
    11730.205300       0.980525
    11743.981200       0.981729
    11757.789500       0.982893
    11771.630400       0.984018
    11785.503800       0.985104
    11799.410000       0.986151
    11813.349100       0.987158
    11827.321100       0.988126
    11841.326200       0.989056
    11855.364600       0.989946
    11869.436200       0.990798
    11883.541300       0.991611
    11897.680000       0.992385
    11911.852300       0.993121
    11926.058400       0.993819
    11940.298500       0.994478
    11954.572600       0.995100
    11968.880900       0.995683
    11983.223500       0.996229
    11997.600500       0.996737
    12012.012000       0.997207
    12026.458200       0.997640
    12040.939200       0.998036
    12055.455100       0.998396
    12070.006000       0.998718
    12084.592100       0.999004
    12099.213600       0.999253
    12113.870400       0.999467
    12128.562800       0.999644
    12143.290800       0.999786
    12158.054700       0.999892
    12172.854500       0.999963
    12187.690400       0.999999
    12202.562500       1.000000
    12217.471000       0.999967
    12232.415900       0.999899
    12247.397400       0.999797
    12262.415700       0.999662
    12277.470800       0.999493
    12292.563000       0.999290
    12307.692300       0.999055
    12322.858900       0.998787
    12338.062900       0.998487
    12353.304500       0.998155
    12368.583800       0.997791
    12383.900900       0.997395
    12399.256000       0.996969
    12414.649300       0.996511
    12430.080800       0.996023
    12445.550700       0.995505
    12461.059200       0.994957
    12476.606400       0.994379
    12492.192400       0.993772
    12507.817400       0.993136
    12523.481500       0.992472
    12539.185000       0.991780
    12554.927800       0.991060
    12570.710200       0.990312
    12586.532400       0.989538
    12602.394500       0.988736
    12618.296500       0.987909
    12634.238800       0.987055
    12650.221400       0.986176
    12666.244500       0.985271
    12682.308200       0.984342
    12698.412700       0.983389
    12714.558200       0.982411
    12730.744700       0.981410
    12746.972600       0.980385
    12763.241900       0.979338
    12779.552700       0.978268
    12795.905300       0.977177
    12812.299800       0.976063
    12828.736400       0.974929
    12845.215200       0.973774
    12861.736300       0.972598
    12878.300100       0.971403
    12894.906500       0.970188
    12911.555800       0.968954
    12928.248200       0.967701
    12944.983800       0.966430
    12961.762800       0.965142
    12978.585300       0.963836
    12995.451600       0.962513
    13012.361700       0.961174
    13029.316000       0.959818
    13046.314400       0.958448
    13063.357300       0.957062
    13080.444700       0.955661
    13097.576900       0.954246
    13114.754100       0.952818
    13131.976400       0.951376
    13149.243900       0.949921
    13166.556900       0.948453
    13183.915600       0.946974
    13201.320100       0.945483
    13218.770700       0.943981
    13236.267400       0.942469
    13253.810500       0.940946
    13271.400100       0.939414
    13289.036500       0.937872
    13306.719900       0.936321
    13324.450400       0.934763
    13342.228200       0.933196
    13360.053400       0.931621
    13377.926400       0.930040
    13395.847300       0.928452
    13413.816200       0.926858
    13431.833400       0.925259
    13449.899100       0.923654
    13468.013500       0.922044
    13486.176700       0.920430
    13504.388900       0.918812
    13522.650400       0.917191
    13540.961400       0.915567
    13559.322000       0.913940
    13577.732500       0.912311
    13596.193100       0.910681
    13614.703900       0.909049
    13633.265200       0.907417
    13651.877100       0.905784
    13670.540000       0.904151
    13689.253900       0.902518
    13708.019200       0.900887
    13726.836000       0.899257
    13745.704500       0.897628
    13764.624900       0.896002
    13783.597500       0.894378
    13802.622500       0.892758
    13821.700100       0.891140
    13840.830400       0.889527
    13860.013900       0.887918
    13879.250500       0.886313
    13898.540700       0.884713
    13917.884500       0.883119
    13937.282200       0.881531
    13956.734100       0.879948
    13976.240400       0.878373
    13995.801300       0.876804
    14015.417000       0.875242
    14035.087700       0.873688
    14054.813800       0.872142
    14074.595400       0.870605
    14094.432700       0.869076
    14114.326000       0.867557
    14134.275600       0.866046
    14154.281700       0.864546
    14174.344400       0.863055
    14194.464200       0.861575
    14214.641100       0.860106
    14234.875400       0.858648
    14255.167500       0.857201
    14275.517500       0.855766
    14295.925700       0.854343
    14316.392300       0.852933
    14336.917600       0.851535
    14357.501800       0.850149
    14378.145200       0.848777
    14398.848100       0.847419
    14419.610700       0.846074
    14440.433200       0.844743
    14461.316000       0.843426
    14482.259200       0.842124
    14503.263200       0.840836
    14524.328200       0.839564
    14545.454500       0.838307
    14566.642400       0.837065
    14587.892000       0.835838
    14609.203800       0.834628
    14630.577900       0.833434
    14652.014700       0.832255
    14673.514300       0.831094
    14695.077100       0.829949
    14716.703500       0.828820
    14738.393500       0.827709
    14760.147600       0.826615
    14781.966000       0.825538
    14803.849000       0.824479
    14825.796900       0.823437
    14847.809900       0.822413
    14869.888500       0.821406
    14892.032800       0.820418
    14914.243100       0.819448
    14936.519800       0.818495
    14958.863100       0.817561
    14981.273400       0.816646
    15003.750900       0.815749
    15026.296000       0.814870
    15048.909000       0.814010
    15071.590100       0.813168
    15094.339600       0.812345
    15117.158000       0.811541
    15140.045400       0.810756
    15163.002300       0.809989
    15186.028900       0.809241
    15209.125500       0.808511
    15232.292500       0.807801
    15255.530100       0.807109
    15278.838800       0.806435
    15302.218800       0.805781
    15325.670500       0.805145
    15349.194200       0.804527
    15372.790200       0.803928
    15396.458800       0.803348
    15420.200500       0.802786
    15444.015400       0.802242
    15467.904100       0.801716
    15491.866800       0.801209
    15515.903800       0.800719
    15540.015500       0.800248
    15564.202300       0.799794
    15588.464500       0.799357
    15612.802500       0.798938
    15637.216600       0.798537
    15661.707100       0.798152
    15686.274500       0.797785
    15710.919100       0.797434
    15735.641200       0.797099
    15760.441300       0.796782
    15785.319700       0.796480
    15810.276700       0.796194
    15835.312700       0.795924
    15860.428200       0.795669
    15885.623500       0.795430
    15910.899000       0.795206
    15936.255000       0.794996
    15961.691900       0.794801
    15987.210200       0.794620
    16012.810200       0.794452
    16038.492400       0.794299
    16064.257000       0.794158
    16090.104600       0.794031
    16116.035500       0.793916
    16142.050000       0.793813
    16168.148700       0.793723
    16194.332000       0.793644
    16220.600200       0.793576
    16246.953700       0.793519
    16273.393000       0.793472
    16299.918500       0.793436
    16326.530600       0.793409
    16353.229800       0.793391
    16380.016400       0.793382
    16406.890900       0.793382
    16433.853700       0.793390
    16460.905300       0.793405
    16488.046200       0.793428
    16515.276600       0.793457
    16542.597200       0.793492
    16570.008300       0.793533
    16597.510400       0.793579
    16625.103900       0.793630
    16652.789300       0.793686
    16680.567100       0.793745
    16708.437800       0.793807
    16736.401700       0.793872
    16764.459300       0.793939
    16792.611300       0.794008
    16820.857900       0.794078
    16849.199700       0.794149
    16877.637100       0.794220
    16906.170800       0.794290
    16934.801000       0.794359
    16963.528400       0.794426
    16992.353400       0.794491
    17021.276600       0.794554
    17050.298400       0.794613
    17079.419300       0.794667
    17108.639900       0.794717
    17137.960600       0.794762
    17167.382000       0.794801
    17196.904600       0.794834
    17226.528900       0.794859
    17256.255400       0.794876
    17286.084700       0.794885
    17316.017300       0.794885
    17346.053800       0.794876
    17376.194600       0.794855
    17406.440400       0.794824
    17436.791600       0.794781
    17467.248900       0.794726
    17497.812800       0.794657
    17528.483800       0.794575
    17559.262500       0.794478
    17590.149500       0.794367
    17621.145400       0.794239
    17652.250700       0.794095
    17683.466000       0.793933
    17714.791900       0.793753
    17746.228900       0.793555
    17777.777800       0.793338
    17809.439000       0.793100
    17841.213200       0.792842
    17873.101000       0.792562
    17905.103000       0.792259
    17937.219700       0.791934
    17969.451900       0.791585
    18001.800200       0.791212
    18034.265100       0.790813
    18066.847300       0.790389
    18099.547500       0.789937
    18132.366300       0.789459
    18165.304300       0.788952
    18198.362100       0.788417
    18231.540600       0.787852
    18264.840200       0.787256
    18298.261700       0.786630
    18331.805700       0.785972
    18365.472900       0.785281
    18399.264000       0.784557
    18433.179700       0.783799
    18467.220700       0.783006
    18501.387600       0.782178
    18535.681200       0.781314
    18570.102100       0.780413
    18604.651200       0.779474
    18639.329000       0.778497
    18674.136300       0.777481
    18709.073900       0.776425
    18744.142500       0.775328
    18779.342700       0.774191
    18814.675400       0.773011
    18850.141400       0.771789
    18885.741300       0.770524
    18921.475900       0.769214
    18957.346000       0.767860
    18993.352300       0.766461
    19029.495700       0.765015
    19065.776900       0.763523
    19102.196800       0.761984
    19138.756000       0.760397
    19175.455400       0.758761
    19212.295900       0.757075
    19249.278200       0.755340
    19286.403100       0.753554
    19323.671500       0.751718
    19361.084200       0.749829
    19398.642100       0.747888
    19436.346000       0.745894
    19474.196700       0.743847
    19512.195100       0.741745
    19550.342100       0.739589
    19588.638600       0.737378
    19627.085400       0.735110
    19665.683400       0.732787
    19704.433500       0.730407
    19743.336600       0.727969
    19782.393700       0.725474
    19821.605600       0.722920
    19860.973200       0.720308
    19900.497500       0.717636
    19940.179500       0.714905
    19980.020000       0.712114
    20020.020000       0.709262
    20060.180500       0.706349
    20100.502500       0.703375
    20140.986900       0.700339
    20181.634700       0.697242
    20222.446900       0.694082
    20263.424500       0.690859
    20304.568500       0.687574
    20345.880000       0.684225
    20387.359800       0.680813
    20429.009200       0.677337
    20470.829100       0.673797
    20512.820500       0.670193
    20554.984600       0.666524
    20597.322300       0.662791
    20639.834900       0.658993
    20682.523300       0.655131
    20725.388600       0.651203
    20768.432000       0.647210
    20811.654500       0.643153
    20855.057400       0.639030
    20898.641600       0.634842
    20942.408400       0.630588
    20986.358900       0.626270
    21030.494200       0.621886
    21074.815600       0.617437
    21119.324200       0.612924
    21164.021200       0.608345
    21208.907700       0.603702
    21253.985100       0.598995
    21299.254500       0.594223
    21344.717200       0.589387
    21390.374300       0.584487
    21436.227200       0.579524
    21482.277100       0.574497
    21528.525300       0.569408
    21574.973000       0.564256
    21621.621600       0.559042
    21668.472400       0.553766
    21715.526600       0.548429
    21762.785600       0.543032
    21810.250800       0.537574
    21857.923500       0.532056
    21905.805000       0.526480
    21953.896800       0.520845
    22002.200200       0.515152
    22050.716600       0.509402
    22099.447500       0.503595
    22148.394200       0.497734
    22197.558300       0.491817
    22246.941000       0.485846
    22296.544000       0.479822
    22346.368700       0.473746
    22396.416600       0.467619
    22446.689100       0.461441
    22497.187900       0.455214
    22547.914300       0.448939
    22598.870100       0.442617
    22650.056600       0.436249
    22701.475600       0.429836
    22753.128600       0.423379
    22805.017100       0.416880
    22857.142900       0.410341
    22909.507400       0.403761
    22962.112500       0.397143
    23014.959700       0.390488
    23068.050700       0.383798
    23121.387300       0.377074
    23174.971000       0.370318
    23228.803700       0.363531
    23282.887100       0.356716
    23337.222900       0.349872
    23391.812900       0.343004
    23446.658900       0.336111
    23501.762600       0.329197
    23557.126000       0.322262
    23612.750900       0.315310
    23668.639100       0.308342
    23724.792400       0.301359
    23781.212800       0.294365
    23837.902300       0.287360
    23894.862600       0.280349
    23952.095800       0.273332
    24009.603800       0.266312
    24067.388700       0.259291
    24125.452400       0.252273
    24183.796900       0.245258
    24242.424200       0.238251
    24301.336600       0.231252
    24360.535900       0.224266
    24420.024400       0.217295
    24479.804200       0.210341
    24539.877300       0.203407
    24600.246000       0.196497
    24660.912500       0.189612
    24721.878900       0.182757
    24783.147500       0.175934
    24844.720500       0.169146
    24906.600200       0.162397
    24968.789000       0.155689
    25031.289100       0.149026
    25094.102900       0.142412
    25157.232700       0.135850
    25220.681000       0.129342
    25284.450100       0.122894
    25348.542500       0.116508
    25412.960600       0.110188
    25477.707000       0.103938
