9,   9, MVIRI VIS channel from srf_MET5_1992123_1992124_1801-Release_S10EL_10.dat
Number of data points:
806
Wavenumber (cm-1)   Filter response
     8350.730700       0.000000
     8357.710000       0.000000
     8364.701000       0.000000
     8371.703600       0.000001
     8378.718100       0.000004
     8385.744200       0.000009
     8392.782200       0.000016
     8399.832000       0.000026
     8406.893700       0.000040
     8413.967200       0.000058
     8421.052600       0.000080
     8428.150000       0.000107
     8435.259400       0.000140
     8442.380800       0.000179
     8449.514200       0.000224
     8456.659600       0.000275
     8463.817200       0.000334
     8470.986900       0.000399
     8478.168700       0.000473
     8485.362700       0.000555
     8492.569000       0.000645
     8499.787500       0.000744
     8507.018300       0.000852
     8514.261400       0.000969
     8521.516800       0.001096
     8528.784600       0.001233
     8536.064900       0.001380
     8543.357500       0.001538
     8550.662700       0.001706
     8557.980300       0.001886
     8565.310500       0.002076
     8572.653200       0.002278
     8580.008600       0.002492
     8587.376600       0.002718
     8594.757200       0.002955
     8602.150500       0.003205
     8609.556600       0.003468
     8616.975400       0.003743
     8624.407100       0.004031
     8631.851500       0.004332
     8639.308900       0.004646
     8646.779100       0.004974
     8654.262200       0.005316
     8661.758300       0.005671
     8669.267400       0.006040
     8676.789600       0.006423
     8684.324800       0.006820
     8691.873100       0.007232
     8699.434500       0.007658
     8707.009100       0.008099
     8714.596900       0.008555
     8722.198000       0.009026
     8729.812300       0.009512
     8737.439900       0.010013
     8745.080900       0.010529
     8752.735200       0.011061
     8760.403000       0.011608
     8768.084200       0.012171
     8775.778900       0.012750
     8783.487000       0.013345
     8791.208800       0.013956
     8798.944100       0.014584
     8806.693100       0.015227
     8814.455700       0.015887
     8822.232000       0.016564
     8830.022100       0.017257
     8837.825900       0.017967
     8845.643500       0.018694
     8853.475000       0.019438
     8861.320300       0.020199
     8869.179600       0.020977
     8877.052800       0.021773
     8884.940000       0.022586
     8892.841300       0.023417
     8900.756600       0.024265
     8908.686000       0.025131
     8916.629500       0.026015
     8924.587200       0.026917
     8932.559200       0.027837
     8940.545400       0.028775
     8948.545900       0.029731
     8956.560700       0.030706
     8964.589900       0.031699
     8972.633500       0.032711
     8980.691500       0.033741
     8988.764000       0.034791
     8996.851100       0.035859
     9004.952700       0.036946
     9013.068900       0.038053
     9021.199800       0.039178
     9029.345400       0.040323
     9037.505600       0.041487
     9045.680700       0.042671
     9053.870500       0.043874
     9062.075200       0.045097
     9070.294800       0.046340
     9078.529300       0.047603
     9086.778700       0.048886
     9095.043200       0.050189
     9103.322700       0.051512
     9111.617300       0.052855
     9119.927000       0.054219
     9128.251900       0.055603
     9136.592100       0.057008
     9144.947400       0.058433
     9153.318100       0.059880
     9161.704100       0.061346
     9170.105500       0.062835
     9178.522300       0.064344
     9186.954500       0.065874
     9195.402300       0.067425
     9203.865600       0.068998
     9212.344500       0.070592
     9220.839100       0.072208
     9229.349300       0.073845
     9237.875300       0.075503
     9246.417000       0.077184
     9254.974500       0.078886
     9263.547900       0.080610
     9272.137200       0.082356
     9280.742500       0.084125
     9289.363700       0.085915
     9298.000900       0.087727
     9306.654300       0.089562
     9315.323700       0.091419
     9324.009300       0.093299
     9332.711200       0.095200
     9341.429200       0.097125
     9350.163600       0.099072
     9358.914400       0.101042
     9367.681500       0.103034
     9376.465100       0.105049
     9385.265100       0.107087
     9394.081700       0.109148
     9402.914900       0.111232
     9411.764700       0.113339
     9420.631200       0.115469
     9429.514400       0.117622
     9438.414300       0.119798
     9447.331100       0.121997
     9456.264800       0.124219
     9465.215300       0.126465
     9474.182900       0.128734
     9483.167400       0.131026
     9492.169000       0.133342
     9501.187600       0.135681
     9510.223500       0.138043
     9519.276500       0.140428
     9528.346800       0.142837
     9537.434400       0.145270
     9546.539400       0.147726
     9555.661700       0.150205
     9564.801500       0.152707
     9573.958800       0.155234
     9583.133700       0.157783
     9592.326100       0.160356
     9601.536200       0.162953
     9610.764100       0.165572
     9620.009600       0.168215
     9629.273000       0.170882
     9638.554200       0.173572
     9647.853400       0.176285
     9657.170400       0.179021
     9666.505600       0.181781
     9675.858700       0.184564
     9685.230000       0.187370
     9694.619500       0.190199
     9704.027200       0.193051
     9713.453100       0.195927
     9722.897400       0.198825
     9732.360100       0.201746
     9741.841200       0.204690
     9751.340800       0.207657
     9760.859000       0.210646
     9770.395700       0.213659
     9779.951100       0.216693
     9789.525200       0.219750
     9799.118100       0.222830
     9808.729800       0.225932
     9818.360300       0.229056
     9828.009800       0.232202
     9837.678300       0.235370
     9847.365800       0.238561
     9857.072400       0.241772
     9866.798200       0.245006
     9876.543200       0.248261
     9886.307500       0.251537
     9896.091000       0.254835
     9905.894000       0.258154
     9915.716400       0.261494
     9925.558300       0.264855
     9935.419800       0.268237
     9945.300800       0.271639
     9955.201600       0.275061
     9965.122100       0.278505
     9975.062300       0.281968
     9985.022500       0.285451
     9995.002500       0.288954
    10005.002500       0.292476
    10015.022500       0.296018
    10025.062700       0.299580
    10035.122900       0.303160
    10045.203400       0.306759
    10055.304200       0.310377
    10065.425300       0.314014
    10075.566800       0.317668
    10085.728700       0.321341
    10095.911200       0.325032
    10106.114200       0.328740
    10116.337900       0.332466
    10126.582300       0.336209
    10136.847400       0.339969
    10147.133400       0.343746
    10157.440300       0.347540
    10167.768200       0.351349
    10178.117000       0.355175
    10188.487000       0.359016
    10198.878100       0.362874
    10209.290500       0.366746
    10219.724100       0.370634
    10230.179000       0.374536
    10240.655400       0.378453
    10251.153300       0.382384
    10261.672700       0.386329
    10272.213700       0.390288
    10282.776300       0.394260
    10293.360800       0.398246
    10303.967000       0.402244
    10314.595200       0.406255
    10325.245200       0.410278
    10335.917300       0.414313
    10346.611500       0.418360
    10357.327800       0.422418
    10368.066400       0.426487
    10378.827200       0.430567
    10389.610400       0.434658
    10400.416000       0.438758
    10411.244100       0.442868
    10422.094800       0.446988
    10432.968200       0.451117
    10443.864200       0.455255
    10454.783100       0.459401
    10465.724800       0.463556
    10476.689400       0.467718
    10487.677000       0.471888
    10498.687700       0.476065
    10509.721500       0.480249
    10520.778500       0.484439
    10531.858900       0.488635
    10542.962600       0.492837
    10554.089700       0.497045
    10565.240400       0.501257
    10576.414600       0.505474
    10587.612500       0.509696
    10598.834100       0.513921
    10610.079600       0.518150
    10621.348900       0.522382
    10632.642200       0.526617
    10643.959600       0.530855
    10655.301000       0.535094
    10666.666700       0.539336
    10678.056600       0.543578
    10689.470900       0.547822
    10700.909600       0.552066
    10712.372800       0.556310
    10723.860600       0.560554
    10735.373100       0.564798
    10746.910300       0.569041
    10758.472300       0.573282
    10770.059200       0.577521
    10781.671200       0.581759
    10793.308100       0.585994
    10804.970300       0.590226
    10816.657700       0.594454
    10828.370300       0.598679
    10840.108400       0.602900
    10851.871900       0.607116
    10863.661100       0.611328
    10875.475800       0.615534
    10887.316300       0.619735
    10899.182600       0.623929
    10911.074700       0.628117
    10922.992900       0.632298
    10934.937100       0.636472
    10946.907500       0.640638
    10958.904100       0.644796
    10970.927000       0.648946
    10982.976400       0.653086
    10995.052200       0.657218
    11007.154700       0.661340
    11019.283700       0.665451
    11031.439600       0.669553
    11043.622300       0.673644
    11055.832000       0.677723
    11068.068600       0.681790
    11080.332400       0.685846
    11092.623400       0.689889
    11104.941700       0.693920
    11117.287400       0.697937
    11129.660500       0.701941
    11142.061300       0.705931
    11154.489700       0.709906
    11166.945800       0.713866
    11179.429800       0.717812
    11191.941800       0.721742
    11204.481800       0.725656
    11217.049900       0.729554
    11229.646300       0.733435
    11242.270900       0.737299
    11254.924000       0.741147
    11267.605600       0.744976
    11280.315800       0.748787
    11293.054800       0.752579
    11305.822500       0.756353
    11318.619100       0.760107
    11331.444800       0.763842
    11344.299500       0.767557
    11357.183400       0.771252
    11370.096600       0.774926
    11383.039300       0.778579
    11396.011400       0.782211
    11409.013100       0.785821
    11422.044500       0.789409
    11435.105800       0.792975
    11448.196900       0.796518
    11461.318100       0.800038
    11474.469300       0.803534
    11487.650800       0.807007
    11500.862600       0.810457
    11514.104800       0.813881
    11527.377500       0.817281
    11540.680900       0.820657
    11554.015000       0.824007
    11567.380000       0.827331
    11580.775900       0.830630
    11594.202900       0.833902
    11607.661100       0.837148
    11621.150500       0.840368
    11634.671300       0.843560
    11648.223600       0.846725
    11661.807600       0.849863
    11675.423200       0.852972
    11689.070700       0.856054
    11702.750100       0.859107
    11716.461600       0.862132
    11730.205300       0.865128
    11743.981200       0.868095
    11757.789500       0.871032
    11771.630400       0.873939
    11785.503800       0.876817
    11799.410000       0.879665
    11813.349100       0.882483
    11827.321100       0.885270
    11841.326200       0.888026
    11855.364600       0.890751
    11869.436200       0.893446
    11883.541300       0.896109
    11897.680000       0.898740
    11911.852300       0.901339
    11926.058400       0.903907
    11940.298500       0.906443
    11954.572600       0.908946
    11968.880900       0.911417
    11983.223500       0.913855
    11997.600500       0.916260
    12012.012000       0.918633
    12026.458200       0.920972
    12040.939200       0.923278
    12055.455100       0.925551
    12070.006000       0.927791
    12084.592100       0.929996
    12099.213600       0.932168
    12113.870400       0.934307
    12128.562800       0.936411
    12143.290800       0.938481
    12158.054700       0.940517
    12172.854500       0.942519
    12187.690400       0.944486
    12202.562500       0.946419
    12217.471000       0.948317
    12232.415900       0.950181
    12247.397400       0.952011
    12262.415700       0.953805
    12277.470800       0.955565
    12292.563000       0.957290
    12307.692300       0.958980
    12322.858900       0.960636
    12338.062900       0.962256
    12353.304500       0.963842
    12368.583800       0.965392
    12383.900900       0.966908
    12399.256000       0.968389
    12414.649300       0.969835
    12430.080800       0.971246
    12445.550700       0.972622
    12461.059200       0.973963
    12476.606400       0.975270
    12492.192400       0.976541
    12507.817400       0.977778
    12523.481500       0.978980
    12539.185000       0.980147
    12554.927800       0.981280
    12570.710200       0.982378
    12586.532400       0.983442
    12602.394500       0.984471
    12618.296500       0.985466
    12634.238800       0.986427
    12650.221400       0.987353
    12666.244500       0.988246
    12682.308200       0.989104
    12698.412700       0.989929
    12714.558200       0.990720
    12730.744700       0.991477
    12746.972600       0.992201
    12763.241900       0.992892
    12779.552700       0.993549
    12795.905300       0.994174
    12812.299800       0.994765
    12828.736400       0.995324
    12845.215200       0.995850
    12861.736300       0.996344
    12878.300100       0.996805
    12894.906500       0.997235
    12911.555800       0.997633
    12928.248200       0.997999
    12944.983800       0.998333
    12961.762800       0.998637
    12978.585300       0.998909
    12995.451600       0.999150
    13012.361700       0.999361
    13029.316000       0.999542
    13046.314400       0.999692
    13063.357300       0.999813
    13080.444700       0.999903
    13097.576900       0.999965
    13114.754100       0.999997
    13131.976400       1.000000
    13149.243900       0.999975
    13166.556900       0.999921
    13183.915600       0.999839
    13201.320100       0.999729
    13218.770700       0.999592
    13236.267400       0.999427
    13253.810500       0.999235
    13271.400100       0.999017
    13289.036500       0.998772
    13306.719900       0.998501
    13324.450400       0.998205
    13342.228200       0.997883
    13360.053400       0.997536
    13377.926400       0.997163
    13395.847300       0.996767
    13413.816200       0.996346
    13431.833400       0.995901
    13449.899100       0.995433
    13468.013500       0.994942
    13486.176700       0.994428
    13504.388900       0.993891
    13522.650400       0.993333
    13540.961400       0.992752
    13559.322000       0.992150
    13577.732500       0.991527
    13596.193100       0.990884
    13614.703900       0.990220
    13633.265200       0.989536
    13651.877100       0.988832
    13670.540000       0.988110
    13689.253900       0.987368
    13708.019200       0.986608
    13726.836000       0.985830
    13745.704500       0.985035
    13764.624900       0.984222
    13783.597500       0.983392
    13802.622500       0.982546
    13821.700100       0.981684
    13840.830400       0.980806
    13860.013900       0.979912
    13879.250500       0.979004
    13898.540700       0.978081
    13917.884500       0.977145
    13937.282200       0.976194
    13956.734100       0.975231
    13976.240400       0.974254
    13995.801300       0.973265
    14015.417000       0.972265
    14035.087700       0.971252
    14054.813800       0.970228
    14074.595400       0.969194
    14094.432700       0.968149
    14114.326000       0.967094
    14134.275600       0.966030
    14154.281700       0.964957
    14174.344400       0.963875
    14194.464200       0.962784
    14214.641100       0.961686
    14234.875400       0.960580
    14255.167500       0.959468
    14275.517500       0.958349
    14295.925700       0.957223
    14316.392300       0.956092
    14336.917600       0.954956
    14357.501800       0.953814
    14378.145200       0.952668
    14398.848100       0.951518
    14419.610700       0.950365
    14440.433200       0.949208
    14461.316000       0.948048
    14482.259200       0.946886
    14503.263200       0.945721
    14524.328200       0.944555
    14545.454500       0.943388
    14566.642400       0.942220
    14587.892000       0.941052
    14609.203800       0.939883
    14630.577900       0.938715
    14652.014700       0.937548
    14673.514300       0.936382
    14695.077100       0.935217
    14716.703500       0.934054
    14738.393500       0.932894
    14760.147600       0.931736
    14781.966000       0.930581
    14803.849000       0.929430
    14825.796900       0.928282
    14847.809900       0.927139
    14869.888500       0.926000
    14892.032800       0.924866
    14914.243100       0.923737
    14936.519800       0.922614
    14958.863100       0.921497
    14981.273400       0.920386
    15003.750900       0.919282
    15026.296000       0.918184
    15048.909000       0.917094
    15071.590100       0.916012
    15094.339600       0.914937
    15117.158000       0.913871
    15140.045400       0.912813
    15163.002300       0.911764
    15186.028900       0.910724
    15209.125500       0.909693
    15232.292500       0.908672
    15255.530100       0.907662
    15278.838800       0.906661
    15302.218800       0.905671
    15325.670500       0.904692
    15349.194200       0.903724
    15372.790200       0.902767
    15396.458800       0.901822
    15420.200500       0.900889
    15444.015400       0.899967
    15467.904100       0.899058
    15491.866800       0.898161
    15515.903800       0.897277
    15540.015500       0.896406
    15564.202300       0.895548
    15588.464500       0.894703
    15612.802500       0.893872
    15637.216600       0.893054
    15661.707100       0.892251
    15686.274500       0.891461
    15710.919100       0.890685
    15735.641200       0.889923
    15760.441300       0.889176
    15785.319700       0.888444
    15810.276700       0.887726
    15835.312700       0.887022
    15860.428200       0.886334
    15885.623500       0.885661
    15910.899000       0.885002
    15936.255000       0.884359
    15961.691900       0.883731
    15987.210200       0.883118
    16012.810200       0.882520
    16038.492400       0.881938
    16064.257000       0.881371
    16090.104600       0.880820
    16116.035500       0.880284
    16142.050000       0.879763
    16168.148700       0.879258
    16194.332000       0.878768
    16220.600200       0.878293
    16246.953700       0.877834
    16273.393000       0.877390
    16299.918500       0.876962
    16326.530600       0.876548
    16353.229800       0.876150
    16380.016400       0.875767
    16406.890900       0.875398
    16433.853700       0.875045
    16460.905300       0.874706
    16488.046200       0.874382
    16515.276600       0.874072
    16542.597200       0.873776
    16570.008300       0.873495
    16597.510400       0.873228
    16625.103900       0.872974
    16652.789300       0.872734
    16680.567100       0.872508
    16708.437800       0.872295
    16736.401700       0.872095
    16764.459300       0.871907
    16792.611300       0.871733
    16820.857900       0.871570
    16849.199700       0.871420
    16877.637100       0.871281
    16906.170800       0.871154
    16934.801000       0.871038
    16963.528400       0.870933
    16992.353400       0.870838
    17021.276600       0.870754
    17050.298400       0.870679
    17079.419300       0.870615
    17108.639900       0.870559
    17137.960600       0.870512
    17167.382000       0.870474
    17196.904600       0.870444
    17226.528900       0.870421
    17256.255400       0.870406
    17286.084700       0.870397
    17316.017300       0.870395
    17346.053800       0.870399
    17376.194600       0.870408
    17406.440400       0.870423
    17436.791600       0.870442
    17467.248900       0.870465
    17497.812800       0.870491
    17528.483800       0.870521
    17559.262500       0.870553
    17590.149500       0.870587
    17621.145400       0.870623
    17652.250700       0.870659
    17683.466000       0.870696
    17714.791900       0.870732
    17746.228900       0.870768
    17777.777800       0.870802
    17809.439000       0.870835
    17841.213200       0.870864
    17873.101000       0.870891
    17905.103000       0.870913
    17937.219700       0.870931
    17969.451900       0.870944
    18001.800200       0.870950
    18034.265100       0.870951
    18066.847300       0.870944
    18099.547500       0.870929
    18132.366300       0.870905
    18165.304300       0.870872
    18198.362100       0.870829
    18231.540600       0.870776
    18264.840200       0.870710
    18298.261700       0.870633
    18331.805700       0.870542
    18365.472900       0.870437
    18399.264000       0.870318
    18433.179700       0.870184
    18467.220700       0.870033
    18501.387600       0.869865
    18535.681200       0.869680
    18570.102100       0.869476
    18604.651200       0.869252
    18639.329000       0.869008
    18674.136300       0.868743
    18709.073900       0.868456
    18744.142500       0.868147
    18779.342700       0.867813
    18814.675400       0.867455
    18850.141400       0.867072
    18885.741300       0.866662
    18921.475900       0.866225
    18957.346000       0.865760
    18993.352300       0.865266
    19029.495700       0.864742
    19065.776900       0.864188
    19102.196800       0.863601
    19138.756000       0.862982
    19175.455400       0.862330
    19212.295900       0.861643
    19249.278200       0.860920
    19286.403100       0.860161
    19323.671500       0.859365
    19361.084200       0.858530
    19398.642100       0.857656
    19436.346000       0.856742
    19474.196700       0.855787
    19512.195100       0.854790
    19550.342100       0.853750
    19588.638600       0.852665
    19627.085400       0.851536
    19665.683400       0.850361
    19704.433500       0.849138
    19743.336600       0.847868
    19782.393700       0.846549
    19821.605600       0.845180
    19860.973200       0.843761
    19900.497500       0.842289
    19940.179500       0.840765
    19980.020000       0.839187
    20020.020000       0.837554
    20060.180500       0.835866
    20100.502500       0.834121
    20140.986900       0.832318
    20181.634700       0.830457
    20222.446900       0.828536
    20263.424500       0.826555
    20304.568500       0.824512
    20345.880000       0.822407
    20387.359800       0.820239
    20429.009200       0.818006
    20470.829100       0.815708
    20512.820500       0.813344
    20554.984600       0.810912
    20597.322300       0.808413
    20639.834900       0.805845
    20682.523300       0.803207
    20725.388600       0.800498
    20768.432000       0.797717
    20811.654500       0.794864
    20855.057400       0.791938
    20898.641600       0.788937
    20942.408400       0.785861
    20986.358900       0.782709
    21030.494200       0.779480
    21074.815600       0.776174
    21119.324200       0.772789
    21164.021200       0.769325
    21208.907700       0.765781
    21253.985100       0.762155
    21299.254500       0.758448
    21344.717200       0.754659
    21390.374300       0.750786
    21436.227200       0.746830
    21482.277100       0.742789
    21528.525300       0.738662
    21574.973000       0.734450
    21621.621600       0.730151
    21668.472400       0.725764
    21715.526600       0.721289
    21762.785600       0.716726
    21810.250800       0.712074
    21857.923500       0.707331
    21905.805000       0.702498
    21953.896800       0.697575
    22002.200200       0.692559
    22050.716600       0.687452
    22099.447500       0.682252
    22148.394200       0.676960
    22197.558300       0.671573
    22246.941000       0.666093
    22296.544000       0.660519
    22346.368700       0.654850
    22396.416600       0.649086
    22446.689100       0.643227
    22497.187900       0.637272
    22547.914300       0.631221
    22598.870100       0.625074
    22650.056600       0.618831
    22701.475600       0.612491
    22753.128600       0.606054
    22805.017100       0.599520
    22857.142900       0.592890
    22909.507400       0.586162
    22962.112500       0.579337
    23014.959700       0.572415
    23068.050700       0.565395
    23121.387300       0.558279
    23174.971000       0.551065
    23228.803700       0.543754
    23282.887100       0.536347
    23337.222900       0.528843
    23391.812900       0.521242
    23446.658900       0.513545
    23501.762600       0.505753
    23557.126000       0.497864
    23612.750900       0.489880
    23668.639100       0.481802
    23724.792400       0.473629
    23781.212800       0.465362
    23837.902300       0.457001
    23894.862600       0.448548
    23952.095800       0.440002
    24009.603800       0.431365
    24067.388700       0.422637
    24125.452400       0.413818
    24183.796900       0.404910
    24242.424200       0.395913
    24301.336600       0.386828
    24360.535900       0.377657
    24420.024400       0.368399
    24479.804200       0.359056
    24539.877300       0.349630
    24600.246000       0.340121
    24660.912500       0.330529
    24721.878900       0.320858
    24783.147500       0.311107
    24844.720500       0.301278
    24906.600200       0.291372
    24968.789000       0.281392
    25031.289100       0.271337
    25094.102900       0.261210
    25157.232700       0.251013
    25220.681000       0.240746
    25284.450100       0.230413
    25348.542500       0.220013
    25412.960600       0.209550
    25477.707000       0.199024
