   8  ,noaa_07_hirs_08.flt
Number of data points:
68
Wavenumber (cm-1)   Filter response
      850.080000       0.000000
      855.300000       0.002835
      860.300000       0.005844
      864.920000       0.011104
      869.650000       0.011991
      870.460000       0.018576
      872.160000       0.034757
      873.630000       0.053956
      874.780000       0.084253
      875.560000       0.115180
      876.850000       0.182870
      877.860000       0.233550
      878.350000       0.281410
      878.860000       0.317410
      879.160000       0.358270
      879.630000       0.408660
      880.070000       0.459640
      880.730000       0.512010
      881.020000       0.539990
      881.840000       0.597470
      883.020000       0.698710
      884.000000       0.761570
      885.230000       0.807980
      887.210000       0.871260
      888.560000       0.906080
      890.840000       0.952330
      892.660000       0.982930
      893.430000       0.995000
      894.340000       0.999800
      895.310000       1.000000
      896.930000       0.977350
      898.340000       0.955400
      899.710000       0.920690
      899.970000       0.913710
      900.770000       0.899110
      901.590000       0.885710
      902.720000       0.871290
      903.570000       0.871800
      904.430000       0.878290
      905.610000       0.901730
      907.030000       0.943700
      908.540000       0.981290
      909.090000       0.991810
      909.780000       0.992320
      910.280000       0.979520
      910.830000       0.954340
      911.230000       0.918170
      911.610000       0.888530
      912.250000       0.788460
      912.930000       0.653420
      914.100000       0.486740
      915.030000       0.366430
      915.720000       0.273830
      915.870000       0.241080
      916.440000       0.203500
      916.930000       0.180560
      917.510000       0.136360
      917.990000       0.106590
      918.690000       0.083573
      919.500000       0.057487
      920.500000       0.041208
      921.360000       0.031686
      922.730000       0.027129
      925.030000       0.014001
      926.890000       0.012441
      931.170000       0.006679
      936.010000       0.000611
      939.990000       0.000000
